xPos,stimulusSet,whichImage,thisN,thisTrialN,thisRepN,key_resp.keys,key_resp.corr,key_resp.rt,key_resp.duration,blocks.thisRepN,blocks.thisTrialN,blocks.thisN,blocks.thisIndex,trials.thisRepN,trials.thisTrialN,trials.thisN,trials.thisIndex,thisRow.t,notes,piloting,intro.started,introinstructions.started,intro_key.started,intro.stopped,intro_key.keys,intro_key.rt,intro_key.duration,block_start.started,block_start.stopped,trial.started,key_resp.started,middle_image.started,right_image.started,left_image.started,trial.stopped,trials.key_resp.keys,trials.key_resp.corr,trials.key_resp.rt,trials.key_resp.duration,direction,angle,reversal_intensities,number_reversals,stimulus,response,correct,blockNumber,participant,session,date,expName,expVersion,psychopyVersion,frameRate,expStart,
,,,,,,,,,,,,,,,,,,,,False,0.056247800000164716,0.06420690000049945,0.06420690000049945,310.1882876999998,space,310.11901229999967,None,,,,,,,,,,,,,,,,,,,,,pilot3,001,2026-04-02_16h01.05.375,mogelijke versie adaptive staircase builder,,2026.1.3,59.87310494138225,2026-04-02 16h01.05.485108 +0200,
29.1,ecc10pos,left,0,0,0,f,1,4.349839999999858,None,0,0,0,0,0,0,0,0,310.54532560000007,,,,,,,,,,310.41692330000024,310.4170401000001,310.5319556000004,310.54532560000007,310.54532560000007,310.54532560000007,311.4212072,314.9048750000002,f,1,4.349839999999858,None,left,15,[],0,shiftedgaze_L_15.png,f,1,1,pilot3,001,2026-04-02_16h01.05.375,mogelijke versie adaptive staircase builder,,2026.1.3,59.87310494138225,2026-04-02 16h01.05.485108 +0200,
29.1,ecc10pos,left,1,0,1,j,0,3.8133428000001004,None,0,0,0,0,1,0,1,0,315.16978240000026,,,,,,,,,,,,315.15963360000023,315.16978240000026,315.16978240000026,315.16978240000026,315.90459999999985,318.9879931000005,j,0,3.8133428000001004,None,right,14,[14],1,shiftedgaze_R_14.png,j,0,1,pilot3,001,2026-04-02_16h01.05.375,mogelijke versie adaptive staircase builder,,2026.1.3,59.87310494138225,2026-04-02 16h01.05.485108 +0200,
29.1,ecc10pos,left,2,0,2,f,1,3.189624900000126,None,0,0,0,0,2,0,2,0,319.09760730000016,,,,,,,,,,,,319.0876317000002,319.09760730000016,319.09760730000016,319.09760730000016,319.98802460000024,322.2880869999999,f,1,3.189624900000126,None,left,15,[14],1,shiftedgaze_L_15.png,f,1,1,pilot3,001,2026-04-02_16h01.05.375,mogelijke versie adaptive staircase builder,,2026.1.3,59.87310494138225,2026-04-02 16h01.05.485108 +0200,
29.1,ecc10pos,left,3,0,3,j,0,2.995797499999753,None,0,0,0,0,3,0,3,0,322.40330919999997,,,,,,,,,,,,322.3931647999998,322.40330919999997,322.40330919999997,322.40330919999997,323.2878665999997,325.40462899999966,j,0,2.995797499999753,None,right,15,[14],1,shiftedgaze_R_15.png,j,0,1,pilot3,001,2026-04-02_16h01.05.375,mogelijke versie adaptive staircase builder,,2026.1.3,59.87310494138225,2026-04-02 16h01.05.485108 +0200,
29.1,ecc10pos,left,4,0,4,f,1,4.678129199999603,None,0,0,0,0,4,0,4,0,325.5131320999999,,,,,,,,,,,,325.5034237,325.5131320999999,325.5131320999999,325.5131320999999,326.40439010000046,330.20446119999997,f,1,4.678129199999603,None,left,15,[14],1,shiftedgaze_L_15.png,f,1,1,pilot3,001,2026-04-02_16h01.05.375,mogelijke versie adaptive staircase builder,,2026.1.3,59.87310494138225,2026-04-02 16h01.05.485108 +0200,
29.1,ecc10pos,left,5,0,5,f,0,5.517690099999527,None,0,0,0,0,5,0,5,0,330.3214622000005,,,,,,,,,,,,330.31159639999987,330.3214622000005,330.3214622000005,330.3214622000005,331.2044042999996,335.85460630000034,f,0,5.517690099999527,None,direct,15,[14],1,shifteddirectgaze.png,f,0,1,pilot3,001,2026-04-02_16h01.05.375,mogelijke versie adaptive staircase builder,,2026.1.3,59.87310494138225,2026-04-02 16h01.05.485108 +0200,
29.1,ecc10pos,left,6,0,6,j,0,2.27993989999959,None,0,0,0,0,6,0,6,0,335.95116770000004,,,,,,,,,,,,335.9411433000005,335.95116770000004,335.95116770000004,335.95116770000004,336.8540763000001,338.23770500000046,j,0,2.27993989999959,None,right,15,[14],1,shiftedgaze_R_15.png,j,0,1,pilot3,001,2026-04-02_16h01.05.375,mogelijke versie adaptive staircase builder,,2026.1.3,59.87310494138225,2026-04-02 16h01.05.485108 +0200,
29.1,ecc10pos,left,7,0,7,f,1,2.424198400000023,None,0,0,0,0,7,0,7,0,338.33503980000023,,,,,,,,,,,,338.32462300000043,338.33503980000023,338.33503980000023,338.33503980000023,339.23756460000004,340.77115179999964,f,1,2.424198400000023,None,right,15,[14],1,shiftedgaze_R_15.png,f,1,1,pilot3,001,2026-04-02_16h01.05.375,mogelijke versie adaptive staircase builder,,2026.1.3,59.87310494138225,2026-04-02 16h01.05.485108 +0200,
29.1,ecc10pos,left,8,0,8,f,0,3.49584650000088,None,0,0,0,0,8,0,8,0,340.8712979000002,,,,,,,,,,,,340.8605279000003,340.8712979000002,340.8712979000002,340.8712979000002,341.77096770000026,344.37111879999975,f,0,3.49584650000088,None,direct,15,[14],1,shifteddirectgaze.png,f,0,1,pilot3,001,2026-04-02_16h01.05.375,mogelijke versie adaptive staircase builder,,2026.1.3,59.87310494138225,2026-04-02 16h01.05.485108 +0200,
29.1,ecc10pos,left,9,0,9,j,1,2.4187678999996933,None,0,0,0,0,9,0,9,0,344.46875439999985,,,,,,,,,,,,344.4578325000002,344.46875439999985,344.46875439999985,344.46875439999985,345.3707708000002,346.90444300000036,j,1,2.4187678999996933,None,direct,15,[14],1,shifteddirectgaze.png,j,1,1,pilot3,001,2026-04-02_16h01.05.375,mogelijke versie adaptive staircase builder,,2026.1.3,59.87310494138225,2026-04-02 16h01.05.485108 +0200,
29.1,ecc10pos,left,10,0,10,j,0,2.508372899999813,None,0,0,0,0,10,0,10,0,347.00285970000004,,,,,,,,,,,,346.99201410000023,347.00285970000004,347.00285970000004,347.00285970000004,347.9039780000003,349.52101500000026,j,0,2.508372899999813,None,right,15,[14],1,shiftedgaze_R_15.png,j,0,1,pilot3,001,2026-04-02_16h01.05.375,mogelijke versie adaptive staircase builder,,2026.1.3,59.87310494138225,2026-04-02 16h01.05.485108 +0200,
29.1,ecc10pos,left,11,0,11,j,1,2.7249761000002763,None,0,0,0,0,11,0,11,0,349.6180596000004,,,,,,,,,,,,349.6077416999997,349.6180596000004,349.6180596000004,349.6180596000004,350.5206046000003,352.3541402000001,j,1,2.7249761000002763,None,direct,15,[14],1,shifteddirectgaze.png,j,1,1,pilot3,001,2026-04-02_16h01.05.375,mogelijke versie adaptive staircase builder,,2026.1.3,59.87310494138225,2026-04-02 16h01.05.485108 +0200,
29.1,ecc10pos,left,12,0,12,f,0,2.2577570000003107,None,0,0,0,0,12,0,12,0,352.4533790000005,,,,,,,,,,,,352.44092340000043,352.4533790000005,352.4533790000005,352.4533790000005,353.35402220000014,354.72089570000026,f,0,2.2577570000003107,None,direct,15,[14],1,shifteddirectgaze.png,f,0,1,pilot3,001,2026-04-02_16h01.05.375,mogelijke versie adaptive staircase builder,,2026.1.3,59.87310494138225,2026-04-02 16h01.05.485108 +0200,
29.1,ecc10pos,left,13,0,13,f,0,5.27522670000053,None,0,0,0,0,13,0,13,0,354.81989350000003,,,,,,,,,,,,354.8088539999999,354.81989350000003,354.81989350000003,354.81989350000003,355.72048389999964,360.10405869999977,f,0,5.27522670000053,None,direct,15,[14],1,shifteddirectgaze.png,f,0,1,pilot3,001,2026-04-02_16h01.05.375,mogelijke versie adaptive staircase builder,,2026.1.3,59.87310494138225,2026-04-02 16h01.05.485108 +0200,
29.1,ecc10pos,left,14,0,14,j,0,4.530636999999842,None,0,0,0,0,14,0,14,0,360.21252790000017,,,,,,,,,,,,360.2023562000004,360.21252790000017,360.21252790000017,360.21252790000017,361.1038220999999,364.75402529999974,j,0,4.530636999999842,None,left,15,[14],1,shiftedgaze_L_15.png,j,0,1,pilot3,001,2026-04-02_16h01.05.375,mogelijke versie adaptive staircase builder,,2026.1.3,59.87310494138225,2026-04-02 16h01.05.485108 +0200,
29.1,ecc10pos,left,15,0,15,f,1,2.786135999999715,None,0,0,0,0,15,0,15,0,364.85303550000026,,,,,,,,,,,,364.84195759999966,364.85303550000026,364.85303550000026,364.85303550000026,365.75375150000036,367.6543952000002,f,1,2.786135999999715,None,left,15,[14],1,shiftedgaze_L_15.png,f,1,1,pilot3,001,2026-04-02_16h01.05.375,mogelijke versie adaptive staircase builder,,2026.1.3,59.87310494138225,2026-04-02 16h01.05.485108 +0200,
29.1,ecc10pos,left,16,0,16,j,1,2.993146599999818,None,0,0,0,0,16,0,16,0,367.7819970999999,,,,,,,,,,,,367.77062639999986,367.7819970999999,367.7819970999999,367.7819970999999,368.6536447999997,370.78747810000004,j,1,2.993146599999818,None,direct,15,"[14, 15]",2,shifteddirectgaze.png,j,1,1,pilot3,001,2026-04-02_16h01.05.375,mogelijke versie adaptive staircase builder,,2026.1.3,59.87310494138225,2026-04-02 16h01.05.485108 +0200,
29.1,ecc10pos,left,17,0,17,j,1,2.3306328999997277,None,0,0,0,0,17,0,17,0,370.8845567999997,,,,,,,,,,,,370.8739587,370.8845567999997,370.8845567999997,370.8845567999997,371.78716220000024,373.2205670000003,j,1,2.3306328999997277,None,direct,14,"[14, 15]",2,shifteddirectgaze.png,j,1,1,pilot3,001,2026-04-02_16h01.05.375,mogelijke versie adaptive staircase builder,,2026.1.3,59.87310494138225,2026-04-02 16h01.05.485108 +0200,
29.1,ecc10pos,left,18,0,18,f,1,2.9390407000000778,None,0,0,0,0,18,0,18,0,373.3240827999998,,,,,,,,,,,,373.31362609999996,373.3240827999998,373.3240827999998,373.3240827999998,374.2202819000004,376.2705704,f,1,2.9390407000000778,None,left,14,"[14, 15]",2,shiftedgaze_L_14.png,f,1,1,pilot3,001,2026-04-02_16h01.05.375,mogelijke versie adaptive staircase builder,,2026.1.3,59.87310494138225,2026-04-02 16h01.05.485108 +0200,
29.1,ecc10pos,left,19,0,19,j,0,2.534356000000116,None,0,0,0,0,19,0,19,0,376.3768283999998,,,,,,,,,,,,376.3663609000005,376.3768283999998,376.3768283999998,376.3768283999998,377.2704094999999,378.9205572000001,j,0,2.534356000000116,None,left,13,"[14, 15, 13]",3,shiftedgaze_L_13.png,j,0,1,pilot3,001,2026-04-02_16h01.05.375,mogelijke versie adaptive staircase builder,,2026.1.3,59.87310494138225,2026-04-02 16h01.05.485108 +0200,
29.1,ecc10pos,left,20,0,20,f,1,3.917980300000636,None,0,0,0,0,20,0,20,0,379.0175767999999,,,,,,,,,,,,379.0063078000003,379.0175767999999,379.0175767999999,379.0175767999999,379.92023919999974,382.9371560999998,f,1,3.917980300000636,None,left,14,"[14, 15, 13]",3,shiftedgaze_L_14.png,f,1,1,pilot3,001,2026-04-02_16h01.05.375,mogelijke versie adaptive staircase builder,,2026.1.3,59.87310494138225,2026-04-02 16h01.05.485108 +0200,
29.1,ecc10pos,left,21,0,21,f,0,4.525211500000296,None,0,0,0,0,21,0,21,0,383.03397740000037,,,,,,,,,,,,383.0237308000005,383.03397740000037,383.03397740000037,383.03397740000037,383.9368390999998,387.5705717999999,f,0,4.525211500000296,None,direct,14,"[14, 15, 13]",3,shifteddirectgaze.png,f,0,1,pilot3,001,2026-04-02_16h01.05.375,mogelijke versie adaptive staircase builder,,2026.1.3,59.87310494138225,2026-04-02 16h01.05.485108 +0200,
29.1,ecc10pos,left,22,0,22,j,0,2.225859500000297,None,0,0,0,0,22,0,22,0,387.6692370999999,,,,,,,,,,,,387.6581197000005,387.6692370999999,387.6692370999999,387.6692370999999,388.5701581000003,389.9038700000001,j,0,2.225859500000297,None,right,15,"[14, 15, 13]",3,shiftedgaze_R_15.png,j,0,1,pilot3,001,2026-04-02_16h01.05.375,mogelijke versie adaptive staircase builder,,2026.1.3,59.87310494138225,2026-04-02 16h01.05.485108 +0200,
29.1,ecc10pos,left,23,0,23,j,1,2.5001687000003585,None,0,0,0,0,23,0,23,0,390.0031121000002,,,,,,,,,,,,389.9927477000001,390.0031121000002,390.0031121000002,390.0031121000002,390.90350860000035,392.50373260000015,j,1,2.5001687000003585,None,direct,15,"[14, 15, 13]",3,shifteddirectgaze.png,j,1,1,pilot3,001,2026-04-02_16h01.05.375,mogelijke versie adaptive staircase builder,,2026.1.3,59.87310494138225,2026-04-02 16h01.05.485108 +0200,
29.1,ecc10pos,left,24,0,24,j,1,2.884802800000216,None,0,0,0,0,24,0,24,0,392.6023365000001,,,,,,,,,,,,392.59148060000007,392.6023365000001,392.6023365000001,392.6023365000001,393.5034889999997,395.5037497000003,j,1,2.884802800000216,None,direct,15,"[14, 15, 13, 15]",4,shifteddirectgaze.png,j,1,1,pilot3,001,2026-04-02_16h01.05.375,mogelijke versie adaptive staircase builder,,2026.1.3,59.87310494138225,2026-04-02 16h01.05.485108 +0200,
29.1,ecc10pos,left,25,0,25,j,1,2.525329000000056,None,0,0,0,0,25,0,25,0,395.60195569999996,,,,,,,,,,,,395.5907484999998,395.60195569999996,395.60195569999996,395.60195569999996,396.5035380999998,398.13723089999985,j,1,2.525329000000056,None,direct,14,"[14, 15, 13, 15]",4,shifteddirectgaze.png,j,1,1,pilot3,001,2026-04-02_16h01.05.375,mogelijke versie adaptive staircase builder,,2026.1.3,59.87310494138225,2026-04-02 16h01.05.485108 +0200,
29.1,ecc10pos,left,26,0,26,f,1,3.0766782000000603,None,0,0,0,0,26,0,26,0,398.2344573999999,,,,,,,,,,,,398.2241968999997,398.2344573999999,398.2344573999999,398.2344573999999,399.1364470999997,401.3201792,f,1,3.0766782000000603,None,left,14,"[14, 15, 13, 15]",4,shiftedgaze_L_14.png,f,1,1,pilot3,001,2026-04-02_16h01.05.375,mogelijke versie adaptive staircase builder,,2026.1.3,59.87310494138225,2026-04-02 16h01.05.485108 +0200,
29.1,ecc10pos,left,27,0,27,j,1,2.883632399999442,None,0,0,0,0,27,0,27,0,401.4196764999997,,,,,,,,,,,,401.4084939000004,401.4196764999997,401.4196764999997,401.4196764999997,402.32001149999996,404.3204477999998,j,1,2.883632399999442,None,direct,13,"[14, 15, 13, 15]",4,shifteddirectgaze.png,j,1,1,pilot3,001,2026-04-02_16h01.05.375,mogelijke versie adaptive staircase builder,,2026.1.3,59.87310494138225,2026-04-02 16h01.05.485108 +0200,
29.1,ecc10pos,left,28,0,28,f,0,5.724435999999514,None,0,0,0,0,28,0,28,0,404.4193256999997,,,,,,,,,,,,404.4079870000005,404.4193256999997,404.4193256999997,404.4193256999997,405.3199800000002,410.15369230000033,f,0,5.724435999999514,None,direct,13,"[14, 15, 13, 15, 13]",5,shifteddirectgaze.png,f,0,1,pilot3,001,2026-04-02_16h01.05.375,mogelijke versie adaptive staircase builder,,2026.1.3,59.87310494138225,2026-04-02 16h01.05.485108 +0200,
29.1,ecc10pos,left,29,0,29,j,0,2.916968600000473,None,0,0,0,0,29,0,29,0,410.25034529999994,,,,,,,,,,,,410.24036890000025,410.25034529999994,410.25034529999994,410.25034529999994,411.1530853000004,413.17036929999995,j,0,2.916968600000473,None,left,14,"[14, 15, 13, 15, 13]",5,shiftedgaze_L_14.png,j,0,1,pilot3,001,2026-04-02_16h01.05.375,mogelijke versie adaptive staircase builder,,2026.1.3,59.87310494138225,2026-04-02 16h01.05.485108 +0200,
29.1,ecc10pos,left,30,0,30,j,1,4.555077600000004,None,0,0,0,0,30,0,30,0,413.26806080000006,,,,,,,,,,,,413.2574469000001,413.26806080000006,413.26806080000006,413.26806080000006,414.1698944,417.8368096000004,j,1,4.555077600000004,None,direct,15,"[14, 15, 13, 15, 13]",5,shifteddirectgaze.png,j,1,1,pilot3,001,2026-04-02_16h01.05.375,mogelijke versie adaptive staircase builder,,2026.1.3,59.87310494138225,2026-04-02 16h01.05.485108 +0200,
29.1,ecc10pos,left,31,0,31,j,1,2.4796808000000965,None,0,0,0,0,31,0,31,0,417.93557770000007,,,,,,,,,,,,417.92482219999965,417.93557770000007,417.93557770000007,417.93557770000007,418.83650769999986,420.42012650000015,j,1,2.4796808000000965,None,direct,15,"[14, 15, 13, 15, 13, 15]",6,shifteddirectgaze.png,j,1,1,pilot3,001,2026-04-02_16h01.05.375,mogelijke versie adaptive staircase builder,,2026.1.3,59.87310494138225,2026-04-02 16h01.05.485108 +0200,
29.1,ecc10pos,left,32,0,32,j,1,2.985359899999821,None,0,0,0,0,32,0,32,0,420.51819049999995,,,,,,,,,,,,420.50744190000023,420.51819049999995,420.51819049999995,420.51819049999995,421.4197688000004,423.5201337999997,j,1,2.985359899999821,None,direct,14,"[14, 15, 13, 15, 13, 15]",6,shifteddirectgaze.png,j,1,1,pilot3,001,2026-04-02_16h01.05.375,mogelijke versie adaptive staircase builder,,2026.1.3,59.87310494138225,2026-04-02 16h01.05.485108 +0200,
29.1,ecc10pos,left,33,0,33,j,1,2.773094399999536,None,0,0,0,0,33,0,33,0,423.61821150000014,,,,,,,,,,,,423.60685470000044,423.61821150000014,423.61821150000014,423.61821150000014,424.51991850000013,426.4035522000004,j,1,2.773094399999536,None,direct,14,"[14, 15, 13, 15, 13, 15]",6,shifteddirectgaze.png,j,1,1,pilot3,001,2026-04-02_16h01.05.375,mogelijke versie adaptive staircase builder,,2026.1.3,59.87310494138225,2026-04-02 16h01.05.485108 +0200,
29.1,ecc10pos,left,34,0,34,f,0,4.539113400000133,None,0,0,0,0,34,0,34,0,426.50016760000017,,,,,,,,,,,,426.4897284999997,426.50016760000017,426.50016760000017,426.50016760000017,427.4030088999998,431.0532954,f,0,4.539113400000133,None,direct,13,"[14, 15, 13, 15, 13, 15, 13]",7,shifteddirectgaze.png,f,0,1,pilot3,001,2026-04-02_16h01.05.375,mogelijke versie adaptive staircase builder,,2026.1.3,59.87310494138225,2026-04-02 16h01.05.485108 +0200,
29.1,ecc10pos,left,35,0,35,f,1,4.680399400000169,None,0,0,0,0,35,0,35,0,431.15075979999983,,,,,,,,,,,,431.1401671000003,431.15075979999983,431.15075979999983,431.15075979999983,432.05294890000005,435.8368363999998,f,1,4.680399400000169,None,right,14,"[14, 15, 13, 15, 13, 15, 13]",7,shiftedgaze_R_14.png,f,1,1,pilot3,001,2026-04-02_16h01.05.375,mogelijke versie adaptive staircase builder,,2026.1.3,59.87310494138225,2026-04-02 16h01.05.485108 +0200,
29.1,ecc10pos,left,36,0,36,j,0,2.399017900000217,None,0,0,0,0,36,0,36,0,435.93641860000025,,,,,,,,,,,,435.9252709000002,435.93641860000025,435.93641860000025,435.93641860000025,436.8362196999997,438.3362993999999,j,0,2.399017900000217,None,left,14,"[14, 15, 13, 15, 13, 15, 13]",7,shiftedgaze_L_14.png,j,0,1,pilot3,001,2026-04-02_16h01.05.375,mogelijke versie adaptive staircase builder,,2026.1.3,59.87310494138225,2026-04-02 16h01.05.485108 +0200,
29.1,ecc10pos,left,37,0,37,f,1,3.072069800000463,None,0,0,0,0,37,0,37,0,438.4471418000003,,,,,,,,,,,,438.43695449999996,438.4471418000003,438.4471418000003,438.4471418000003,439.3363638000001,441.5198588000003,f,1,3.072069800000463,None,left,15,"[14, 15, 13, 15, 13, 15, 13]",7,shiftedgaze_L_15.png,f,1,1,pilot3,001,2026-04-02_16h01.05.375,mogelijke versie adaptive staircase builder,,2026.1.3,59.87310494138225,2026-04-02 16h01.05.485108 +0200,
29.1,ecc10pos,left,38,0,38,j,0,2.449867300000733,None,0,0,0,0,38,0,38,0,441.62932790000013,,,,,,,,,,,,441.61891360000027,441.62932790000013,441.62932790000013,441.62932790000013,442.51951590000044,444.0862285000003,j,0,2.449867300000733,None,right,15,"[14, 15, 13, 15, 13, 15, 13]",7,shiftedgaze_R_15.png,j,0,1,pilot3,001,2026-04-02_16h01.05.375,mogelijke versie adaptive staircase builder,,2026.1.3,59.87310494138225,2026-04-02 16h01.05.485108 +0200,
29.1,ecc10pos,left,39,0,39,j,1,2.198540299999877,None,0,0,0,0,39,0,39,0,444.18466869999975,,,,,,,,,,,,444.17393859999993,444.18466869999975,444.18466869999975,444.18466869999975,445.08591499999966,446.3865747,j,1,2.198540299999877,None,direct,15,"[14, 15, 13, 15, 13, 15, 13]",7,shifteddirectgaze.png,j,1,1,pilot3,001,2026-04-02_16h01.05.375,mogelijke versie adaptive staircase builder,,2026.1.3,59.87310494138225,2026-04-02 16h01.05.485108 +0200,
29.1,ecc10pos,left,40,0,40,f,1,2.6422019999999975,None,0,0,0,0,40,0,40,0,446.4849357000003,,,,,,,,,,,,446.47415869999986,446.4849357000003,446.4849357000003,446.4849357000003,447.3860912,449.13655519999975,f,1,2.6422019999999975,None,right,15,"[14, 15, 13, 15, 13, 15, 13, 15]",8,shiftedgaze_R_15.png,f,1,1,pilot3,001,2026-04-02_16h01.05.375,mogelijke versie adaptive staircase builder,,2026.1.3,59.87310494138225,2026-04-02 16h01.05.485108 +0200,
29.1,ecc10pos,left,41,0,41,j,0,2.2116908999996667,None,0,0,0,0,41,0,41,0,449.23561059999975,,,,,,,,,,,,449.22551889999977,449.23561059999975,449.23561059999975,449.23561059999975,450.1358081999997,451.4530660999999,j,0,2.2116908999996667,None,left,14,"[14, 15, 13, 15, 13, 15, 13, 15, 14]",9,shiftedgaze_L_14.png,j,0,1,pilot3,001,2026-04-02_16h01.05.375,mogelijke versie adaptive staircase builder,,2026.1.3,59.87310494138225,2026-04-02 16h01.05.485108 +0200,
29.1,ecc10pos,left,42,0,42,f,1,2.6636281000000963,None,0,0,0,0,42,0,42,0,451.55155990000003,,,,,,,,,,,,451.5412144000002,451.55155990000003,451.55155990000003,451.55155990000003,452.45304639999995,454.21983790000013,f,1,2.6636281000000963,None,right,15,"[14, 15, 13, 15, 13, 15, 13, 15, 14]",9,shiftedgaze_R_15.png,f,1,1,pilot3,001,2026-04-02_16h01.05.375,mogelijke versie adaptive staircase builder,,2026.1.3,59.87310494138225,2026-04-02 16h01.05.485108 +0200,
29.1,ecc10pos,left,43,0,43,j,1,2.4077172999996037,None,0,0,0,0,43,0,43,0,454.3194374000004,,,,,,,,,,,,454.30854269999963,454.3194374000004,454.3194374000004,454.3194374000004,455.2192702000002,456.7360008000005,j,1,2.4077172999996037,None,direct,15,"[14, 15, 13, 15, 13, 15, 13, 15, 14, 15]",10,shifteddirectgaze.png,j,1,1,pilot3,001,2026-04-02_16h01.05.375,mogelijke versie adaptive staircase builder,,2026.1.3,59.87310494138225,2026-04-02 16h01.05.485108 +0200,
29.1,ecc10pos,left,44,0,44,j,0,2.4046502000001055,None,0,0,0,0,44,0,44,0,456.83450879999964,,,,,,,,,,,,456.82446510000045,456.83450879999964,456.83450879999964,456.83450879999964,457.7360607999999,459.2530538000001,j,0,2.4046502000001055,None,right,14,"[14, 15, 13, 15, 13, 15, 13, 15, 14, 15, 14]",11,shiftedgaze_R_14.png,j,0,1,pilot3,001,2026-04-02_16h01.05.375,mogelijke versie adaptive staircase builder,,2026.1.3,59.87310494138225,2026-04-02 16h01.05.485108 +0200,
29.1,ecc10pos,left,45,0,45,f,0,3.1358847999999853,None,0,0,0,0,45,0,45,0,459.35148839999965,,,,,,,,,,,,459.34066729999995,459.35148839999965,459.35148839999965,459.35148839999965,460.25260400000025,462.5025979000002,f,0,3.1358847999999853,None,direct,15,"[14, 15, 13, 15, 13, 15, 13, 15, 14, 15, 14]",11,shifteddirectgaze.png,f,0,1,pilot3,001,2026-04-02_16h01.05.375,mogelijke versie adaptive staircase builder,,2026.1.3,59.87310494138225,2026-04-02 16h01.05.485108 +0200,
29.1,ecc10pos,left,46,0,46,f,0,2.5414112999997087,None,0,0,0,0,46,0,46,0,462.60176599999977,,,,,,,,,,,,462.59061500000007,462.60176599999977,462.60176599999977,462.60176599999977,463.5026176000001,465.15284989999964,f,0,2.5414112999997087,None,direct,15,"[14, 15, 13, 15, 13, 15, 13, 15, 14, 15, 14]",11,shifteddirectgaze.png,f,0,1,pilot3,001,2026-04-02_16h01.05.375,mogelijke versie adaptive staircase builder,,2026.1.3,59.87310494138225,2026-04-02 16h01.05.485108 +0200,
29.1,ecc10pos,left,47,0,47,j,0,2.256430200000068,None,0,0,0,0,47,0,47,0,465.2627504000002,,,,,,,,,,,,465.25240360000043,465.2627504000002,465.2627504000002,465.2627504000002,466.15287100000023,467.51952900000015,j,0,2.256430200000068,None,left,15,"[14, 15, 13, 15, 13, 15, 13, 15, 14, 15, 14]",11,shiftedgaze_L_15.png,j,0,1,pilot3,001,2026-04-02_16h01.05.375,mogelijke versie adaptive staircase builder,,2026.1.3,59.87310494138225,2026-04-02 16h01.05.485108 +0200,
29.1,ecc10pos,left,48,0,48,j,0,2.9226017999999385,None,0,0,0,0,48,0,48,0,467.62858700000015,,,,,,,,,,,,467.61866980000013,467.62858700000015,467.62858700000015,467.62858700000015,468.51896680000027,470.5527954999998,j,0,2.9226017999999385,None,right,15,"[14, 15, 13, 15, 13, 15, 13, 15, 14, 15, 14]",11,shiftedgaze_R_15.png,j,0,1,pilot3,001,2026-04-02_16h01.05.375,mogelijke versie adaptive staircase builder,,2026.1.3,59.87310494138225,2026-04-02 16h01.05.485108 +0200,
29.1,ecc10pos,left,49,0,49,j,1,3.1724967999998626,None,0,0,0,0,49,0,49,0,470.6506937000004,,,,,,,,,,,,470.6408145000005,470.6506937000004,470.6506937000004,470.6506937000004,471.5526854,473.8357914999997,j,1,3.1724967999998626,None,direct,15,"[14, 15, 13, 15, 13, 15, 13, 15, 14, 15, 14]",11,shifteddirectgaze.png,j,1,1,pilot3,001,2026-04-02_16h01.05.375,mogelijke versie adaptive staircase builder,,2026.1.3,59.87310494138225,2026-04-02 16h01.05.485108 +0200,
29.1,ecc10pos,left,0,0,0,,,,,0,0,0,0,,,,,,,,,,,,,,,,,,,,,,,,,,,,,,,,,,,pilot3,001,2026-04-02_16h01.05.375,mogelijke versie adaptive staircase builder,,2026.1.3,59.87310494138225,2026-04-02 16h01.05.485108 +0200,
17.5,ecc0,mid,0,0,0,j,0,2.5162482000005184,None,0,1,1,1,0,0,0,0,473.9469028000003,,,,,,,,,,473.8381983999998,473.8382346999997,473.9360260000003,473.9469028000003,474.85242689999995,473.9469028000003,473.9469028000003,476.4690413999997,j,0,2.5162482000005184,None,left,15,[],0,gaze_L_15.png,j,0,2,pilot3,001,2026-04-02_16h01.05.375,mogelijke versie adaptive staircase builder,,2026.1.3,59.87310494138225,2026-04-02 16h01.05.485108 +0200,
17.5,ecc0,mid,1,0,1,j,1,3.560946800000238,None,0,1,1,1,1,0,1,0,476.57457179999983,,,,,,,,,,,,476.5639578,476.57457179999983,477.4686741000005,476.57457179999983,476.57457179999983,480.1524491,j,1,3.560946800000238,None,direct,15,[15],1,direct_gaze.png,j,1,2,pilot3,001,2026-04-02_16h01.05.375,mogelijke versie adaptive staircase builder,,2026.1.3,59.87310494138225,2026-04-02 16h01.05.485108 +0200,
17.5,ecc0,mid,2,0,2,f,0,2.979954400000679,None,0,1,1,1,2,0,2,0,480.2512594,,,,,,,,,,,,480.24069340000005,480.2512594,481.1519879999996,480.2512594,480.2512594,483.23583190000045,f,0,2.979954400000679,None,direct,14,"[15, 14]",2,direct_gaze.png,f,0,2,pilot3,001,2026-04-02_16h01.05.375,mogelijke versie adaptive staircase builder,,2026.1.3,59.87310494138225,2026-04-02 16h01.05.485108 +0200,
17.5,ecc0,mid,3,0,3,f,1,4.360341100000369,None,0,1,1,1,3,0,3,0,483.3347786000004,,,,,,,,,,,,483.3240115999997,483.3347786000004,484.2356050999997,483.3347786000004,483.3347786000004,487.7023202999999,f,1,4.360341100000369,None,left,15,"[15, 14]",2,gaze_L_15.png,f,1,2,pilot3,001,2026-04-02_16h01.05.375,mogelijke versie adaptive staircase builder,,2026.1.3,59.87310494138225,2026-04-02 16h01.05.485108 +0200,
17.5,ecc0,mid,4,0,4,f,0,2.7021361000006436,None,0,1,1,1,4,0,4,0,487.80109640000046,,,,,,,,,,,,487.79042759999993,487.80109640000046,488.7020683999999,487.80109640000046,487.80109640000046,490.51896880000004,f,0,2.7021361000006436,None,direct,15,"[15, 14]",2,direct_gaze.png,f,0,2,pilot3,001,2026-04-02_16h01.05.375,mogelijke versie adaptive staircase builder,,2026.1.3,59.87310494138225,2026-04-02 16h01.05.485108 +0200,
17.5,ecc0,mid,5,0,5,j,0,2.4383349999998245,None,0,1,1,1,5,0,5,0,490.62479059999987,,,,,,,,,,,,490.6136348,490.62479059999987,491.51891739999974,490.62479059999987,490.62479059999987,493.0689904999999,j,0,2.4383349999998245,None,right,15,"[15, 14]",2,gaze_R_15.png,j,0,2,pilot3,001,2026-04-02_16h01.05.375,mogelijke versie adaptive staircase builder,,2026.1.3,59.87310494138225,2026-04-02 16h01.05.485108 +0200,
17.5,ecc0,mid,6,0,6,f,1,3.4395404999995662,None,0,1,1,1,6,0,6,0,493.16757640000014,,,,,,,,,,,,493.1564239999998,493.16757640000014,494.0685252000003,493.16757640000014,493.16757640000014,496.61875299999974,f,1,3.4395404999995662,None,left,15,"[15, 14]",2,gaze_L_15.png,f,1,2,pilot3,001,2026-04-02_16h01.05.375,mogelijke versie adaptive staircase builder,,2026.1.3,59.87310494138225,2026-04-02 16h01.05.485108 +0200,
17.5,ecc0,mid,7,0,7,j,0,4.5541218999997,None,0,1,1,1,7,0,7,0,496.71691199999987,,,,,,,,,,,,496.7068121000002,496.71691199999987,497.61843940000017,496.71691199999987,496.71691199999987,501.2854956000001,j,0,4.5541218999997,None,left,15,"[15, 14]",2,gaze_L_15.png,j,0,2,pilot3,001,2026-04-02_16h01.05.375,mogelijke versie adaptive staircase builder,,2026.1.3,59.87310494138225,2026-04-02 16h01.05.485108 +0200,
17.5,ecc0,mid,8,0,8,j,0,2.456053700000666,None,0,1,1,1,8,0,8,0,501.3911582999999,,,,,,,,,,,,501.3796398000004,501.3911582999999,502.2851235999997,501.3911582999999,501.3911582999999,503.8523402999999,j,0,2.456053700000666,None,left,15,"[15, 14]",2,gaze_L_15.png,j,0,2,pilot3,001,2026-04-02_16h01.05.375,mogelijke versie adaptive staircase builder,,2026.1.3,59.87310494138225,2026-04-02 16h01.05.485108 +0200,
17.5,ecc0,mid,9,0,9,f,0,4.903544400000101,None,0,1,1,1,9,0,9,0,503.9515185999999,,,,,,,,,,,,503.9412892,503.9515185999999,504.8517627000001,503.9515185999999,503.9515185999999,508.8691312000001,f,0,4.903544400000101,None,direct,15,"[15, 14]",2,direct_gaze.png,f,0,2,pilot3,001,2026-04-02_16h01.05.375,mogelijke versie adaptive staircase builder,,2026.1.3,59.87310494138225,2026-04-02 16h01.05.485108 +0200,
17.5,ecc0,mid,10,0,10,j,0,3.431681600000047,None,0,1,1,1,10,0,10,0,508.96746299999995,,,,,,,,,,,,508.9573038999997,508.96746299999995,509.8850136000001,508.96746299999995,508.96746299999995,512.4018010999998,j,0,3.431681600000047,None,right,15,"[15, 14]",2,gaze_R_15.png,j,0,2,pilot3,001,2026-04-02_16h01.05.375,mogelijke versie adaptive staircase builder,,2026.1.3,59.87310494138225,2026-04-02 16h01.05.485108 +0200,
17.5,ecc0,mid,11,0,11,f,1,4.186936900000546,None,0,1,1,1,11,0,11,0,512.5003097999997,,,,,,,,,,,,512.4895329000001,512.5003097999997,513.4016578000001,512.5003097999997,512.5003097999997,516.7017768000005,f,1,4.186936900000546,None,right,15,"[15, 14]",2,gaze_R_15.png,f,1,2,pilot3,001,2026-04-02_16h01.05.375,mogelijke versie adaptive staircase builder,,2026.1.3,59.87310494138225,2026-04-02 16h01.05.485108 +0200,
17.5,ecc0,mid,12,0,12,f,1,4.007293799999388,None,0,1,1,1,12,0,12,0,516.7998012999997,,,,,,,,,,,,516.7897064999997,516.7998012999997,517.7017333000003,516.7998012999997,516.7998012999997,520.8182990000005,f,1,4.007293799999388,None,left,15,"[15, 14, 15]",3,gaze_L_15.png,f,1,2,pilot3,001,2026-04-02_16h01.05.375,mogelijke versie adaptive staircase builder,,2026.1.3,59.87310494138225,2026-04-02 16h01.05.485108 +0200,
17.5,ecc0,mid,13,0,13,j,0,4.730159700000513,None,0,1,1,1,13,0,13,0,520.9249307999999,,,,,,,,,,,,520.9146240999999,520.9249307999999,521.8181280999997,520.9249307999999,520.9249307999999,525.6683910000002,j,0,4.730159700000513,None,left,14,"[15, 14, 15, 14]",4,gaze_L_14.png,j,0,2,pilot3,001,2026-04-02_16h01.05.375,mogelijke versie adaptive staircase builder,,2026.1.3,59.87310494138225,2026-04-02 16h01.05.485108 +0200,
17.5,ecc0,mid,14,0,14,f,0,5.437643600000229,None,0,1,1,1,14,0,14,0,525.7695479000004,,,,,,,,,,,,525.7580571999997,525.7695479000004,526.6682908000002,525.7695479000004,525.7695479000004,531.2184700999996,f,0,5.437643600000229,None,direct,15,"[15, 14, 15, 14]",4,direct_gaze.png,f,0,2,pilot3,001,2026-04-02_16h01.05.375,mogelijke versie adaptive staircase builder,,2026.1.3,59.87310494138225,2026-04-02 16h01.05.485108 +0200,
17.5,ecc0,mid,15,0,15,j,0,5.682067299999289,None,0,1,1,1,15,0,15,0,531.3170092999999,,,,,,,,,,,,531.3068091000005,531.3170092999999,532.2183913999997,531.3170092999999,531.3170092999999,537.0020704999997,j,0,5.682067299999289,None,left,15,"[15, 14, 15, 14]",4,gaze_L_15.png,j,0,2,pilot3,001,2026-04-02_16h01.05.375,mogelijke versie adaptive staircase builder,,2026.1.3,59.87310494138225,2026-04-02 16h01.05.485108 +0200,
17.5,ecc0,mid,16,0,16,j,1,2.142063899999812,None,0,1,1,1,16,0,16,0,537.1131154000004,,,,,,,,,,,,537.1016121000002,537.1131154000004,538.0016026000003,537.1131154000004,537.1131154000004,539.2686012000004,j,1,2.142063899999812,None,direct,15,"[15, 14, 15, 14]",4,direct_gaze.png,j,1,2,pilot3,001,2026-04-02_16h01.05.375,mogelijke versie adaptive staircase builder,,2026.1.3,59.87310494138225,2026-04-02 16h01.05.485108 +0200,
17.5,ecc0,mid,17,0,17,j,1,2.9223244000004343,None,0,1,1,1,17,0,17,0,539.3807708000004,,,,,,,,,,,,539.3706327999998,539.3807708000004,540.2849911000003,539.3807708000004,539.3807708000004,542.3184458000005,j,1,2.9223244000004343,None,direct,15,"[15, 14, 15, 14, 15]",5,direct_gaze.png,j,1,2,pilot3,001,2026-04-02_16h01.05.375,mogelijke versie adaptive staircase builder,,2026.1.3,59.87310494138225,2026-04-02 16h01.05.485108 +0200,
17.5,ecc0,mid,18,0,18,f,1,2.4704867999998896,None,0,1,1,1,18,0,18,0,542.4247127999997,,,,,,,,,,,,542.4142819999997,542.4247127999997,543.3182023999998,542.4247127999997,542.4247127999997,544.9017331000005,f,1,2.4704867999998896,None,right,14,"[15, 14, 15, 14, 15]",5,gaze_R_14.png,f,1,2,pilot3,001,2026-04-02_16h01.05.375,mogelijke versie adaptive staircase builder,,2026.1.3,59.87310494138225,2026-04-02 16h01.05.485108 +0200,
17.5,ecc0,mid,19,0,19,f,0,5.414023900000757,None,0,1,1,1,19,0,19,0,545.0011755000005,,,,,,,,,,,,544.9901081999997,545.0011755000005,545.9010826000003,545.0011755000005,545.0011755000005,550.4184387000005,f,0,5.414023900000757,None,direct,14,"[15, 14, 15, 14, 15, 14]",6,direct_gaze.png,f,0,2,pilot3,001,2026-04-02_16h01.05.375,mogelijke versie adaptive staircase builder,,2026.1.3,59.87310494138225,2026-04-02 16h01.05.485108 +0200,
17.5,ecc0,mid,20,0,20,f,1,3.857906600000206,None,0,1,1,1,20,0,20,0,550.5171769999997,,,,,,,,,,,,550.5066271000005,550.5171769999997,551.4177342000003,550.5171769999997,550.5171769999997,554.3846062000002,f,1,3.857906600000206,None,right,15,"[15, 14, 15, 14, 15, 14]",6,gaze_R_15.png,f,1,2,pilot3,001,2026-04-02_16h01.05.375,mogelijke versie adaptive staircase builder,,2026.1.3,59.87310494138225,2026-04-02 16h01.05.485108 +0200,
17.5,ecc0,mid,21,0,21,f,0,5.619324299999789,None,0,1,1,1,21,0,21,0,554.4838743,,,,,,,,,,,,554.4731707000001,554.4838743,555.3842887999999,554.4838743,554.4838743,560.1182261000004,f,0,5.619324299999789,None,direct,15,"[15, 14, 15, 14, 15, 14]",6,direct_gaze.png,f,0,2,pilot3,001,2026-04-02_16h01.05.375,mogelijke versie adaptive staircase builder,,2026.1.3,59.87310494138225,2026-04-02 16h01.05.485108 +0200,
17.5,ecc0,mid,22,0,22,f,1,6.763299399999596,None,0,1,1,1,22,0,22,0,560.2198492999996,,,,,,,,,,,,560.2091185999998,560.2198492999996,561.1178172,560.2198492999996,560.2198492999996,566.9843637000004,f,1,6.763299399999596,None,right,15,"[15, 14, 15, 14, 15, 14]",6,gaze_R_15.png,f,1,2,pilot3,001,2026-04-02_16h01.05.375,mogelijke versie adaptive staircase builder,,2026.1.3,59.87310494138225,2026-04-02 16h01.05.485108 +0200,
17.5,ecc0,mid,23,0,23,j,1,2.586941499999739,None,0,1,1,1,23,0,23,0,567.0842906999997,,,,,,,,,,,,567.0735905000001,567.0842906999997,567.9842520000002,567.0842906999997,567.0842906999997,569.6846344000005,j,1,2.586941499999739,None,direct,15,"[15, 14, 15, 14, 15, 14, 15]",7,direct_gaze.png,j,1,2,pilot3,001,2026-04-02_16h01.05.375,mogelijke versie adaptive staircase builder,,2026.1.3,59.87310494138225,2026-04-02 16h01.05.485108 +0200,
17.5,ecc0,mid,24,0,24,j,0,3.5116877999998906,None,0,1,1,1,24,0,24,0,569.7833945000002,,,,,,,,,,,,569.7729529999997,569.7833945000002,570.6844180999997,569.7833945000002,569.7833945000002,573.3009751,j,0,3.5116877999998906,None,right,14,"[15, 14, 15, 14, 15, 14, 15, 14]",8,gaze_R_14.png,j,0,2,pilot3,001,2026-04-02_16h01.05.375,mogelijke versie adaptive staircase builder,,2026.1.3,59.87310494138225,2026-04-02 16h01.05.485108 +0200,
17.5,ecc0,mid,25,0,25,f,1,2.2798173000001043,None,0,1,1,1,25,0,25,0,573.4074312000002,,,,,,,,,,,,573.3963876999997,573.4074312000002,574.3007403000001,573.4074312000002,573.4074312000002,575.7011131999998,f,1,2.2798173000001043,None,right,15,"[15, 14, 15, 14, 15, 14, 15, 14]",8,gaze_R_15.png,f,1,2,pilot3,001,2026-04-02_16h01.05.375,mogelijke versie adaptive staircase builder,,2026.1.3,59.87310494138225,2026-04-02 16h01.05.485108 +0200,
17.5,ecc0,mid,26,0,26,f,1,5.76684479999949,None,0,1,1,1,26,0,26,0,575.8003783000004,,,,,,,,,,,,575.7898745000002,575.8003783000004,576.7009131000004,575.8003783000004,575.8003783000004,581.5676286999997,f,1,5.76684479999949,None,right,15,"[15, 14, 15, 14, 15, 14, 15, 14, 15]",9,gaze_R_15.png,f,1,2,pilot3,001,2026-04-02_16h01.05.375,mogelijke versie adaptive staircase builder,,2026.1.3,59.87310494138225,2026-04-02 16h01.05.485108 +0200,
17.5,ecc0,mid,27,0,27,j,0,3.524643400000059,None,0,1,1,1,27,0,27,0,581.6664265999998,,,,,,,,,,,,581.6557272999999,581.6664265999998,582.5674053000002,581.6664265999998,581.6664265999998,585.2010473,j,0,3.524643400000059,None,right,14,"[15, 14, 15, 14, 15, 14, 15, 14, 15, 14]",10,gaze_R_14.png,j,0,2,pilot3,001,2026-04-02_16h01.05.375,mogelijke versie adaptive staircase builder,,2026.1.3,59.87310494138225,2026-04-02 16h01.05.485108 +0200,
17.5,ecc0,mid,28,0,28,j,1,5.050986799999919,None,0,1,1,1,28,0,28,0,585.3000708,,,,,,,,,,,,585.2895116,585.3000708,586.2008136000004,585.3000708,585.3000708,590.3673421000003,j,1,5.050986799999919,None,direct,15,"[15, 14, 15, 14, 15, 14, 15, 14, 15, 14]",10,direct_gaze.png,j,1,2,pilot3,001,2026-04-02_16h01.05.375,mogelijke versie adaptive staircase builder,,2026.1.3,59.87310494138225,2026-04-02 16h01.05.485108 +0200,
17.5,ecc0,mid,29,0,29,f,1,3.4838347000004433,None,0,1,1,1,29,0,29,0,590.4672130999998,,,,,,,,,,,,590.4564338,590.4672130999998,591.3671866000004,590.4672130999998,590.4672130999998,593.9673368000003,f,1,3.4838347000004433,None,right,15,"[15, 14, 15, 14, 15, 14, 15, 14, 15, 14, 15]",11,gaze_R_15.png,f,1,2,pilot3,001,2026-04-02_16h01.05.375,mogelijke versie adaptive staircase builder,,2026.1.3,59.87310494138225,2026-04-02 16h01.05.485108 +0200,
17.5,ecc0,mid,30,0,30,j,0,2.665069799999401,None,0,1,1,1,30,0,30,0,594.0702877000003,,,,,,,,,,,,594.0576038999998,594.0702877000003,594.9671476000003,594.0702877000003,594.0702877000003,596.7509024000001,j,0,2.665069799999401,None,right,14,"[15, 14, 15, 14, 15, 14, 15, 14, 15, 14, 15, 14]",12,gaze_R_14.png,j,0,2,pilot3,001,2026-04-02_16h01.05.375,mogelijke versie adaptive staircase builder,,2026.1.3,59.87310494138225,2026-04-02 16h01.05.485108 +0200,
17.5,ecc0,mid,31,0,31,j,0,2.421722499999305,None,0,1,1,1,31,0,31,0,596.8492944999998,,,,,,,,,,,,596.8380661000001,596.8492944999998,597.7503809,596.8492944999998,596.8492944999998,599.2839120999997,j,0,2.421722499999305,None,left,15,"[15, 14, 15, 14, 15, 14, 15, 14, 15, 14, 15, 14]",12,gaze_L_15.png,j,0,2,pilot3,001,2026-04-02_16h01.05.375,mogelijke versie adaptive staircase builder,,2026.1.3,59.87310494138225,2026-04-02 16h01.05.485108 +0200,
17.5,ecc0,mid,32,0,32,f,0,2.864015900000595,None,0,1,1,1,32,0,32,0,599.3830513000003,,,,,,,,,,,,599.3721430000005,599.3830513000003,600.2837164000002,599.3830513000003,599.3830513000003,602.2505842999999,f,0,2.864015900000595,None,direct,15,"[15, 14, 15, 14, 15, 14, 15, 14, 15, 14, 15, 14]",12,direct_gaze.png,f,0,2,pilot3,001,2026-04-02_16h01.05.375,mogelijke versie adaptive staircase builder,,2026.1.3,59.87310494138225,2026-04-02 16h01.05.485108 +0200,
17.5,ecc0,mid,33,0,33,j,0,4.0738840999993045,None,0,1,1,1,33,0,33,0,602.3501546999996,,,,,,,,,,,,602.3395203,602.3501546999996,603.2504028000003,602.3501546999996,602.3501546999996,606.4340847000003,j,0,4.0738840999993045,None,left,15,"[15, 14, 15, 14, 15, 14, 15, 14, 15, 14, 15, 14]",12,gaze_L_15.png,j,0,2,pilot3,001,2026-04-02_16h01.05.375,mogelijke versie adaptive staircase builder,,2026.1.3,59.87310494138225,2026-04-02 16h01.05.485108 +0200,
17.5,ecc0,mid,34,0,34,f,1,2.186080899999979,None,0,1,1,1,34,0,34,0,606.5330524000001,,,,,,,,,,,,606.5224452000002,606.5330524000001,607.4338788000005,606.5330524000001,606.5330524000001,608.7340243999997,f,1,2.186080899999979,None,right,15,"[15, 14, 15, 14, 15, 14, 15, 14, 15, 14, 15, 14]",12,gaze_R_15.png,f,1,2,pilot3,001,2026-04-02_16h01.05.375,mogelijke versie adaptive staircase builder,,2026.1.3,59.87310494138225,2026-04-02 16h01.05.485108 +0200,
17.5,ecc0,mid,35,0,35,f,1,3.9493244999994204,None,0,1,1,1,35,0,35,0,608.8338234000003,,,,,,,,,,,,608.8225503000003,608.8338234000003,609.7338454999999,608.8338234000003,608.8338234000003,612.7841981000001,f,1,3.9493244999994204,None,left,15,"[15, 14, 15, 14, 15, 14, 15, 14, 15, 14, 15, 14, 15]",13,gaze_L_15.png,f,1,2,pilot3,001,2026-04-02_16h01.05.375,mogelijke versie adaptive staircase builder,,2026.1.3,59.87310494138225,2026-04-02 16h01.05.485108 +0200,
17.5,ecc0,mid,36,0,36,f,0,2.5983360999998695,None,0,1,1,1,36,0,36,0,612.8967764999998,,,,,,,,,,,,612.8840917999996,612.8967764999998,613.7842933000002,612.8967764999998,612.8967764999998,615.5005235999997,f,0,2.5983360999998695,None,direct,14,"[15, 14, 15, 14, 15, 14, 15, 14, 15, 14, 15, 14, 15, 14]",14,direct_gaze.png,f,0,2,pilot3,001,2026-04-02_16h01.05.375,mogelijke versie adaptive staircase builder,,2026.1.3,59.87310494138225,2026-04-02 16h01.05.485108 +0200,
17.5,ecc0,mid,37,0,37,j,0,2.255824200000461,None,0,1,1,1,37,0,37,0,615.5993356999998,,,,,,,,,,,,615.5893832000002,615.5993356999998,616.5002442000005,615.5993356999998,615.5993356999998,617.8670957000004,j,0,2.255824200000461,None,right,15,"[15, 14, 15, 14, 15, 14, 15, 14, 15, 14, 15, 14, 15, 14]",14,gaze_R_15.png,j,0,2,pilot3,001,2026-04-02_16h01.05.375,mogelijke versie adaptive staircase builder,,2026.1.3,59.87310494138225,2026-04-02 16h01.05.485108 +0200,
17.5,ecc0,mid,38,0,38,j,0,2.6168275999998514,None,0,1,1,1,38,0,38,0,617.9662841999998,,,,,,,,,,,,617.9547050000001,617.9662841999998,618.8668496,617.9662841999998,617.9662841999998,620.5837323000005,j,0,2.6168275999998514,None,left,15,"[15, 14, 15, 14, 15, 14, 15, 14, 15, 14, 15, 14, 15, 14]",14,gaze_L_15.png,j,0,2,pilot3,001,2026-04-02_16h01.05.375,mogelijke versie adaptive staircase builder,,2026.1.3,59.87310494138225,2026-04-02 16h01.05.485108 +0200,
17.5,ecc0,mid,39,0,39,f,0,2.3003262000001996,None,0,1,1,1,39,0,39,0,620.6829427000002,,,,,,,,,,,,620.6717466,620.6829427000002,621.5836565,620.6829427000002,620.6829427000002,622.9835973999998,f,0,2.3003262000001996,None,direct,15,"[15, 14, 15, 14, 15, 14, 15, 14, 15, 14, 15, 14, 15, 14]",14,direct_gaze.png,f,0,2,pilot3,001,2026-04-02_16h01.05.375,mogelijke versie adaptive staircase builder,,2026.1.3,59.87310494138225,2026-04-02 16h01.05.485108 +0200,
17.5,ecc0,mid,40,0,40,f,1,3.8434636000001774,None,0,1,1,1,40,0,40,0,623.0836967000005,,,,,,,,,,,,623.0731263999996,623.0836967000005,623.9833991000005,623.0836967000005,623.0836967000005,626.9338715000004,f,1,3.8434636000001774,None,right,15,"[15, 14, 15, 14, 15, 14, 15, 14, 15, 14, 15, 14, 15, 14]",14,gaze_R_15.png,f,1,2,pilot3,001,2026-04-02_16h01.05.375,mogelijke versie adaptive staircase builder,,2026.1.3,59.87310494138225,2026-04-02 16h01.05.485108 +0200,
17.5,ecc0,mid,41,0,41,j,1,2.303337299999839,None,0,1,1,1,41,0,41,0,627.0321735999996,,,,,,,,,,,,627.0213150999998,627.0321735999996,627.9334980000003,627.0321735999996,627.0321735999996,629.3504407999999,j,1,2.303337299999839,None,direct,15,"[15, 14, 15, 14, 15, 14, 15, 14, 15, 14, 15, 14, 15, 14, 15]",15,direct_gaze.png,j,1,2,pilot3,001,2026-04-02_16h01.05.375,mogelijke versie adaptive staircase builder,,2026.1.3,59.87310494138225,2026-04-02 16h01.05.485108 +0200,
17.5,ecc0,mid,42,0,42,j,0,2.261594500000683,None,0,1,1,1,42,0,42,0,629.4494561000001,,,,,,,,,,,,629.4393246999998,629.4494561000001,630.3500712000005,629.4494561000001,629.4494561000001,631.7168674000004,j,0,2.261594500000683,None,left,14,"[15, 14, 15, 14, 15, 14, 15, 14, 15, 14, 15, 14, 15, 14, 15, 14]",16,gaze_L_14.png,j,0,2,pilot3,001,2026-04-02_16h01.05.375,mogelijke versie adaptive staircase builder,,2026.1.3,59.87310494138225,2026-04-02 16h01.05.485108 +0200,
17.5,ecc0,mid,43,0,43,j,1,2.734352399999807,None,0,1,1,1,43,0,43,0,631.8167005000005,,,,,,,,,,,,631.8059345000001,631.8167005000005,632.7165980999998,631.8167005000005,631.8167005000005,634.5667783999997,j,1,2.734352399999807,None,direct,15,"[15, 14, 15, 14, 15, 14, 15, 14, 15, 14, 15, 14, 15, 14, 15, 14]",16,direct_gaze.png,j,1,2,pilot3,001,2026-04-02_16h01.05.375,mogelijke versie adaptive staircase builder,,2026.1.3,59.87310494138225,2026-04-02 16h01.05.485108 +0200,
17.5,ecc0,mid,44,0,44,f,1,2.7336596000004647,None,0,1,1,1,44,0,44,0,634.6653853999996,,,,,,,,,,,,634.6553621000003,634.6653853999996,635.5667103000005,634.6653853999996,634.6653853999996,637.4001473999997,f,1,2.7336596000004647,None,right,15,"[15, 14, 15, 14, 15, 14, 15, 14, 15, 14, 15, 14, 15, 14, 15, 14, 15]",17,gaze_R_15.png,f,1,2,pilot3,001,2026-04-02_16h01.05.375,mogelijke versie adaptive staircase builder,,2026.1.3,59.87310494138225,2026-04-02 16h01.05.485108 +0200,
17.5,ecc0,mid,45,0,45,f,1,5.2921949000001405,None,0,1,1,1,45,0,45,0,637.4989101000001,,,,,,,,,,,,637.4886280000001,637.4989101000001,638.3998898999998,637.4989101000001,637.4989101000001,642.8001156,f,1,5.2921949000001405,None,right,14,"[15, 14, 15, 14, 15, 14, 15, 14, 15, 14, 15, 14, 15, 14, 15, 14, 15]",17,gaze_R_14.png,f,1,2,pilot3,001,2026-04-02_16h01.05.375,mogelijke versie adaptive staircase builder,,2026.1.3,59.87310494138225,2026-04-02 16h01.05.485108 +0200,
17.5,ecc0,mid,46,0,46,f,1,3.3520172999997158,None,0,1,1,1,46,0,46,0,642.9031164999997,,,,,,,,,,,,642.8916933,642.9031164999997,643.8000000000002,642.9031164999997,642.9031164999997,646.2669197000005,f,1,3.3520172999997158,None,left,14,"[15, 14, 15, 14, 15, 14, 15, 14, 15, 14, 15, 14, 15, 14, 15, 14, 15]",17,gaze_L_14.png,f,1,2,pilot3,001,2026-04-02_16h01.05.375,mogelijke versie adaptive staircase builder,,2026.1.3,59.87310494138225,2026-04-02 16h01.05.485108 +0200,
17.5,ecc0,mid,47,0,47,j,0,3.2807788000000073,None,0,1,1,1,47,0,47,0,646.3744148000005,,,,,,,,,,,,646.3641402000003,646.3744148000005,647.2664633000004,646.3744148000005,646.3744148000005,649.6667963,j,0,3.2807788000000073,None,left,13,"[15, 14, 15, 14, 15, 14, 15, 14, 15, 14, 15, 14, 15, 14, 15, 14, 15, 13]",18,gaze_L_13.png,j,0,2,pilot3,001,2026-04-02_16h01.05.375,mogelijke versie adaptive staircase builder,,2026.1.3,59.87310494138225,2026-04-02 16h01.05.485108 +0200,
17.5,ecc0,mid,48,0,48,j,0,3.471070200000213,None,0,1,1,1,48,0,48,0,649.7601592999999,,,,,,,,,,,,649.7487080000001,649.7601592999999,650.6664591999997,649.7601592999999,649.7601592999999,653.2334552000002,j,0,3.471070200000213,None,left,14,"[15, 14, 15, 14, 15, 14, 15, 14, 15, 14, 15, 14, 15, 14, 15, 14, 15, 13]",18,gaze_L_14.png,j,0,2,pilot3,001,2026-04-02_16h01.05.375,mogelijke versie adaptive staircase builder,,2026.1.3,59.87310494138225,2026-04-02 16h01.05.485108 +0200,
17.5,ecc0,mid,49,0,49,j,1,3.913781899999776,None,0,1,1,1,49,0,49,0,653.3260817999999,,,,,,,,,,,,653.3149389,653.3260817999999,654.2330294000003,653.3260817999999,653.3260817999999,657.2500263000002,j,1,3.913781899999776,None,direct,15,"[15, 14, 15, 14, 15, 14, 15, 14, 15, 14, 15, 14, 15, 14, 15, 14, 15, 13]",18,direct_gaze.png,j,1,2,pilot3,001,2026-04-02_16h01.05.375,mogelijke versie adaptive staircase builder,,2026.1.3,59.87310494138225,2026-04-02 16h01.05.485108 +0200,
17.5,ecc0,mid,1,1,0,,,,,0,1,1,1,,,,,,,,,,,,,,,,,,,,,,,,,,,,,,,,,,,pilot3,001,2026-04-02_16h01.05.375,mogelijke versie adaptive staircase builder,,2026.1.3,59.87310494138225,2026-04-02 16h01.05.485108 +0200,
5.9,ecc10neg,right,0,0,0,f,1,5.487388100000317,None,0,2,2,2,0,0,0,0,657.3524218000002,,,,,,,,,,657.2526893000004,657.2527357999998,657.3410076,657.3524218000002,657.3524218000002,658.2664280999998,657.3524218000002,662.8500389999999,f,1,5.487388100000317,None,right,15,[],0,shiftedgaze_R_15.png,f,1,3,pilot3,001,2026-04-02_16h01.05.375,mogelijke versie adaptive staircase builder,,2026.1.3,59.87310494138225,2026-04-02 16h01.05.485108 +0200,
5.9,ecc10neg,right,1,0,1,f,1,3.8966317000003983,None,0,2,2,2,1,0,1,0,662.9507321000001,,,,,,,,,,,,662.9393891,662.9507321000001,662.9507321000001,663.8497176999999,662.9507321000001,666.8500773000005,f,1,3.8966317000003983,None,left,14,[],0,shiftedgaze_L_14.png,f,1,3,pilot3,001,2026-04-02_16h01.05.375,mogelijke versie adaptive staircase builder,,2026.1.3,59.87310494138225,2026-04-02 16h01.05.485108 +0200,
5.9,ecc10neg,right,2,0,2,f,1,2.689572799999951,None,0,2,2,2,2,0,2,0,666.9575737000005,,,,,,,,,,,,666.9455404,666.9575737000005,666.9575737000005,667.8498569000003,666.9575737000005,669.6497379000002,f,1,2.689572799999951,None,left,13,[],0,shiftedgaze_L_13.png,f,1,3,pilot3,001,2026-04-02_16h01.05.375,mogelijke versie adaptive staircase builder,,2026.1.3,59.87310494138225,2026-04-02 16h01.05.485108 +0200,
5.9,ecc10neg,right,3,0,3,j,0,3.9702691000002233,None,0,2,2,2,3,0,3,0,669.7653510999999,,,,,,,,,,,,669.7559596000001,669.7653510999999,669.7653510999999,670.6494567,669.7653510999999,673.7497266999999,j,0,3.9702691000002233,None,right,12,[12],1,shiftedgaze_R_12.png,j,0,3,pilot3,001,2026-04-02_16h01.05.375,mogelijke versie adaptive staircase builder,,2026.1.3,59.87310494138225,2026-04-02 16h01.05.485108 +0200,
5.9,ecc10neg,right,4,0,4,j,0,2.598399500000596,None,0,2,2,2,4,0,4,0,673.8575388999998,,,,,,,,,,,,673.8477190000003,673.8575388999998,673.8575388999998,674.7493543999999,673.8575388999998,676.4663363999998,j,0,2.598399500000596,None,left,13,[12],1,shiftedgaze_L_13.png,j,0,3,pilot3,001,2026-04-02_16h01.05.375,mogelijke versie adaptive staircase builder,,2026.1.3,59.87310494138225,2026-04-02 16h01.05.485108 +0200,
5.9,ecc10neg,right,5,0,5,f,1,2.199684100000013,None,0,2,2,2,5,0,5,0,676.5675512999996,,,,,,,,,,,,676.5567628999997,676.5675512999996,676.5675512999996,677.4662876000002,676.5675512999996,678.7830597000002,f,1,2.199684100000013,None,right,14,[12],1,shiftedgaze_R_14.png,f,1,3,pilot3,001,2026-04-02_16h01.05.375,mogelijke versie adaptive staircase builder,,2026.1.3,59.87310494138225,2026-04-02 16h01.05.485108 +0200,
5.9,ecc10neg,right,6,0,6,j,1,2.1467444999998406,None,0,2,2,2,6,0,6,0,678.8843460999997,,,,,,,,,,,,678.8733711000004,678.8843460999997,678.8843460999997,679.7827855000005,678.8843460999997,681.0330043000004,j,1,2.1467444999998406,None,direct,14,"[12, 14]",2,shifteddirectgaze.png,j,1,3,pilot3,001,2026-04-02_16h01.05.375,mogelijke versie adaptive staircase builder,,2026.1.3,59.87310494138225,2026-04-02 16h01.05.485108 +0200,
5.9,ecc10neg,right,7,0,7,j,0,2.355293100000381,None,0,2,2,2,7,0,7,0,681.1320226999997,,,,,,,,,,,,681.1218532000003,681.1320226999997,681.1320226999997,682.0325703999997,681.1320226999997,683.4996114000005,j,0,2.355293100000381,None,right,13,"[12, 14, 13]",3,shiftedgaze_R_13.png,j,0,3,pilot3,001,2026-04-02_16h01.05.375,mogelijke versie adaptive staircase builder,,2026.1.3,59.87310494138225,2026-04-02 16h01.05.485108 +0200,
5.9,ecc10neg,right,8,0,8,f,1,2.3895258000002286,None,0,2,2,2,8,0,8,0,683.5935884999999,,,,,,,,,,,,683.5825633000004,683.5935884999999,683.5935884999999,684.4991798000001,683.5935884999999,685.9994187000002,f,1,2.3895258000002286,None,left,14,"[12, 14, 13]",3,shiftedgaze_L_14.png,f,1,3,pilot3,001,2026-04-02_16h01.05.375,mogelijke versie adaptive staircase builder,,2026.1.3,59.87310494138225,2026-04-02 16h01.05.485108 +0200,
5.9,ecc10neg,right,9,0,9,f,1,2.208361699999841,None,0,2,2,2,9,0,9,0,686.0947982999996,,,,,,,,,,,,686.0838426999999,686.0947982999996,686.0947982999996,686.9991810000001,686.0947982999996,688.3160725999996,f,1,2.208361699999841,None,right,14,"[12, 14, 13, 14]",4,shiftedgaze_R_14.png,f,1,3,pilot3,001,2026-04-02_16h01.05.375,mogelijke versie adaptive staircase builder,,2026.1.3,59.87310494138225,2026-04-02 16h01.05.485108 +0200,
5.9,ecc10neg,right,10,0,10,f,1,2.5647479999997813,None,0,2,2,2,10,0,10,0,688.4103243,,,,,,,,,,,,688.3997766000002,688.4103243,688.4103243,689.3157909000001,688.4103243,690.9826665999999,f,1,2.5647479999997813,None,right,13,"[12, 14, 13, 14]",4,shiftedgaze_R_13.png,f,1,3,pilot3,001,2026-04-02_16h01.05.375,mogelijke versie adaptive staircase builder,,2026.1.3,59.87310494138225,2026-04-02 16h01.05.485108 +0200,
5.9,ecc10neg,right,11,0,11,j,1,6.034279499999684,None,0,2,2,2,11,0,11,0,691.0768027000004,,,,,,,,,,,,691.0658297,691.0768027000004,691.0768027000004,691.9824392,691.0768027000004,697.1161462999999,j,1,6.034279499999684,None,direct,13,"[12, 14, 13, 14]",4,shifteddirectgaze.png,j,1,3,pilot3,001,2026-04-02_16h01.05.375,mogelijke versie adaptive staircase builder,,2026.1.3,59.87310494138225,2026-04-02 16h01.05.485108 +0200,
5.9,ecc10neg,right,12,0,12,j,0,2.4106222999998863,None,0,2,2,2,12,0,12,0,697.2204493999998,,,,,,,,,,,,697.2096849,697.2204493999998,697.2204493999998,698.1159545999999,697.2204493999998,699.6325567000004,j,0,2.4106222999998863,None,left,12,"[12, 14, 13, 14, 12]",5,shiftedgaze_L_12.png,j,0,3,pilot3,001,2026-04-02_16h01.05.375,mogelijke versie adaptive staircase builder,,2026.1.3,59.87310494138225,2026-04-02 16h01.05.485108 +0200,
5.9,ecc10neg,right,13,0,13,f,0,3.104353799999444,None,0,2,2,2,13,0,13,0,699.7267067000002,,,,,,,,,,,,699.7156858999997,699.7267067000002,699.7267067000002,700.6327481999997,699.7267067000002,702.8326208999997,f,0,3.104353799999444,None,direct,13,"[12, 14, 13, 14, 12]",5,shifteddirectgaze.png,f,0,3,pilot3,001,2026-04-02_16h01.05.375,mogelijke versie adaptive staircase builder,,2026.1.3,59.87310494138225,2026-04-02 16h01.05.485108 +0200,
5.9,ecc10neg,right,14,0,14,f,1,3.296354600000086,None,0,2,2,2,14,0,14,0,702.9267257000001,,,,,,,,,,,,702.9148975999997,702.9267257000001,702.9267257000001,703.8323095000005,702.9267257000001,706.2325781999998,f,1,3.296354600000086,None,left,14,"[12, 14, 13, 14, 12]",5,shiftedgaze_L_14.png,f,1,3,pilot3,001,2026-04-02_16h01.05.375,mogelijke versie adaptive staircase builder,,2026.1.3,59.87310494138225,2026-04-02 16h01.05.485108 +0200,
5.9,ecc10neg,right,15,0,15,f,1,2.4326343000002453,None,0,2,2,2,15,0,15,0,706.3264461999997,,,,,,,,,,,,706.3155985000003,706.3264461999997,706.3264461999997,707.2322678999999,706.3264461999997,708.7658027999996,f,1,2.4326343000002453,None,right,14,"[12, 14, 13, 14, 12, 14]",6,shiftedgaze_R_14.png,f,1,3,pilot3,001,2026-04-02_16h01.05.375,mogelijke versie adaptive staircase builder,,2026.1.3,59.87310494138225,2026-04-02 16h01.05.485108 +0200,
5.9,ecc10neg,right,16,0,16,f,0,2.923558000000412,None,0,2,2,2,16,0,16,0,708.8594843000001,,,,,,,,,,,,708.8480645999998,708.8594843000001,708.8594843000001,709.7655707000004,708.8594843000001,711.7990937000004,f,0,2.923558000000412,None,direct,13,"[12, 14, 13, 14, 12, 14, 13]",7,shifteddirectgaze.png,f,0,3,pilot3,001,2026-04-02_16h01.05.375,mogelijke versie adaptive staircase builder,,2026.1.3,59.87310494138225,2026-04-02 16h01.05.485108 +0200,
5.9,ecc10neg,right,17,0,17,f,1,3.1135802999997395,None,0,2,2,2,17,0,17,0,711.8935426999997,,,,,,,,,,,,711.8827726999998,711.8935426999997,711.8935426999997,712.7990078000003,711.8935426999997,715.0157012,f,1,3.1135802999997395,None,left,14,"[12, 14, 13, 14, 12, 14, 13]",7,shiftedgaze_L_14.png,f,1,3,pilot3,001,2026-04-02_16h01.05.375,mogelijke versie adaptive staircase builder,,2026.1.3,59.87310494138225,2026-04-02 16h01.05.485108 +0200,
5.9,ecc10neg,right,18,0,18,j,0,2.6353733000005377,None,0,2,2,2,18,0,18,0,715.1077562999999,,,,,,,,,,,,715.0969329,715.1077562999999,715.1077562999999,716.0156729,715.1077562999999,717.7490233999997,j,0,2.6353733000005377,None,left,14,"[12, 14, 13, 14, 12, 14, 13]",7,shiftedgaze_L_14.png,j,0,3,pilot3,001,2026-04-02_16h01.05.375,mogelijke versie adaptive staircase builder,,2026.1.3,59.87310494138225,2026-04-02 16h01.05.485108 +0200,
5.9,ecc10neg,right,19,0,19,j,1,2.732137799999691,None,0,2,2,2,19,0,19,0,717.8430030999998,,,,,,,,,,,,717.8316722,717.8430030999998,717.8430030999998,718.7487641999996,717.8430030999998,720.5822041000001,j,1,2.732137799999691,None,direct,15,"[12, 14, 13, 14, 12, 14, 13]",7,shifteddirectgaze.png,j,1,3,pilot3,001,2026-04-02_16h01.05.375,mogelijke versie adaptive staircase builder,,2026.1.3,59.87310494138225,2026-04-02 16h01.05.485108 +0200,
5.9,ecc10neg,right,20,0,20,j,0,2.3339359999999942,None,0,2,2,2,20,0,20,0,720.6812118999997,,,,,,,,,,,,720.6706385999996,720.6812118999997,720.6812118999997,721.5820211999999,720.6812118999997,723.0155267,j,0,2.3339359999999942,None,left,15,"[12, 14, 13, 14, 12, 14, 13]",7,shiftedgaze_L_15.png,j,0,3,pilot3,001,2026-04-02_16h01.05.375,mogelijke versie adaptive staircase builder,,2026.1.3,59.87310494138225,2026-04-02 16h01.05.485108 +0200,
5.9,ecc10neg,right,21,0,21,f,1,2.2814441999998962,None,0,2,2,2,21,0,21,0,723.1097226000002,,,,,,,,,,,,723.0984944000002,723.1097226000002,723.1097226000002,724.0153482000005,723.1097226000002,725.3989561999997,f,1,2.2814441999998962,None,right,15,"[12, 14, 13, 14, 12, 14, 13]",7,shiftedgaze_R_15.png,f,1,3,pilot3,001,2026-04-02_16h01.05.375,mogelijke versie adaptive staircase builder,,2026.1.3,59.87310494138225,2026-04-02 16h01.05.485108 +0200,
5.9,ecc10neg,right,22,0,22,f,1,4.322074300000168,None,0,2,2,2,22,0,22,0,725.4931558999997,,,,,,,,,,,,725.4808835000003,725.4931558999997,725.4931558999997,726.3986138,725.4931558999997,729.815818,f,1,4.322074300000168,None,left,15,"[12, 14, 13, 14, 12, 14, 13, 15]",8,shiftedgaze_L_15.png,f,1,3,pilot3,001,2026-04-02_16h01.05.375,mogelijke versie adaptive staircase builder,,2026.1.3,59.87310494138225,2026-04-02 16h01.05.485108 +0200,
5.9,ecc10neg,right,23,0,23,f,1,2.346491199999946,None,0,2,2,2,23,0,23,0,729.9164935999997,,,,,,,,,,,,729.9052812,729.9164935999997,729.9164935999997,730.8153167999999,729.9164935999997,732.2655797999996,f,1,2.346491199999946,None,right,14,"[12, 14, 13, 14, 12, 14, 13, 15]",8,shiftedgaze_R_14.png,f,1,3,pilot3,001,2026-04-02_16h01.05.375,mogelijke versie adaptive staircase builder,,2026.1.3,59.87310494138225,2026-04-02 16h01.05.485108 +0200,
5.9,ecc10neg,right,24,0,24,f,1,3.6714749000002485,None,0,2,2,2,24,0,24,0,732.3596671000005,,,,,,,,,,,,732.3484507000003,732.3596671000005,732.3596671000005,733.2653949000005,732.3596671000005,736.0322173000004,f,1,3.6714749000002485,None,right,14,"[12, 14, 13, 14, 12, 14, 13, 15]",8,shiftedgaze_R_14.png,f,1,3,pilot3,001,2026-04-02_16h01.05.375,mogelijke versie adaptive staircase builder,,2026.1.3,59.87310494138225,2026-04-02 16h01.05.485108 +0200,
5.9,ecc10neg,right,25,0,25,f,1,3.6518801000001986,None,0,2,2,2,25,0,25,0,736.1312186000005,,,,,,,,,,,,736.1201518999997,736.1312186000005,736.1312186000005,737.0318864999999,736.1312186000005,739.7986995000001,f,1,3.6518801000001986,None,right,13,"[12, 14, 13, 14, 12, 14, 13, 15]",8,shiftedgaze_R_13.png,f,1,3,pilot3,001,2026-04-02_16h01.05.375,mogelijke versie adaptive staircase builder,,2026.1.3,59.87310494138225,2026-04-02 16h01.05.485108 +0200,
5.9,ecc10neg,right,26,0,26,f,0,4.1819523000003755,None,0,2,2,2,26,0,26,0,739.8902930000004,,,,,,,,,,,,739.8798821,739.8902930000004,739.8902930000004,740.7984285000002,739.8902930000004,744.0820268999996,f,0,4.1819523000003755,None,direct,13,"[12, 14, 13, 14, 12, 14, 13, 15, 13]",9,shifteddirectgaze.png,f,0,3,pilot3,001,2026-04-02_16h01.05.375,mogelijke versie adaptive staircase builder,,2026.1.3,59.87310494138225,2026-04-02 16h01.05.485108 +0200,
5.9,ecc10neg,right,27,0,27,f,1,5.2886125999993965,None,0,2,2,2,27,0,27,0,744.1745366000005,,,,,,,,,,,,744.1633950000005,744.1745366000005,744.1745366000005,745.0817875000002,744.1745366000005,749.4654745999997,f,1,5.2886125999993965,None,right,14,"[12, 14, 13, 14, 12, 14, 13, 15, 13]",9,shiftedgaze_R_14.png,f,1,3,pilot3,001,2026-04-02_16h01.05.375,mogelijke versie adaptive staircase builder,,2026.1.3,59.87310494138225,2026-04-02 16h01.05.485108 +0200,
5.9,ecc10neg,right,28,0,28,f,1,2.273617299999387,None,0,2,2,2,28,0,28,0,749.5576120000005,,,,,,,,,,,,749.5472634999996,749.5576120000005,749.5576120000005,750.4650094999997,749.5576120000005,751.8321369000005,f,1,2.273617299999387,None,right,14,"[12, 14, 13, 14, 12, 14, 13, 15, 13, 14]",10,shiftedgaze_R_14.png,f,1,3,pilot3,001,2026-04-02_16h01.05.375,mogelijke versie adaptive staircase builder,,2026.1.3,59.87310494138225,2026-04-02 16h01.05.485108 +0200,
5.9,ecc10neg,right,29,0,29,f,1,2.6657298000000083,None,0,2,2,2,29,0,29,0,751.9253693999999,,,,,,,,,,,,751.9143337000005,751.9253693999999,751.9253693999999,752.8316024000005,751.9253693999999,754.5985045999996,f,1,2.6657298000000083,None,right,13,"[12, 14, 13, 14, 12, 14, 13, 15, 13, 14]",10,shiftedgaze_R_13.png,f,1,3,pilot3,001,2026-04-02_16h01.05.375,mogelijke versie adaptive staircase builder,,2026.1.3,59.87310494138225,2026-04-02 16h01.05.485108 +0200,
5.9,ecc10neg,right,30,0,30,f,1,3.747623699999167,None,0,2,2,2,30,0,30,0,754.6994508999996,,,,,,,,,,,,754.6885041000005,754.6994508999996,754.6994508999996,755.5982015,754.6994508999996,758.4484198999999,f,1,3.747623699999167,None,left,13,"[12, 14, 13, 14, 12, 14, 13, 15, 13, 14]",10,shiftedgaze_L_13.png,f,1,3,pilot3,001,2026-04-02_16h01.05.375,mogelijke versie adaptive staircase builder,,2026.1.3,59.87310494138225,2026-04-02 16h01.05.485108 +0200,
5.9,ecc10neg,right,31,0,31,f,1,6.03246930000023,None,0,2,2,2,31,0,31,0,758.5668138999999,,,,,,,,,,,,758.5567532000005,758.5668138999999,758.5668138999999,759.4481753999999,758.5668138999999,764.615202,f,1,6.03246930000023,None,right,12,"[12, 14, 13, 14, 12, 14, 13, 15, 13, 14]",10,shiftedgaze_R_12.png,f,1,3,pilot3,001,2026-04-02_16h01.05.375,mogelijke versie adaptive staircase builder,,2026.1.3,59.87310494138225,2026-04-02 16h01.05.485108 +0200,
5.9,ecc10neg,right,32,0,32,f,1,2.678194400000393,None,0,2,2,2,32,0,32,0,764.7130318999998,,,,,,,,,,,,764.7026197000005,764.7130318999998,764.7130318999998,765.6152124,764.7130318999998,767.3983007000006,f,1,2.678194400000393,None,right,12,"[12, 14, 13, 14, 12, 14, 13, 15, 13, 14]",10,shiftedgaze_R_12.png,f,1,3,pilot3,001,2026-04-02_16h01.05.375,mogelijke versie adaptive staircase builder,,2026.1.3,59.87310494138225,2026-04-02 16h01.05.485108 +0200,
5.9,ecc10neg,right,33,0,33,f,1,3.1868104999994102,None,0,2,2,2,33,0,33,0,767.5243764999996,,,,,,,,,,,,767.5140539999993,767.5243764999996,767.5243764999996,768.3982207999998,767.5243764999996,770.7149090000003,f,1,3.1868104999994102,None,right,11,"[12, 14, 13, 14, 12, 14, 13, 15, 13, 14]",10,shiftedgaze_R_11.png,f,1,3,pilot3,001,2026-04-02_16h01.05.375,mogelijke versie adaptive staircase builder,,2026.1.3,59.87310494138225,2026-04-02 16h01.05.485108 +0200,
5.9,ecc10neg,right,34,0,34,f,1,4.080884000000879,None,0,2,2,2,34,0,34,0,770.8141808,,,,,,,,,,,,770.8033183000007,770.8141808,770.8141808,771.7146744000001,770.8141808,774.8984125999996,f,1,4.080884000000879,None,right,11,"[12, 14, 13, 14, 12, 14, 13, 15, 13, 14]",10,shiftedgaze_R_11.png,f,1,3,pilot3,001,2026-04-02_16h01.05.375,mogelijke versie adaptive staircase builder,,2026.1.3,59.87310494138225,2026-04-02 16h01.05.485108 +0200,
5.9,ecc10neg,right,35,0,35,f,1,3.64210920000005,None,0,2,2,2,35,0,35,0,775.0049655000003,,,,,,,,,,,,774.9938937999996,775.0049655000003,775.0049655000003,775.8980584000001,775.0049655000003,778.6482988999996,f,1,3.64210920000005,None,right,10,"[12, 14, 13, 14, 12, 14, 13, 15, 13, 14]",10,shiftedgaze_R_10.png,f,1,3,pilot3,001,2026-04-02_16h01.05.375,mogelijke versie adaptive staircase builder,,2026.1.3,59.87310494138225,2026-04-02 16h01.05.485108 +0200,
5.9,ecc10neg,right,36,0,36,f,1,2.420291799999177,None,0,2,2,2,36,0,36,0,778.7469101000006,,,,,,,,,,,,778.7364121999999,778.7469101000006,778.7469101000006,779.6480346000008,778.7469101000006,781.1816648000004,f,1,2.420291799999177,None,right,10,"[12, 14, 13, 14, 12, 14, 13, 15, 13, 14]",10,shiftedgaze_R_10.png,f,1,3,pilot3,001,2026-04-02_16h01.05.375,mogelijke versie adaptive staircase builder,,2026.1.3,59.87310494138225,2026-04-02 16h01.05.485108 +0200,
5.9,ecc10neg,right,37,0,37,f,1,3.4234162000011565,None,0,2,2,2,37,0,37,0,781.2878015999995,,,,,,,,,,,,781.2759747,781.2878015999995,781.2878015999995,782.1814087999992,781.2878015999995,784.7149329000003,f,1,3.4234162000011565,None,left,9,"[12, 14, 13, 14, 12, 14, 13, 15, 13, 14]",10,shiftedgaze_L_9.png,f,1,3,pilot3,001,2026-04-02_16h01.05.375,mogelijke versie adaptive staircase builder,,2026.1.3,59.87310494138225,2026-04-02 16h01.05.485108 +0200,
5.9,ecc10neg,right,38,0,38,f,1,3.953759199999695,None,0,2,2,2,38,0,38,0,784.8134338,,,,,,,,,,,,784.8030478000001,784.8134338,784.8134338,785.7144826999993,784.8134338,788.7812699999995,f,1,3.953759199999695,None,left,9,"[12, 14, 13, 14, 12, 14, 13, 15, 13, 14]",10,shiftedgaze_L_9.png,f,1,3,pilot3,001,2026-04-02_16h01.05.375,mogelijke versie adaptive staircase builder,,2026.1.3,59.87310494138225,2026-04-02 16h01.05.485108 +0200,
5.9,ecc10neg,right,39,0,39,f,1,4.502807000000757,None,0,2,2,2,39,0,39,0,788.8883313000006,,,,,,,,,,,,788.8751597999999,788.8883313000006,788.8883313000006,789.7810905000006,788.8883313000006,793.3980783000006,f,1,4.502807000000757,None,right,8,"[12, 14, 13, 14, 12, 14, 13, 15, 13, 14]",10,shiftedgaze_R_8.png,f,1,3,pilot3,001,2026-04-02_16h01.05.375,mogelijke versie adaptive staircase builder,,2026.1.3,59.87310494138225,2026-04-02 16h01.05.485108 +0200,
5.9,ecc10neg,right,40,0,40,j,1,2.614453500000309,None,0,2,2,2,40,0,40,0,793.4965845999996,,,,,,,,,,,,793.4852737000001,793.4965845999996,793.4965845999996,794.3977080000004,793.4965845999996,796.1145359000002,j,1,2.614453500000309,None,direct,8,"[12, 14, 13, 14, 12, 14, 13, 15, 13, 14]",10,shifteddirectgaze.png,j,1,3,pilot3,001,2026-04-02_16h01.05.375,mogelijke versie adaptive staircase builder,,2026.1.3,59.87310494138225,2026-04-02 16h01.05.485108 +0200,
5.9,ecc10neg,right,41,0,41,f,1,3.018344599999182,None,0,2,2,2,41,0,41,0,796.2207211999994,,,,,,,,,,,,796.2099856999994,796.2207211999994,796.2207211999994,797.1144158999996,796.2207211999994,799.2480252000005,f,1,3.018344599999182,None,right,7,"[12, 14, 13, 14, 12, 14, 13, 15, 13, 14]",10,shiftedgaze_R_7.png,f,1,3,pilot3,001,2026-04-02_16h01.05.375,mogelijke versie adaptive staircase builder,,2026.1.3,59.87310494138225,2026-04-02 16h01.05.485108 +0200,
5.9,ecc10neg,right,42,0,42,j,0,2.227487400001337,None,0,2,2,2,42,0,42,0,799.3476465000003,,,,,,,,,,,,799.3368286999994,799.3476465000003,799.3476465000003,800.2477851000003,799.3476465000003,801.5810127000004,j,0,2.227487400001337,None,right,7,"[12, 14, 13, 14, 12, 14, 13, 15, 13, 14, 7]",11,shiftedgaze_R_7.png,j,0,3,pilot3,001,2026-04-02_16h01.05.375,mogelijke versie adaptive staircase builder,,2026.1.3,59.87310494138225,2026-04-02 16h01.05.485108 +0200,
5.9,ecc10neg,right,43,0,43,f,0,4.678602599999067,None,0,2,2,2,43,0,43,0,801.6805175000009,,,,,,,,,,,,801.6698068999995,801.6805175000009,801.6805175000009,802.5808130000005,801.6805175000009,806.3643708,f,0,4.678602599999067,None,direct,8,"[12, 14, 13, 14, 12, 14, 13, 15, 13, 14, 7]",11,shifteddirectgaze.png,f,0,3,pilot3,001,2026-04-02_16h01.05.375,mogelijke versie adaptive staircase builder,,2026.1.3,59.87310494138225,2026-04-02 16h01.05.485108 +0200,
5.9,ecc10neg,right,44,0,44,f,1,5.064934200001517,None,0,2,2,2,44,0,44,0,806.4703202000001,,,,,,,,,,,,806.4596861999999,806.4703202000001,806.4703202000001,807.3641299999999,806.4703202000001,811.5477897000001,f,1,5.064934200001517,None,right,9,"[12, 14, 13, 14, 12, 14, 13, 15, 13, 14, 7]",11,shiftedgaze_R_9.png,f,1,3,pilot3,001,2026-04-02_16h01.05.375,mogelijke versie adaptive staircase builder,,2026.1.3,59.87310494138225,2026-04-02 16h01.05.485108 +0200,
5.9,ecc10neg,right,45,0,45,j,1,6.720094000000245,None,0,2,2,2,45,0,45,0,811.6469503999997,,,,,,,,,,,,811.6361044999994,811.6469503999997,811.6469503999997,812.5477136000009,811.6469503999997,818.3810143999999,j,1,6.720094000000245,None,direct,9,"[12, 14, 13, 14, 12, 14, 13, 15, 13, 14, 7, 9]",12,shifteddirectgaze.png,j,1,3,pilot3,001,2026-04-02_16h01.05.375,mogelijke versie adaptive staircase builder,,2026.1.3,59.87310494138225,2026-04-02 16h01.05.485108 +0200,
5.9,ecc10neg,right,46,0,46,f,0,3.205251800000042,None,0,2,2,2,46,0,46,0,818.4827974,,,,,,,,,,,,818.4725020999995,818.4827974,818.4827974,819.3808050000007,818.4827974,821.6974890000001,f,0,3.205251800000042,None,direct,8,"[12, 14, 13, 14, 12, 14, 13, 15, 13, 14, 7, 9, 8]",13,shifteddirectgaze.png,f,0,3,pilot3,001,2026-04-02_16h01.05.375,mogelijke versie adaptive staircase builder,,2026.1.3,59.87310494138225,2026-04-02 16h01.05.485108 +0200,
5.9,ecc10neg,right,47,0,47,j,0,3.509101499999815,None,0,2,2,2,47,0,47,0,821.7953686000001,,,,,,,,,,,,821.7848462000002,821.7953686000001,821.7953686000001,822.6971861000002,821.7953686000001,825.3141587000009,j,0,3.509101499999815,None,right,9,"[12, 14, 13, 14, 12, 14, 13, 15, 13, 14, 7, 9, 8]",13,shiftedgaze_R_9.png,j,0,3,pilot3,001,2026-04-02_16h01.05.375,mogelijke versie adaptive staircase builder,,2026.1.3,59.87310494138225,2026-04-02 16h01.05.485108 +0200,
5.9,ecc10neg,right,48,0,48,f,1,3.3262670999993134,None,0,2,2,2,48,0,48,0,825.4167782000004,,,,,,,,,,,,825.4032325999997,825.4167782000004,825.4167782000004,826.3138225999992,825.4167782000004,828.7474767999993,f,1,3.3262670999993134,None,right,10,"[12, 14, 13, 14, 12, 14, 13, 15, 13, 14, 7, 9, 8]",13,shiftedgaze_R_10.png,f,1,3,pilot3,001,2026-04-02_16h01.05.375,mogelijke versie adaptive staircase builder,,2026.1.3,59.87310494138225,2026-04-02 16h01.05.485108 +0200,
5.9,ecc10neg,right,49,0,49,f,1,5.047854300000836,None,0,2,2,2,49,0,49,0,828.8471621000008,,,,,,,,,,,,828.8369803000005,828.8471621000008,828.8471621000008,829.7473387999999,828.8471621000008,833.8973325000006,f,1,5.047854300000836,None,right,10,"[12, 14, 13, 14, 12, 14, 13, 15, 13, 14, 7, 9, 8, 10]",14,shiftedgaze_R_10.png,f,1,3,pilot3,001,2026-04-02_16h01.05.375,mogelijke versie adaptive staircase builder,,2026.1.3,59.87310494138225,2026-04-02 16h01.05.485108 +0200,
5.9,ecc10neg,right,2,2,0,,,,,0,2,2,2,,,,,,,,,,,,,,,,,,,,,,,,,,,,,,,,,,,pilot3,001,2026-04-02_16h01.05.375,mogelijke versie adaptive staircase builder,,2026.1.3,59.87310494138225,2026-04-02 16h01.05.485108 +0200,
