xPos,stimulusSet,whichImage,thisN,thisTrialN,thisRepN,key_resp.keys,key_resp.corr,key_resp.rt,key_resp.duration,blocks.thisRepN,blocks.thisTrialN,blocks.thisN,blocks.thisIndex,trials.thisRepN,trials.thisTrialN,trials.thisN,trials.thisIndex,thisRow.t,notes,piloting,intro.started,introinstructions.started,intro_key.started,intro.stopped,intro_key.keys,intro_key.rt,intro_key.duration,block_start.started,block_start.stopped,trial.started,key_resp.started,middle_image.started,right_image.started,left_image.started,trial.stopped,trials.key_resp.keys,trials.key_resp.corr,trials.key_resp.rt,trials.key_resp.duration,direction,angle,reversal_intensities,number_reversals,stimulus,response,correct,blockNumber,participant,session,date,expName,expVersion,psychopyVersion,frameRate,expStart,
,,,,,,,,,,,,,,,,,,,,False,0.04799949999960518,0.05644029999984923,0.05644029999984923,91.77075890000015,space,91.69954710000002,None,,,,,,,,,,,,,,,,,,,,,pilot1,001,2026-04-02_15h17.39.436,mogelijke versie adaptive staircase builder,,2026.1.3,60.02851354364969,2026-04-02 15h17.39.531182 +0200,
29.1,ecc10pos,left,0,0,0,j,0,11.272354799999448,None,0,0,0,0,0,0,0,0,92.10749990000022,,,,,,,,,,91.9915288000002,91.99164699999983,92.09611479999967,92.10749990000022,92.10749990000022,92.10749990000022,93.00363660000039,103.38730450000003,j,0,11.272354799999448,None,right,15,[],0,shiftedgaze_R_15.png,j,0,1,pilot1,001,2026-04-02_15h17.39.436,mogelijke versie adaptive staircase builder,,2026.1.3,60.02851354364969,2026-04-02 15h17.39.531182 +0200,
29.1,ecc10pos,left,1,0,1,j,0,3.2178538999996817,None,0,0,0,0,1,0,1,0,103.49797450000005,,,,,,,,,,,,103.48769720000018,103.49797450000005,103.49797450000005,103.49797450000005,104.38692330000049,106.72062749999986,j,0,3.2178538999996817,None,left,15,[],0,shiftedgaze_L_15.png,j,0,1,pilot1,001,2026-04-02_15h17.39.436,mogelijke versie adaptive staircase builder,,2026.1.3,60.02851354364969,2026-04-02 15h17.39.531182 +0200,
29.1,ecc10pos,left,2,0,2,j,0,5.2646224000000075,None,0,0,0,0,2,0,2,0,106.82736039999963,,,,,,,,,,,,106.8167768000003,106.82736039999963,106.82736039999963,106.82736039999963,107.72005199999967,112.10393939999994,j,0,5.2646224000000075,None,right,15,[],0,shiftedgaze_R_15.png,j,0,1,pilot1,001,2026-04-02_15h17.39.436,mogelijke versie adaptive staircase builder,,2026.1.3,60.02851354364969,2026-04-02 15h17.39.531182 +0200,
29.1,ecc10pos,left,3,0,3,f,1,4.039658500000769,None,0,0,0,0,3,0,3,0,112.19623930000034,,,,,,,,,,,,112.18486180000036,112.19623930000034,112.19623930000034,112.19623930000034,113.10347610000008,116.23725850000028,f,1,4.039658500000769,None,right,15,[15],1,shiftedgaze_R_15.png,f,1,1,pilot1,001,2026-04-02_15h17.39.436,mogelijke versie adaptive staircase builder,,2026.1.3,60.02851354364969,2026-04-02 15h17.39.531182 +0200,
29.1,ecc10pos,left,4,0,4,f,0,2.129117600000427,None,0,0,0,0,4,0,4,0,116.33873409999978,,,,,,,,,,,,116.32846870000049,116.33873409999978,116.33873409999978,116.33873409999978,117.23670370000036,118.4704182000005,f,0,2.129117600000427,None,direct,14,"[15, 14]",2,shifteddirectgaze.png,f,0,1,pilot1,001,2026-04-02_15h17.39.436,mogelijke versie adaptive staircase builder,,2026.1.3,60.02851354364969,2026-04-02 15h17.39.531182 +0200,
29.1,ecc10pos,left,5,0,5,f,1,2.7680655000003753,None,0,0,0,0,5,0,5,0,118.56380619999982,,,,,,,,,,,,118.5528605999998,118.56380619999982,118.56380619999982,118.56380619999982,119.4699255000005,121.3368958000001,f,1,2.7680655000003753,None,right,15,"[15, 14]",2,shiftedgaze_R_15.png,f,1,1,pilot1,001,2026-04-02_15h17.39.436,mogelijke versie adaptive staircase builder,,2026.1.3,60.02851354364969,2026-04-02 15h17.39.531182 +0200,
29.1,ecc10pos,left,6,0,6,j,0,2.7492763999998715,None,0,0,0,0,6,0,6,0,121.43867219999993,,,,,,,,,,,,121.42819710000003,121.43867219999993,121.43867219999993,121.43867219999993,122.33661949999987,124.20397909999974,j,0,2.7492763999998715,None,left,15,"[15, 14]",2,shiftedgaze_L_15.png,j,0,1,pilot1,001,2026-04-02_15h17.39.436,mogelijke versie adaptive staircase builder,,2026.1.3,60.02851354364969,2026-04-02 15h17.39.531182 +0200,
29.1,ecc10pos,left,7,0,7,j,1,3.7850767999998425,None,0,0,0,0,7,0,7,0,124.3068132999997,,,,,,,,,,,,124.2965847000005,124.3068132999997,124.3068132999997,124.3068132999997,125.20344490000025,128.10364370000025,j,1,3.7850767999998425,None,direct,15,"[15, 14]",2,shifteddirectgaze.png,j,1,1,pilot1,001,2026-04-02_15h17.39.436,mogelijke versie adaptive staircase builder,,2026.1.3,60.02851354364969,2026-04-02 15h17.39.531182 +0200,
29.1,ecc10pos,left,8,0,8,f,1,1.9192321999998967,None,0,0,0,0,8,0,8,0,128.20475309999983,,,,,,,,,,,,128.19445059999998,128.20475309999983,128.20475309999983,128.20475309999983,129.10332889999972,130.13712029999988,f,1,1.9192321999998967,None,left,15,"[15, 14, 15]",3,shiftedgaze_L_15.png,f,1,1,pilot1,001,2026-04-02_15h17.39.436,mogelijke versie adaptive staircase builder,,2026.1.3,60.02851354364969,2026-04-02 15h17.39.531182 +0200,
29.1,ecc10pos,left,9,0,9,f,0,2.2681918999996924,None,0,0,0,0,9,0,9,0,130.23980519999986,,,,,,,,,,,,130.22960719999992,130.23980519999986,130.23980519999986,130.23980519999986,131.13659519999965,132.52033550000033,f,0,2.2681918999996924,None,direct,14,"[15, 14, 15, 14]",4,shifteddirectgaze.png,f,0,1,pilot1,001,2026-04-02_15h17.39.436,mogelijke versie adaptive staircase builder,,2026.1.3,60.02851354364969,2026-04-02 15h17.39.531182 +0200,
29.1,ecc10pos,left,10,0,10,f,1,5.375455399999737,None,0,0,0,0,10,0,10,0,132.61251429999993,,,,,,,,,,,,132.6010268,132.61251429999993,132.61251429999993,132.61251429999993,133.51992260000043,138.00372779999998,f,1,5.375455399999737,None,right,15,"[15, 14, 15, 14]",4,shiftedgaze_R_15.png,f,1,1,pilot1,001,2026-04-02_15h17.39.436,mogelijke versie adaptive staircase builder,,2026.1.3,60.02851354364969,2026-04-02 15h17.39.531182 +0200,
29.1,ecc10pos,left,11,0,11,f,1,5.514087500000642,None,0,0,0,0,11,0,11,0,138.10612039999978,,,,,,,,,,,,138.0958542999997,138.10612039999978,138.10612039999978,138.10612039999978,139.0030622000004,143.6367720999997,f,1,5.514087500000642,None,left,15,"[15, 14, 15, 14, 15]",5,shiftedgaze_L_15.png,f,1,1,pilot1,001,2026-04-02_15h17.39.436,mogelijke versie adaptive staircase builder,,2026.1.3,60.02851354364969,2026-04-02 15h17.39.531182 +0200,
29.1,ecc10pos,left,12,0,12,j,1,3.250804899999821,None,0,0,0,0,12,0,12,0,143.73719489999985,,,,,,,,,,,,143.72680029999992,143.73719489999985,143.73719489999985,143.73719489999985,144.63638470000024,147.00357319999966,j,1,3.250804899999821,None,direct,14,"[15, 14, 15, 14, 15]",5,shifteddirectgaze.png,j,1,1,pilot1,001,2026-04-02_15h17.39.436,mogelijke versie adaptive staircase builder,,2026.1.3,60.02851354364969,2026-04-02 15h17.39.531182 +0200,
29.1,ecc10pos,left,13,0,13,j,1,7.317497499999263,None,0,0,0,0,13,0,13,0,147.09454000000005,,,,,,,,,,,,147.08403890000045,147.09454000000005,147.09454000000005,147.09454000000005,148.00303489999988,154.42003720000048,j,1,7.317497499999263,None,direct,14,"[15, 14, 15, 14, 15]",5,shifteddirectgaze.png,j,1,1,pilot1,001,2026-04-02_15h17.39.436,mogelijke versie adaptive staircase builder,,2026.1.3,60.02851354364969,2026-04-02 15h17.39.531182 +0200,
29.1,ecc10pos,left,14,0,14,f,1,2.1173146000000997,None,0,0,0,0,14,0,14,0,154.51878360000046,,,,,,,,,,,,154.5080226,154.51878360000046,154.51878360000046,154.51878360000046,155.43631249999999,156.63666339999963,f,1,2.1173146000000997,None,right,13,"[15, 14, 15, 14, 15]",5,shiftedgaze_R_13.png,f,1,1,pilot1,001,2026-04-02_15h17.39.436,mogelijke versie adaptive staircase builder,,2026.1.3,60.02851354364969,2026-04-02 15h17.39.531182 +0200,
29.1,ecc10pos,left,15,0,15,j,1,7.283319699999993,None,0,0,0,0,15,0,15,0,156.7285308999999,,,,,,,,,,,,156.7178087000002,156.7285308999999,156.7285308999999,156.7285308999999,157.63619010000002,164.0197473999997,j,1,7.283319699999993,None,direct,13,"[15, 14, 15, 14, 15]",5,shifteddirectgaze.png,j,1,1,pilot1,001,2026-04-02_15h17.39.436,mogelijke versie adaptive staircase builder,,2026.1.3,60.02851354364969,2026-04-02 15h17.39.531182 +0200,
29.1,ecc10pos,left,16,0,16,j,0,5.050475899999583,None,0,0,0,0,16,0,16,0,164.12136459999965,,,,,,,,,,,,164.11083080000026,164.12136459999965,164.12136459999965,164.12136459999965,165.01968990000023,169.18644440000025,j,0,5.050475899999583,None,left,12,"[15, 14, 15, 14, 15, 12]",6,shiftedgaze_L_12.png,j,0,1,pilot1,001,2026-04-02_15h17.39.436,mogelijke versie adaptive staircase builder,,2026.1.3,60.02851354364969,2026-04-02 15h17.39.531182 +0200,
29.1,ecc10pos,left,17,0,17,j,0,2.4849566000002596,None,0,0,0,0,17,0,17,0,169.28687480000008,,,,,,,,,,,,169.27555260000008,169.28687480000008,169.28687480000008,169.28687480000008,170.18613939999977,171.78649049999967,j,0,2.4849566000002596,None,left,13,"[15, 14, 15, 14, 15, 12]",6,shiftedgaze_L_13.png,j,0,1,pilot1,001,2026-04-02_15h17.39.436,mogelijke versie adaptive staircase builder,,2026.1.3,60.02851354364969,2026-04-02 15h17.39.531182 +0200,
29.1,ecc10pos,left,18,0,18,j,1,3.045119800000066,None,0,0,0,0,18,0,18,0,171.87872770000013,,,,,,,,,,,,171.8685813000002,171.87872770000013,171.87872770000013,171.87872770000013,172.78607509999983,174.93651789999967,j,1,3.045119800000066,None,direct,14,"[15, 14, 15, 14, 15, 12]",6,shifteddirectgaze.png,j,1,1,pilot1,001,2026-04-02_15h17.39.436,mogelijke versie adaptive staircase builder,,2026.1.3,60.02851354364969,2026-04-02 15h17.39.531182 +0200,
29.1,ecc10pos,left,19,0,19,f,1,1.9756489000001238,None,0,0,0,0,19,0,19,0,175.03620020000017,,,,,,,,,,,,175.02566639999986,175.03620020000017,175.03620020000017,175.03620020000017,175.95268190000024,177.01957440000024,f,1,1.9756489000001238,None,right,14,"[15, 14, 15, 14, 15, 12, 14]",7,shiftedgaze_R_14.png,f,1,1,pilot1,001,2026-04-02_15h17.39.436,mogelijke versie adaptive staircase builder,,2026.1.3,60.02851354364969,2026-04-02 15h17.39.531182 +0200,
29.1,ecc10pos,left,20,0,20,f,1,2.2434103000005052,None,0,0,0,0,20,0,20,0,177.11258129999987,,,,,,,,,,,,177.10103450000042,177.11258129999987,177.11258129999987,177.11258129999987,178.0192533999998,179.3697046999996,f,1,2.2434103000005052,None,left,13,"[15, 14, 15, 14, 15, 12, 14]",7,shiftedgaze_L_13.png,f,1,1,pilot1,001,2026-04-02_15h17.39.436,mogelijke versie adaptive staircase builder,,2026.1.3,60.02851354364969,2026-04-02 15h17.39.531182 +0200,
29.1,ecc10pos,left,21,0,21,j,0,2.176220100000137,None,0,0,0,0,21,0,21,0,179.45981360000042,,,,,,,,,,,,179.44932510000035,179.45981360000042,179.45981360000042,179.45981360000042,180.36920089999967,181.6529475999996,j,0,2.176220100000137,None,right,13,"[15, 14, 15, 14, 15, 12, 14, 13]",8,shiftedgaze_R_13.png,j,0,1,pilot1,001,2026-04-02_15h17.39.436,mogelijke versie adaptive staircase builder,,2026.1.3,60.02851354364969,2026-04-02 15h17.39.531182 +0200,
29.1,ecc10pos,left,22,0,22,f,1,2.0637162999992142,None,0,0,0,0,22,0,22,0,181.74819630000002,,,,,,,,,,,,181.73774580000008,181.74819630000002,181.74819630000002,181.74819630000002,182.6691182000004,183.81940570000006,f,1,2.0637162999992142,None,right,14,"[15, 14, 15, 14, 15, 12, 14, 13]",8,shiftedgaze_R_14.png,f,1,1,pilot1,001,2026-04-02_15h17.39.436,mogelijke versie adaptive staircase builder,,2026.1.3,60.02851354364969,2026-04-02 15h17.39.531182 +0200,
29.1,ecc10pos,left,23,0,23,f,1,1.9177882999993017,None,0,0,0,0,23,0,23,0,183.91841339999974,,,,,,,,,,,,183.90813030000027,183.91841339999974,183.91841339999974,183.91841339999974,184.8190340000001,185.85282800000004,f,1,1.9177882999993017,None,left,14,"[15, 14, 15, 14, 15, 12, 14, 13, 14]",9,shiftedgaze_L_14.png,f,1,1,pilot1,001,2026-04-02_15h17.39.436,mogelijke versie adaptive staircase builder,,2026.1.3,60.02851354364969,2026-04-02 15h17.39.531182 +0200,
29.1,ecc10pos,left,24,0,24,j,0,1.7550518999996711,None,0,0,0,0,24,0,24,0,185.9449072999996,,,,,,,,,,,,185.9340143999998,185.9449072999996,185.9449072999996,185.9449072999996,186.8526453000004,187.70298920000005,j,0,1.7550518999996711,None,right,13,"[15, 14, 15, 14, 15, 12, 14, 13, 14, 13]",10,shiftedgaze_R_13.png,j,0,1,pilot1,001,2026-04-02_15h17.39.436,mogelijke versie adaptive staircase builder,,2026.1.3,60.02851354364969,2026-04-02 15h17.39.531182 +0200,
29.1,ecc10pos,left,25,0,25,f,1,2.4783250000000407,None,0,0,0,0,25,0,25,0,187.79794289999973,,,,,,,,,,,,187.7865208000003,187.79794289999973,187.79794289999973,187.79794289999973,188.70287029999963,190.28618579999966,f,1,2.4783250000000407,None,right,14,"[15, 14, 15, 14, 15, 12, 14, 13, 14, 13]",10,shiftedgaze_R_14.png,f,1,1,pilot1,001,2026-04-02_15h17.39.436,mogelijke versie adaptive staircase builder,,2026.1.3,60.02851354364969,2026-04-02 15h17.39.531182 +0200,
29.1,ecc10pos,left,26,0,26,f,1,2.3944452000005185,None,0,0,0,0,26,0,26,0,190.3773940000001,,,,,,,,,,,,190.36692109999967,190.3773940000001,190.3773940000001,190.3773940000001,191.2856426999997,192.78603680000015,f,1,2.3944452000005185,None,left,14,"[15, 14, 15, 14, 15, 12, 14, 13, 14, 13, 14]",11,shiftedgaze_L_14.png,f,1,1,pilot1,001,2026-04-02_15h17.39.436,mogelijke versie adaptive staircase builder,,2026.1.3,60.02851354364969,2026-04-02 15h17.39.531182 +0200,
29.1,ecc10pos,left,27,0,27,j,0,2.116638800000146,None,0,0,0,0,27,0,27,0,192.87935040000048,,,,,,,,,,,,192.86885119999988,192.87935040000048,192.87935040000048,192.87935040000048,193.78582860000006,195.00276070000018,j,0,2.116638800000146,None,left,13,"[15, 14, 15, 14, 15, 12, 14, 13, 14, 13, 14, 13]",12,shiftedgaze_L_13.png,j,0,1,pilot1,001,2026-04-02_15h17.39.436,mogelijke versie adaptive staircase builder,,2026.1.3,60.02851354364969,2026-04-02 15h17.39.531182 +0200,
29.1,ecc10pos,left,28,0,28,f,1,3.3580282000002626,None,0,0,0,0,28,0,28,0,195.0941359999997,,,,,,,,,,,,195.08303710000018,195.0941359999997,195.0941359999997,195.0941359999997,196.00251089999983,198.4530107999999,f,1,3.3580282000002626,None,left,14,"[15, 14, 15, 14, 15, 12, 14, 13, 14, 13, 14, 13]",12,shiftedgaze_L_14.png,f,1,1,pilot1,001,2026-04-02_15h17.39.436,mogelijke versie adaptive staircase builder,,2026.1.3,60.02851354364969,2026-04-02 15h17.39.531182 +0200,
29.1,ecc10pos,left,29,0,29,f,1,2.7806250000003274,None,0,0,0,0,29,0,29,0,198.5433361000005,,,,,,,,,,,,198.53281940000034,198.5433361000005,198.5433361000005,198.5433361000005,199.4527178999997,201.33610539999972,f,1,2.7806250000003274,None,left,14,"[15, 14, 15, 14, 15, 12, 14, 13, 14, 13, 14, 13, 14]",13,shiftedgaze_L_14.png,f,1,1,pilot1,001,2026-04-02_15h17.39.436,mogelijke versie adaptive staircase builder,,2026.1.3,60.02851354364969,2026-04-02 15h17.39.531182 +0200,
29.1,ecc10pos,left,30,0,30,f,1,1.7766971999999441,None,0,0,0,0,30,0,30,0,201.4271394999996,,,,,,,,,,,,201.41655879999962,201.4271394999996,201.4271394999996,201.4271394999996,202.3357877999997,203.21944890000032,f,1,1.7766971999999441,None,left,13,"[15, 14, 15, 14, 15, 12, 14, 13, 14, 13, 14, 13, 14]",13,shiftedgaze_L_13.png,f,1,1,pilot1,001,2026-04-02_15h17.39.436,mogelijke versie adaptive staircase builder,,2026.1.3,60.02851354364969,2026-04-02 15h17.39.531182 +0200,
29.1,ecc10pos,left,31,0,31,f,1,3.54129390000071,None,0,0,0,0,31,0,31,0,203.31078200000047,,,,,,,,,,,,203.30070049999995,203.31078200000047,203.31078200000047,203.31078200000047,204.2193668,206.85316039999998,f,1,3.54129390000071,None,right,13,"[15, 14, 15, 14, 15, 12, 14, 13, 14, 13, 14, 13, 14]",13,shiftedgaze_R_13.png,f,1,1,pilot1,001,2026-04-02_15h17.39.436,mogelijke versie adaptive staircase builder,,2026.1.3,60.02851354364969,2026-04-02 15h17.39.531182 +0200,
29.1,ecc10pos,left,32,0,32,f,1,2.06555169999956,None,0,0,0,0,32,0,32,0,206.94635170000038,,,,,,,,,,,,206.93573130000004,206.94635170000038,206.94635170000038,206.94635170000038,207.85226049999983,209.01930319999974,f,1,2.06555169999956,None,left,12,"[15, 14, 15, 14, 15, 12, 14, 13, 14, 13, 14, 13, 14]",13,shiftedgaze_L_12.png,f,1,1,pilot1,001,2026-04-02_15h17.39.436,mogelijke versie adaptive staircase builder,,2026.1.3,60.02851354364969,2026-04-02 15h17.39.531182 +0200,
29.1,ecc10pos,left,33,0,33,j,0,1.9732483999996475,None,0,0,0,0,33,0,33,0,209.11064629999964,,,,,,,,,,,,209.09960709999996,209.11064629999964,209.11064629999964,209.11064629999964,210.01877810000042,211.08597480000026,j,0,1.9732483999996475,None,left,12,"[15, 14, 15, 14, 15, 12, 14, 13, 14, 13, 14, 13, 14, 12]",14,shiftedgaze_L_12.png,j,0,1,pilot1,001,2026-04-02_15h17.39.436,mogelijke versie adaptive staircase builder,,2026.1.3,60.02851354364969,2026-04-02 15h17.39.531182 +0200,
29.1,ecc10pos,left,34,0,34,f,1,2.2674620999996478,None,0,0,0,0,34,0,34,0,211.17638549999992,,,,,,,,,,,,211.16604970000026,211.17638549999992,211.17638549999992,211.17638549999992,212.0863543000005,213.4526876,f,1,2.2674620999996478,None,right,13,"[15, 14, 15, 14, 15, 12, 14, 13, 14, 13, 14, 13, 14, 12]",14,shiftedgaze_R_13.png,f,1,1,pilot1,001,2026-04-02_15h17.39.436,mogelijke versie adaptive staircase builder,,2026.1.3,60.02851354364969,2026-04-02 15h17.39.531182 +0200,
29.1,ecc10pos,left,35,0,35,j,0,2.4753067999999985,None,0,0,0,0,35,0,35,0,213.54448219999995,,,,,,,,,,,,213.53212090000034,213.54448219999995,213.54448219999995,213.54448219999995,214.452131,216.0357624999997,j,0,2.4753067999999985,None,right,13,"[15, 14, 15, 14, 15, 12, 14, 13, 14, 13, 14, 13, 14, 12]",14,shiftedgaze_R_13.png,j,0,1,pilot1,001,2026-04-02_15h17.39.436,mogelijke versie adaptive staircase builder,,2026.1.3,60.02851354364969,2026-04-02 15h17.39.531182 +0200,
29.1,ecc10pos,left,36,0,36,f,1,2.0762220999995407,None,0,0,0,0,36,0,36,0,216.12761690000025,,,,,,,,,,,,216.11610459999974,216.12761690000025,216.12761690000025,216.12761690000025,217.03569020000032,218.21927270000015,f,1,2.0762220999995407,None,left,14,"[15, 14, 15, 14, 15, 12, 14, 13, 14, 13, 14, 13, 14, 12]",14,shiftedgaze_L_14.png,f,1,1,pilot1,001,2026-04-02_15h17.39.436,mogelijke versie adaptive staircase builder,,2026.1.3,60.02851354364969,2026-04-02 15h17.39.531182 +0200,
29.1,ecc10pos,left,37,0,37,f,1,2.2510309999997844,None,0,0,0,0,37,0,37,0,218.31281709999985,,,,,,,,,,,,218.3019604000001,218.31281709999985,218.31281709999985,218.31281709999985,219.21880990000045,220.56904209999993,f,1,2.2510309999997844,None,left,14,"[15, 14, 15, 14, 15, 12, 14, 13, 14, 13, 14, 13, 14, 12, 14]",15,shiftedgaze_L_14.png,f,1,1,pilot1,001,2026-04-02_15h17.39.436,mogelijke versie adaptive staircase builder,,2026.1.3,60.02851354364969,2026-04-02 15h17.39.531182 +0200,
29.1,ecc10pos,left,38,0,38,f,1,2.519647199999781,None,0,0,0,0,38,0,38,0,220.6602294000004,,,,,,,,,,,,220.64948960000038,220.6602294000004,220.6602294000004,220.6602294000004,221.56878229999984,223.18583020000005,f,1,2.519647199999781,None,left,13,"[15, 14, 15, 14, 15, 12, 14, 13, 14, 13, 14, 13, 14, 12, 14]",15,shiftedgaze_L_13.png,f,1,1,pilot1,001,2026-04-02_15h17.39.436,mogelijke versie adaptive staircase builder,,2026.1.3,60.02851354364969,2026-04-02 15h17.39.531182 +0200,
29.1,ecc10pos,left,39,0,39,f,1,1.8556354000002102,None,0,0,0,0,39,0,39,0,223.27629539999998,,,,,,,,,,,,223.2660765999999,223.27629539999998,223.27629539999998,223.27629539999998,224.18537780000042,225.1356906000001,f,1,1.8556354000002102,None,left,13,"[15, 14, 15, 14, 15, 12, 14, 13, 14, 13, 14, 13, 14, 12, 14]",15,shiftedgaze_L_13.png,f,1,1,pilot1,001,2026-04-02_15h17.39.436,mogelijke versie adaptive staircase builder,,2026.1.3,60.02851354364969,2026-04-02 15h17.39.531182 +0200,
29.1,ecc10pos,left,40,0,40,f,1,3.345116199999211,None,0,0,0,0,40,0,40,0,225.2267271999999,,,,,,,,,,,,225.21586800000023,225.2267271999999,225.2267271999999,225.2267271999999,226.1353454,228.5858207000001,f,1,3.345116199999211,None,left,12,"[15, 14, 15, 14, 15, 12, 14, 13, 14, 13, 14, 13, 14, 12, 14]",15,shiftedgaze_L_12.png,f,1,1,pilot1,001,2026-04-02_15h17.39.436,mogelijke versie adaptive staircase builder,,2026.1.3,60.02851354364969,2026-04-02 15h17.39.531182 +0200,
29.1,ecc10pos,left,41,0,41,f,1,3.630587800000285,None,0,0,0,0,41,0,41,0,228.68516910000017,,,,,,,,,,,,228.6740018999999,228.68516910000017,228.68516910000017,228.68516910000017,229.58558280000034,232.31898449999971,f,1,3.630587800000285,None,right,12,"[15, 14, 15, 14, 15, 12, 14, 13, 14, 13, 14, 13, 14, 12, 14]",15,shiftedgaze_R_12.png,f,1,1,pilot1,001,2026-04-02_15h17.39.436,mogelijke versie adaptive staircase builder,,2026.1.3,60.02851354364969,2026-04-02 15h17.39.531182 +0200,
29.1,ecc10pos,left,42,0,42,f,1,3.072127200000068,None,0,0,0,0,42,0,42,0,232.43568700000014,,,,,,,,,,,,232.42582479999965,232.43568700000014,232.43568700000014,232.43568700000014,233.31859520000035,235.51884789999986,f,1,3.072127200000068,None,left,11,"[15, 14, 15, 14, 15, 12, 14, 13, 14, 13, 14, 13, 14, 12, 14]",15,shiftedgaze_L_11.png,f,1,1,pilot1,001,2026-04-02_15h17.39.436,mogelijke versie adaptive staircase builder,,2026.1.3,60.02851354364969,2026-04-02 15h17.39.531182 +0200,
29.1,ecc10pos,left,43,0,43,f,1,2.216823700000532,None,0,0,0,0,43,0,43,0,235.61108810000042,,,,,,,,,,,,235.6000812000002,235.61108810000042,235.61108810000042,235.61108810000042,236.51854569999978,237.83560949999992,f,1,2.216823700000532,None,left,11,"[15, 14, 15, 14, 15, 12, 14, 13, 14, 13, 14, 13, 14, 12, 14]",15,shiftedgaze_L_11.png,f,1,1,pilot1,001,2026-04-02_15h17.39.436,mogelijke versie adaptive staircase builder,,2026.1.3,60.02851354364969,2026-04-02 15h17.39.531182 +0200,
29.1,ecc10pos,left,44,0,44,f,1,2.443875800000569,None,0,0,0,0,44,0,44,0,237.95187129999977,,,,,,,,,,,,237.94205239999974,237.95187129999977,237.95187129999977,237.95187129999977,238.83513440000024,240.40216539999983,f,1,2.443875800000569,None,left,10,"[15, 14, 15, 14, 15, 12, 14, 13, 14, 13, 14, 13, 14, 12, 14]",15,shiftedgaze_L_10.png,f,1,1,pilot1,001,2026-04-02_15h17.39.436,mogelijke versie adaptive staircase builder,,2026.1.3,60.02851354364969,2026-04-02 15h17.39.531182 +0200,
29.1,ecc10pos,left,45,0,45,f,0,3.235399000000143,None,0,0,0,0,45,0,45,0,240.49639819999993,,,,,,,,,,,,240.48357750000014,240.49639819999993,240.49639819999993,240.49639819999993,241.4018901999998,243.73558849999972,f,0,3.235399000000143,None,direct,10,"[15, 14, 15, 14, 15, 12, 14, 13, 14, 13, 14, 13, 14, 12, 14, 10]",16,shifteddirectgaze.png,f,0,1,pilot1,001,2026-04-02_15h17.39.436,mogelijke versie adaptive staircase builder,,2026.1.3,60.02851354364969,2026-04-02 15h17.39.531182 +0200,
29.1,ecc10pos,left,46,0,46,f,1,4.146325500000785,None,0,0,0,0,46,0,46,0,243.83349269999962,,,,,,,,,,,,243.82365750000008,243.83349269999962,243.83349269999962,243.83349269999962,244.7349245000005,247.98539789999995,f,1,4.146325500000785,None,right,11,"[15, 14, 15, 14, 15, 12, 14, 13, 14, 13, 14, 13, 14, 12, 14, 10]",16,shiftedgaze_R_11.png,f,1,1,pilot1,001,2026-04-02_15h17.39.436,mogelijke versie adaptive staircase builder,,2026.1.3,60.02851354364969,2026-04-02 15h17.39.531182 +0200,
29.1,ecc10pos,left,47,0,47,f,1,4.716964799999914,None,0,0,0,0,47,0,47,0,248.0949814000005,,,,,,,,,,,,248.08508900000015,248.0949814000005,248.0949814000005,248.0949814000005,248.98502290000033,252.8187009000003,f,1,4.716964799999914,None,left,11,"[15, 14, 15, 14, 15, 12, 14, 13, 14, 13, 14, 13, 14, 12, 14, 10, 11]",17,shiftedgaze_L_11.png,f,1,1,pilot1,001,2026-04-02_15h17.39.436,mogelijke versie adaptive staircase builder,,2026.1.3,60.02851354364969,2026-04-02 15h17.39.531182 +0200,
29.1,ecc10pos,left,48,0,48,f,1,2.6931006000004345,None,0,0,0,0,48,0,48,0,252.92673879999984,,,,,,,,,,,,252.91541460000008,252.92673879999984,252.92673879999984,252.92673879999984,253.81830300000001,255.6353691000004,f,1,2.6931006000004345,None,left,10,"[15, 14, 15, 14, 15, 12, 14, 13, 14, 13, 14, 13, 14, 12, 14, 10, 11]",17,shiftedgaze_L_10.png,f,1,1,pilot1,001,2026-04-02_15h17.39.436,mogelijke versie adaptive staircase builder,,2026.1.3,60.02851354364969,2026-04-02 15h17.39.531182 +0200,
29.1,ecc10pos,left,49,0,49,f,1,4.294074999999793,None,0,0,0,0,49,0,49,0,255.73385059999964,,,,,,,,,,,,255.72306480000043,255.73385059999964,255.73385059999964,255.73385059999964,256.63494230000015,260.03532319999977,f,1,4.294074999999793,None,right,10,"[15, 14, 15, 14, 15, 12, 14, 13, 14, 13, 14, 13, 14, 12, 14, 10, 11]",17,shiftedgaze_R_10.png,f,1,1,pilot1,001,2026-04-02_15h17.39.436,mogelijke versie adaptive staircase builder,,2026.1.3,60.02851354364969,2026-04-02 15h17.39.531182 +0200,
29.1,ecc10pos,left,0,0,0,,,,,0,0,0,0,,,,,,,,,,,,,,,,,,,,,,,,,,,,,,,,,,,pilot1,001,2026-04-02_15h17.39.436,mogelijke versie adaptive staircase builder,,2026.1.3,60.02851354364969,2026-04-02 15h17.39.531182 +0200,
17.5,ecc0,mid,0,0,0,f,1,2.602532500000052,None,0,1,1,1,0,0,0,0,260.13748080000005,,,,,,,,,,260.0377047000002,260.0377414000004,260.1263153,260.13748080000005,261.05150390000017,260.13748080000005,260.13748080000005,262.75195619999977,f,1,2.602532500000052,None,left,15,[],0,gaze_L_15.png,f,1,2,pilot1,001,2026-04-02_15h17.39.436,mogelijke versie adaptive staircase builder,,2026.1.3,60.02851354364969,2026-04-02 15h17.39.531182 +0200,
17.5,ecc0,mid,1,0,1,f,1,2.09802209999998,None,0,1,1,1,1,0,1,0,262.84993399999985,,,,,,,,,,,,262.8394982,262.84993399999985,263.7515358999999,262.84993399999985,262.84993399999985,264.95195539999986,f,1,2.09802209999998,None,left,14,[],0,gaze_L_14.png,f,1,2,pilot1,001,2026-04-02_15h17.39.436,mogelijke versie adaptive staircase builder,,2026.1.3,60.02851354364969,2026-04-02 15h17.39.531182 +0200,
17.5,ecc0,mid,2,0,2,f,1,4.033809500000643,None,0,1,1,1,2,0,2,0,265.0500047000005,,,,,,,,,,,,265.0392152000004,265.0500047000005,265.95153370000025,265.0500047000005,265.0500047000005,269.08526989999973,f,1,4.033809500000643,None,left,13,[],0,gaze_L_13.png,f,1,2,pilot1,001,2026-04-02_15h17.39.436,mogelijke versie adaptive staircase builder,,2026.1.3,60.02851354364969,2026-04-02 15h17.39.531182 +0200,
17.5,ecc0,mid,3,0,3,f,1,1.7046573999996326,None,0,1,1,1,3,0,3,0,269.18731769999977,,,,,,,,,,,,269.17593579999993,269.18731769999977,270.08468809999977,269.18731769999977,269.18731769999977,270.90184599999975,f,1,1.7046573999996326,None,left,12,[],0,gaze_L_12.png,f,1,2,pilot1,001,2026-04-02_15h17.39.436,mogelijke versie adaptive staircase builder,,2026.1.3,60.02851354364969,2026-04-02 15h17.39.531182 +0200,
17.5,ecc0,mid,4,0,4,j,1,1.892071099999157,None,0,1,1,1,4,0,4,0,270.9998991000002,,,,,,,,,,,,270.98925080000026,270.9998991000002,271.9014262999999,270.9998991000002,270.9998991000002,272.9018667,j,1,1.892071099999157,None,direct,11,[],0,direct_gaze.png,j,1,2,pilot1,001,2026-04-02_15h17.39.436,mogelijke versie adaptive staircase builder,,2026.1.3,60.02851354364969,2026-04-02 15h17.39.531182 +0200,
17.5,ecc0,mid,5,0,5,f,0,2.3289024000005156,None,0,1,1,1,5,0,5,0,272.9949630000001,,,,,,,,,,,,272.98356520000016,272.9949630000001,273.9013836000004,272.9949630000001,272.9949630000001,275.3351579,f,0,2.3289024000005156,None,direct,10,[10],1,direct_gaze.png,f,0,2,pilot1,001,2026-04-02_15h17.39.436,mogelijke versie adaptive staircase builder,,2026.1.3,60.02851354364969,2026-04-02 15h17.39.531182 +0200,
17.5,ecc0,mid,6,0,6,f,1,2.3227540999996563,None,0,1,1,1,6,0,6,0,275.4332169999998,,,,,,,,,,,,275.4224333000002,275.4332169999998,276.3344611000002,275.4332169999998,275.4332169999998,277.76846380000006,f,1,2.3227540999996563,None,right,11,[10],1,gaze_R_11.png,f,1,2,pilot1,001,2026-04-02_15h17.39.436,mogelijke versie adaptive staircase builder,,2026.1.3,60.02851354364969,2026-04-02 15h17.39.531182 +0200,
17.5,ecc0,mid,7,0,7,j,1,2.7523387999999613,None,0,1,1,1,7,0,7,0,277.85949080000046,,,,,,,,,,,,277.8491653000001,277.85949080000046,278.76799409999967,277.85949080000046,277.85949080000046,280.61822289999964,j,1,2.7523387999999613,None,direct,11,"[10, 11]",2,direct_gaze.png,j,1,2,pilot1,001,2026-04-02_15h17.39.436,mogelijke versie adaptive staircase builder,,2026.1.3,60.02851354364969,2026-04-02 15h17.39.531182 +0200,
17.5,ecc0,mid,8,0,8,f,1,2.2305803999997806,None,0,1,1,1,8,0,8,0,280.71722339999997,,,,,,,,,,,,280.70599589999983,280.71722339999997,281.6178976000001,280.71722339999997,280.71722339999997,282.9518278000005,f,1,2.2305803999997806,None,right,10,"[10, 11]",2,gaze_R_10.png,f,1,2,pilot1,001,2026-04-02_15h17.39.436,mogelijke versie adaptive staircase builder,,2026.1.3,60.02851354364969,2026-04-02 15h17.39.531182 +0200,
17.5,ecc0,mid,9,0,9,f,1,2.4543438999999125,None,0,1,1,1,9,0,9,0,283.04540610000004,,,,,,,,,,,,283.03437850000046,283.04540610000004,283.9513026000004,283.04540610000004,283.04540610000004,285.50168610000037,f,1,2.4543438999999125,None,right,10,"[10, 11]",2,gaze_R_10.png,f,1,2,pilot1,001,2026-04-02_15h17.39.436,mogelijke versie adaptive staircase builder,,2026.1.3,60.02851354364969,2026-04-02 15h17.39.531182 +0200,
17.5,ecc0,mid,10,0,10,f,1,2.690489699999489,None,0,1,1,1,10,0,10,0,285.60951250000016,,,,,,,,,,,,285.5988960000004,285.60951250000016,286.50105840000015,285.60951250000016,285.60951250000016,288.3016697000003,f,1,2.690489699999489,None,right,9,"[10, 11]",2,gaze_R_9.png,f,1,2,pilot1,001,2026-04-02_15h17.39.436,mogelijke versie adaptive staircase builder,,2026.1.3,60.02851354364969,2026-04-02 15h17.39.531182 +0200,
17.5,ecc0,mid,11,0,11,j,0,2.401612099999511,None,0,1,1,1,11,0,11,0,288.41018669999994,,,,,,,,,,,,288.39996189999965,288.41018669999994,289.30124570000044,288.41018669999994,288.41018669999994,290.8180218999996,j,0,2.401612099999511,None,left,9,"[10, 11, 9]",3,gaze_L_9.png,j,0,2,pilot1,001,2026-04-02_15h17.39.436,mogelijke versie adaptive staircase builder,,2026.1.3,60.02851354364969,2026-04-02 15h17.39.531182 +0200,
17.5,ecc0,mid,12,0,12,j,1,1.927610600000662,None,0,1,1,1,12,0,12,0,290.90824580000026,,,,,,,,,,,,290.89739069999996,290.90824580000026,291.81784739999966,290.90824580000026,290.90824580000026,292.8518780000004,j,1,1.927610600000662,None,direct,10,"[10, 11, 9]",3,direct_gaze.png,j,1,2,pilot1,001,2026-04-02_15h17.39.436,mogelijke versie adaptive staircase builder,,2026.1.3,60.02851354364969,2026-04-02 15h17.39.531182 +0200,
17.5,ecc0,mid,13,0,13,j,1,2.0745317999999315,None,0,1,1,1,13,0,13,0,292.9453486000002,,,,,,,,,,,,292.9336709999998,292.9453486000002,293.8677338999996,292.9453486000002,292.9453486000002,295.0348419000002,j,1,2.0745317999999315,None,direct,10,"[10, 11, 9, 10]",4,direct_gaze.png,j,1,2,pilot1,001,2026-04-02_15h17.39.436,mogelijke versie adaptive staircase builder,,2026.1.3,60.02851354364969,2026-04-02 15h17.39.531182 +0200,
17.5,ecc0,mid,14,0,14,j,1,3.3248773999994228,None,0,1,1,1,14,0,14,0,295.1268220000002,,,,,,,,,,,,295.1161297999997,295.1268220000002,296.0342891,295.1268220000002,295.1268220000002,298.4681375,j,1,3.3248773999994228,None,direct,9,"[10, 11, 9, 10]",4,direct_gaze.png,j,1,2,pilot1,001,2026-04-02_15h17.39.436,mogelijke versie adaptive staircase builder,,2026.1.3,60.02851354364969,2026-04-02 15h17.39.531182 +0200,
17.5,ecc0,mid,15,0,15,f,1,2.275497299999188,None,0,1,1,1,15,0,15,0,298.56839260000015,,,,,,,,,,,,298.5583867000005,298.56839260000015,299.4676816000001,298.56839260000015,298.56839260000015,300.8515376000005,f,1,2.275497299999188,None,right,9,"[10, 11, 9, 10]",4,gaze_R_9.png,f,1,2,pilot1,001,2026-04-02_15h17.39.436,mogelijke versie adaptive staircase builder,,2026.1.3,60.02851354364969,2026-04-02 15h17.39.531182 +0200,
17.5,ecc0,mid,16,0,16,j,0,1.8416331999997055,None,0,1,1,1,16,0,16,0,300.9622682999998,,,,,,,,,,,,300.9516486000002,300.9622682999998,301.85107770000013,300.9622682999998,300.9622682999998,302.8179404000002,j,0,1.8416331999997055,None,left,8,"[10, 11, 9, 10, 8]",5,gaze_L_8.png,j,0,2,pilot1,001,2026-04-02_15h17.39.436,mogelijke versie adaptive staircase builder,,2026.1.3,60.02851354364969,2026-04-02 15h17.39.531182 +0200,
17.5,ecc0,mid,17,0,17,j,1,2.6218683999995847,None,0,1,1,1,17,0,17,0,302.90991639999993,,,,,,,,,,,,302.8990160000003,302.90991639999993,303.8174564000001,302.90991639999993,302.90991639999993,305.5347720999998,j,1,2.6218683999995847,None,direct,9,"[10, 11, 9, 10, 8]",5,direct_gaze.png,j,1,2,pilot1,001,2026-04-02_15h17.39.436,mogelijke versie adaptive staircase builder,,2026.1.3,60.02851354364969,2026-04-02 15h17.39.531182 +0200,
17.5,ecc0,mid,18,0,18,f,0,2.890224899999339,None,0,1,1,1,18,0,18,0,305.62568699999974,,,,,,,,,,,,305.61557429999993,305.62568699999974,306.5343850999998,305.62568699999974,305.62568699999974,308.51803420000033,f,0,2.890224899999339,None,direct,9,"[10, 11, 9, 10, 8]",5,direct_gaze.png,f,0,2,pilot1,001,2026-04-02_15h17.39.436,mogelijke versie adaptive staircase builder,,2026.1.3,60.02851354364969,2026-04-02 15h17.39.531182 +0200,
17.5,ecc0,mid,19,0,19,j,0,3.595420099999501,None,0,1,1,1,19,0,19,0,308.61639319999995,,,,,,,,,,,,308.6055935000004,308.61639319999995,309.5175132000004,308.61639319999995,308.61639319999995,312.21788879999986,j,0,3.595420099999501,None,left,10,"[10, 11, 9, 10, 8]",5,gaze_L_10.png,j,0,2,pilot1,001,2026-04-02_15h17.39.436,mogelijke versie adaptive staircase builder,,2026.1.3,60.02851354364969,2026-04-02 15h17.39.531182 +0200,
17.5,ecc0,mid,20,0,20,f,1,2.326338300000316,None,0,1,1,1,20,0,20,0,312.30949770000007,,,,,,,,,,,,312.2988148000004,312.30949770000007,313.2174934000004,312.30949770000007,312.30949770000007,314.65100540000003,f,1,2.326338300000316,None,right,11,"[10, 11, 9, 10, 8]",5,gaze_R_11.png,f,1,2,pilot1,001,2026-04-02_15h17.39.436,mogelijke versie adaptive staircase builder,,2026.1.3,60.02851354364969,2026-04-02 15h17.39.531182 +0200,
17.5,ecc0,mid,21,0,21,f,0,2.749818499999492,None,0,1,1,1,21,0,21,0,314.7420374000003,,,,,,,,,,,,314.73130370000035,314.7420374000003,315.6507038,314.7420374000003,314.7420374000003,317.501295,f,0,2.749818499999492,None,direct,11,"[10, 11, 9, 10, 8]",5,direct_gaze.png,f,0,2,pilot1,001,2026-04-02_15h17.39.436,mogelijke versie adaptive staircase builder,,2026.1.3,60.02851354364969,2026-04-02 15h17.39.531182 +0200,
17.5,ecc0,mid,22,0,22,j,1,3.283382999999958,None,0,1,1,1,22,0,22,0,317.5924388000003,,,,,,,,,,,,317.58197459999974,317.5924388000003,318.5008436999997,317.5924388000003,317.5924388000003,320.88465050000013,j,1,3.283382999999958,None,direct,12,"[10, 11, 9, 10, 8]",5,direct_gaze.png,j,1,2,pilot1,001,2026-04-02_15h17.39.436,mogelijke versie adaptive staircase builder,,2026.1.3,60.02851354364969,2026-04-02 15h17.39.531182 +0200,
17.5,ecc0,mid,23,0,23,f,1,2.524116900000081,None,0,1,1,1,23,0,23,0,320.9840468000002,,,,,,,,,,,,320.97270110000045,320.9840468000002,321.90059889999975,320.9840468000002,320.9840468000002,323.5176571000002,f,1,2.524116900000081,None,right,12,"[10, 11, 9, 10, 8, 12]",6,gaze_R_12.png,f,1,2,pilot1,001,2026-04-02_15h17.39.436,mogelijke versie adaptive staircase builder,,2026.1.3,60.02851354364969,2026-04-02 15h17.39.531182 +0200,
17.5,ecc0,mid,24,0,24,j,1,2.8996533999998064,None,0,1,1,1,24,0,24,0,323.60844929999985,,,,,,,,,,,,323.5981324000004,323.60844929999985,324.5173332000004,323.60844929999985,323.60844929999985,326.5177282000004,j,1,2.8996533999998064,None,direct,11,"[10, 11, 9, 10, 8, 12]",6,direct_gaze.png,j,1,2,pilot1,001,2026-04-02_15h17.39.436,mogelijke versie adaptive staircase builder,,2026.1.3,60.02851354364969,2026-04-02 15h17.39.531182 +0200,
17.5,ecc0,mid,25,0,25,j,1,3.1223343000001478,None,0,1,1,1,25,0,25,0,326.6095600999997,,,,,,,,,,,,326.59866630000033,326.6095600999997,327.5172617999997,326.6095600999997,326.6095600999997,329.73428010000043,j,1,3.1223343000001478,None,direct,11,"[10, 11, 9, 10, 8, 12]",6,direct_gaze.png,j,1,2,pilot1,001,2026-04-02_15h17.39.436,mogelijke versie adaptive staircase builder,,2026.1.3,60.02851354364969,2026-04-02 15h17.39.531182 +0200,
17.5,ecc0,mid,26,0,26,f,1,3.2185176000002684,None,0,1,1,1,26,0,26,0,329.8253289000004,,,,,,,,,,,,329.81443880000006,329.8253289000004,330.73400330000004,329.8253289000004,329.8253289000004,333.05091319999974,f,1,3.2185176000002684,None,left,10,"[10, 11, 9, 10, 8, 12]",6,gaze_L_10.png,f,1,2,pilot1,001,2026-04-02_15h17.39.436,mogelijke versie adaptive staircase builder,,2026.1.3,60.02851354364969,2026-04-02 15h17.39.531182 +0200,
17.5,ecc0,mid,27,0,27,j,0,2.8460156999999526,None,0,1,1,1,27,0,27,0,333.1417899999997,,,,,,,,,,,,333.13130379999984,333.1417899999997,334.0505266,333.1417899999997,333.1417899999997,336.00102760000027,j,0,2.8460156999999526,None,left,10,"[10, 11, 9, 10, 8, 12, 10]",7,gaze_L_10.png,j,0,2,pilot1,001,2026-04-02_15h17.39.436,mogelijke versie adaptive staircase builder,,2026.1.3,60.02851354364969,2026-04-02 15h17.39.531182 +0200,
17.5,ecc0,mid,28,0,28,j,1,2.5831778000001577,None,0,1,1,1,28,0,28,0,336.0926949000004,,,,,,,,,,,,336.0817374999997,336.0926949000004,337.0003979000003,336.0926949000004,336.0926949000004,338.6843574000004,j,1,2.5831778000001577,None,direct,11,"[10, 11, 9, 10, 8, 12, 10]",7,direct_gaze.png,j,1,2,pilot1,001,2026-04-02_15h17.39.436,mogelijke versie adaptive staircase builder,,2026.1.3,60.02851354364969,2026-04-02 15h17.39.531182 +0200,
17.5,ecc0,mid,29,0,29,f,0,3.5665710000002946,None,0,1,1,1,29,0,29,0,338.7745895999997,,,,,,,,,,,,338.7643465000001,338.7745895999997,339.68385300000045,338.7745895999997,338.7745895999997,342.3508271999999,f,0,3.5665710000002946,None,direct,11,"[10, 11, 9, 10, 8, 12, 10]",7,direct_gaze.png,f,0,2,pilot1,001,2026-04-02_15h17.39.436,mogelijke versie adaptive staircase builder,,2026.1.3,60.02851354364969,2026-04-02 15h17.39.531182 +0200,
17.5,ecc0,mid,30,0,30,f,1,2.8963651000003665,None,0,1,1,1,30,0,30,0,342.4435814999997,,,,,,,,,,,,342.4325388999996,342.4435814999997,343.35041439999986,342.4435814999997,342.4435814999997,345.35091379999994,f,1,2.8963651000003665,None,left,12,"[10, 11, 9, 10, 8, 12, 10]",7,gaze_L_12.png,f,1,2,pilot1,001,2026-04-02_15h17.39.436,mogelijke versie adaptive staircase builder,,2026.1.3,60.02851354364969,2026-04-02 15h17.39.531182 +0200,
17.5,ecc0,mid,31,0,31,f,0,2.057006900000488,None,0,1,1,1,31,0,31,0,345.4430607000004,,,,,,,,,,,,345.4317936999996,345.4430607000004,346.35050409999985,345.4430607000004,345.4430607000004,347.5006559000003,f,0,2.057006900000488,None,direct,12,"[10, 11, 9, 10, 8, 12, 10]",7,direct_gaze.png,f,0,2,pilot1,001,2026-04-02_15h17.39.436,mogelijke versie adaptive staircase builder,,2026.1.3,60.02851354364969,2026-04-02 15h17.39.531182 +0200,
17.5,ecc0,mid,32,0,32,j,1,1.7170998000001418,None,0,1,1,1,32,0,32,0,347.59103680000044,,,,,,,,,,,,347.5802604999999,347.59103680000044,348.5002927000005,347.59103680000044,347.59103680000044,349.3174439000004,j,1,1.7170998000001418,None,direct,13,"[10, 11, 9, 10, 8, 12, 10]",7,direct_gaze.png,j,1,2,pilot1,001,2026-04-02_15h17.39.436,mogelijke versie adaptive staircase builder,,2026.1.3,60.02851354364969,2026-04-02 15h17.39.531182 +0200,
17.5,ecc0,mid,33,0,33,f,1,1.9321317000003546,None,0,1,1,1,33,0,33,0,349.40923509999993,,,,,,,,,,,,349.39825350000046,349.40923509999993,350.3169237000002,349.40923509999993,349.40923509999993,351.3507679000004,f,1,1.9321317000003546,None,left,13,"[10, 11, 9, 10, 8, 12, 10, 13]",8,gaze_L_13.png,f,1,2,pilot1,001,2026-04-02_15h17.39.436,mogelijke versie adaptive staircase builder,,2026.1.3,60.02851354364969,2026-04-02 15h17.39.531182 +0200,
17.5,ecc0,mid,34,0,34,j,1,1.8995628000002398,None,0,1,1,1,34,0,34,0,351.44159670000045,,,,,,,,,,,,351.43131919999996,351.44159670000045,352.3501444000003,351.44159670000045,351.44159670000045,353.35059770000043,j,1,1.8995628000002398,None,direct,12,"[10, 11, 9, 10, 8, 12, 10, 13]",8,direct_gaze.png,j,1,2,pilot1,001,2026-04-02_15h17.39.436,mogelijke versie adaptive staircase builder,,2026.1.3,60.02851354364969,2026-04-02 15h17.39.531182 +0200,
17.5,ecc0,mid,35,0,35,f,1,2.9855789000002915,None,0,1,1,1,35,0,35,0,353.44224659999963,,,,,,,,,,,,353.43138739999995,353.44224659999963,354.35010710000006,353.44224659999963,353.44224659999963,356.4340480000001,f,1,2.9855789000002915,None,left,12,"[10, 11, 9, 10, 8, 12, 10, 13]",8,gaze_L_12.png,f,1,2,pilot1,001,2026-04-02_15h17.39.436,mogelijke versie adaptive staircase builder,,2026.1.3,60.02851354364969,2026-04-02 15h17.39.531182 +0200,
17.5,ecc0,mid,36,0,36,f,1,2.6668165999999474,None,0,1,1,1,36,0,36,0,356.5371133999997,,,,,,,,,,,,356.52410280000004,356.5371133999997,357.4336123000003,356.5371133999997,356.5371133999997,359.2173952000003,f,1,2.6668165999999474,None,left,11,"[10, 11, 9, 10, 8, 12, 10, 13]",8,gaze_L_11.png,f,1,2,pilot1,001,2026-04-02_15h17.39.436,mogelijke versie adaptive staircase builder,,2026.1.3,60.02851354364969,2026-04-02 15h17.39.531182 +0200,
17.5,ecc0,mid,37,0,37,j,1,2.606885500000317,None,0,1,1,1,37,0,37,0,359.3089270999999,,,,,,,,,,,,359.29818650000016,359.3089270999999,360.2170046000001,359.3089270999999,359.3089270999999,361.9171422999998,j,1,2.606885500000317,None,direct,11,"[10, 11, 9, 10, 8, 12, 10, 13]",8,direct_gaze.png,j,1,2,pilot1,001,2026-04-02_15h17.39.436,mogelijke versie adaptive staircase builder,,2026.1.3,60.02851354364969,2026-04-02 15h17.39.531182 +0200,
17.5,ecc0,mid,38,0,38,f,1,3.7929917999999816,None,0,1,1,1,38,0,38,0,362.0108796000004,,,,,,,,,,,,362.0005422000004,362.0108796000004,362.9167653000004,362.0108796000004,362.0108796000004,365.81705690000035,f,1,3.7929917999999816,None,right,10,"[10, 11, 9, 10, 8, 12, 10, 13]",8,gaze_R_10.png,f,1,2,pilot1,001,2026-04-02_15h17.39.436,mogelijke versie adaptive staircase builder,,2026.1.3,60.02851354364969,2026-04-02 15h17.39.531182 +0200,
17.5,ecc0,mid,39,0,39,f,1,2.4920877999993536,None,0,1,1,1,39,0,39,0,365.9117607999997,,,,,,,,,,,,365.8989811000001,365.9117607999997,366.8166581000005,365.9117607999997,365.9117607999997,368.41724609999983,f,1,2.4920877999993536,None,left,10,"[10, 11, 9, 10, 8, 12, 10, 13]",8,gaze_L_10.png,f,1,2,pilot1,001,2026-04-02_15h17.39.436,mogelijke versie adaptive staircase builder,,2026.1.3,60.02851354364969,2026-04-02 15h17.39.531182 +0200,
17.5,ecc0,mid,40,0,40,f,1,3.6532663999996657,None,0,1,1,1,40,0,40,0,368.51065130000006,,,,,,,,,,,,368.4996968000005,368.51065130000006,369.41687790000015,368.51065130000006,368.51065130000006,372.1671458999999,f,1,3.6532663999996657,None,left,9,"[10, 11, 9, 10, 8, 12, 10, 13]",8,gaze_L_9.png,f,1,2,pilot1,001,2026-04-02_15h17.39.436,mogelijke versie adaptive staircase builder,,2026.1.3,60.02851354364969,2026-04-02 15h17.39.531182 +0200,
17.5,ecc0,mid,41,0,41,f,1,2.3010851999997612,None,0,1,1,1,41,0,41,0,372.2709130000003,,,,,,,,,,,,372.25797200000034,372.2709130000003,373.16678690000026,372.2709130000003,372.2709130000003,374.5835436999996,f,1,2.3010851999997612,None,right,9,"[10, 11, 9, 10, 8, 12, 10, 13]",8,gaze_R_9.png,f,1,2,pilot1,001,2026-04-02_15h17.39.436,mogelijke versie adaptive staircase builder,,2026.1.3,60.02851354364969,2026-04-02 15h17.39.531182 +0200,
17.5,ecc0,mid,42,0,42,f,1,2.4397248000004765,None,0,1,1,1,42,0,42,0,374.69217709999975,,,,,,,,,,,,374.6821835999999,374.69217709999975,375.5833674000005,374.69217709999975,374.69217709999975,377.13352680000025,f,1,2.4397248000004765,None,right,8,"[10, 11, 9, 10, 8, 12, 10, 13]",8,gaze_R_8.png,f,1,2,pilot1,001,2026-04-02_15h17.39.436,mogelijke versie adaptive staircase builder,,2026.1.3,60.02851354364969,2026-04-02 15h17.39.531182 +0200,
17.5,ecc0,mid,43,0,43,j,1,2.9161318999995274,None,0,1,1,1,43,0,43,0,377.22511029999987,,,,,,,,,,,,377.2140510999998,377.22511029999987,378.1333089,377.22511029999987,377.22511029999987,380.15019699999993,j,1,2.9161318999995274,None,direct,8,"[10, 11, 9, 10, 8, 12, 10, 13]",8,direct_gaze.png,j,1,2,pilot1,001,2026-04-02_15h17.39.436,mogelijke versie adaptive staircase builder,,2026.1.3,60.02851354364969,2026-04-02 15h17.39.531182 +0200,
17.5,ecc0,mid,44,0,44,f,1,2.5157000999997763,None,0,1,1,1,44,0,44,0,380.2482293000003,,,,,,,,,,,,380.23816929999975,380.2482293000003,381.14992340000026,380.2482293000003,380.2482293000003,382.7669896999996,f,1,2.5157000999997763,None,left,7,"[10, 11, 9, 10, 8, 12, 10, 13]",8,gaze_L_7.png,f,1,2,pilot1,001,2026-04-02_15h17.39.436,mogelijke versie adaptive staircase builder,,2026.1.3,60.02851354364969,2026-04-02 15h17.39.531182 +0200,
17.5,ecc0,mid,45,0,45,j,0,2.458317600000555,None,0,1,1,1,45,0,45,0,382.85753980000027,,,,,,,,,,,,382.8467154,382.85753980000027,383.7665560000005,382.85753980000027,382.85753980000027,385.31714999999986,j,0,2.458317600000555,None,left,7,"[10, 11, 9, 10, 8, 12, 10, 13, 7]",9,gaze_L_7.png,j,0,2,pilot1,001,2026-04-02_15h17.39.436,mogelijke versie adaptive staircase builder,,2026.1.3,60.02851354364969,2026-04-02 15h17.39.531182 +0200,
17.5,ecc0,mid,46,0,46,j,1,2.1665170000005674,None,0,1,1,1,46,0,46,0,385.4133995000002,,,,,,,,,,,,385.4019392,385.4133995000002,386.3331960000005,385.4133995000002,385.4133995000002,387.5835993999999,j,1,2.1665170000005674,None,direct,8,"[10, 11, 9, 10, 8, 12, 10, 13, 7]",9,direct_gaze.png,j,1,2,pilot1,001,2026-04-02_15h17.39.436,mogelijke versie adaptive staircase builder,,2026.1.3,60.02851354364969,2026-04-02 15h17.39.531182 +0200,
17.5,ecc0,mid,47,0,47,f,1,2.3697115000004487,None,0,1,1,1,47,0,47,0,387.6741565000002,,,,,,,,,,,,387.6632712999999,387.6741565000002,388.58309370000006,387.6741565000002,387.6741565000002,390.0502112000004,f,1,2.3697115000004487,None,right,8,"[10, 11, 9, 10, 8, 12, 10, 13, 7, 8]",10,gaze_R_8.png,f,1,2,pilot1,001,2026-04-02_15h17.39.436,mogelijke versie adaptive staircase builder,,2026.1.3,60.02851354364969,2026-04-02 15h17.39.531182 +0200,
17.5,ecc0,mid,48,0,48,f,1,3.0072485999999117,None,0,1,1,1,48,0,48,0,390.1486408999999,,,,,,,,,,,,390.13785610000014,390.1486408999999,391.04981430000043,390.1486408999999,390.1486408999999,393.1671438000003,f,1,3.0072485999999117,None,right,7,"[10, 11, 9, 10, 8, 12, 10, 13, 7, 8]",10,gaze_R_7.png,f,1,2,pilot1,001,2026-04-02_15h17.39.436,mogelijke versie adaptive staircase builder,,2026.1.3,60.02851354364969,2026-04-02 15h17.39.531182 +0200,
17.5,ecc0,mid,49,0,49,f,1,2.4823857000001226,None,0,1,1,1,49,0,49,0,393.2591513999996,,,,,,,,,,,,393.2474312000004,393.2591513999996,394.1831209000002,393.2591513999996,393.2591513999996,395.75015390000044,f,1,2.4823857000001226,None,right,7,"[10, 11, 9, 10, 8, 12, 10, 13, 7, 8]",10,gaze_R_7.png,f,1,2,pilot1,001,2026-04-02_15h17.39.436,mogelijke versie adaptive staircase builder,,2026.1.3,60.02851354364969,2026-04-02 15h17.39.531182 +0200,
17.5,ecc0,mid,1,1,0,,,,,0,1,1,1,,,,,,,,,,,,,,,,,,,,,,,,,,,,,,,,,,,pilot1,001,2026-04-02_15h17.39.436,mogelijke versie adaptive staircase builder,,2026.1.3,60.02851354364969,2026-04-02 15h17.39.531182 +0200,
5.9,ecc10neg,right,0,0,0,j,0,1.9539831000001868,None,0,2,2,2,0,0,0,0,395.8499423000003,,,,,,,,,,395.7523920000003,395.7524381000003,395.8399079999999,395.8499423000003,395.8499423000003,396.7662196000001,395.8499423000003,397.81678160000047,j,0,1.9539831000001868,None,left,15,[],0,shiftedgaze_L_15.png,j,0,3,pilot1,001,2026-04-02_15h17.39.436,mogelijke versie adaptive staircase builder,,2026.1.3,60.02851354364969,2026-04-02 15h17.39.531182 +0200,
5.9,ecc10neg,right,1,0,1,f,0,2.191931499999555,None,0,2,2,2,1,0,1,0,397.9160388,,,,,,,,,,,,397.9047473999999,397.9160388,397.9160388,398.8163211000001,397.9160388,400.1167267999999,f,0,2.191931499999555,None,direct,15,[],0,shifteddirectgaze.png,f,0,3,pilot1,001,2026-04-02_15h17.39.436,mogelijke versie adaptive staircase builder,,2026.1.3,60.02851354364969,2026-04-02 15h17.39.531182 +0200,
5.9,ecc10neg,right,2,0,2,j,0,2.427708100000018,None,0,2,2,2,2,0,2,0,400.20809499999996,,,,,,,,,,,,400.1979124999998,400.20809499999996,400.20809499999996,401.11646780000046,400.20809499999996,402.6500699999997,j,0,2.427708100000018,None,left,15,[],0,shiftedgaze_L_15.png,j,0,3,pilot1,001,2026-04-02_15h17.39.436,mogelijke versie adaptive staircase builder,,2026.1.3,60.02851354364969,2026-04-02 15h17.39.531182 +0200,
5.9,ecc10neg,right,3,0,3,j,0,1.7576703999993697,None,0,2,2,2,3,0,3,0,402.74259600000005,,,,,,,,,,,,402.7318527999996,402.74259600000005,402.74259600000005,403.64943980000044,402.74259600000005,404.51664379999966,j,0,1.7576703999993697,None,left,15,[],0,shiftedgaze_L_15.png,j,0,3,pilot1,001,2026-04-02_15h17.39.436,mogelijke versie adaptive staircase builder,,2026.1.3,60.02851354364969,2026-04-02 15h17.39.531182 +0200,
5.9,ecc10neg,right,4,0,4,j,0,1.6816022000002704,None,0,2,2,2,4,0,4,0,404.61020629999985,,,,,,,,,,,,404.5983395000003,404.61020629999985,404.61020629999985,405.51621969999997,404.61020629999985,406.3000616999998,j,0,1.6816022000002704,None,left,15,[],0,shiftedgaze_L_15.png,j,0,3,pilot1,001,2026-04-02_15h17.39.436,mogelijke versie adaptive staircase builder,,2026.1.3,60.02851354364969,2026-04-02 15h17.39.531182 +0200,
5.9,ecc10neg,right,5,0,5,j,0,1.970243699999628,None,0,2,2,2,5,0,5,0,406.3936541000003,,,,,,,,,,,,406.38219730000037,406.3936541000003,406.3936541000003,407.29959979999967,406.3936541000003,408.3667346000002,j,0,1.970243699999628,None,left,15,[],0,shiftedgaze_L_15.png,j,0,3,pilot1,001,2026-04-02_15h17.39.436,mogelijke versie adaptive staircase builder,,2026.1.3,60.02851354364969,2026-04-02 15h17.39.531182 +0200,
5.9,ecc10neg,right,6,0,6,j,0,1.6263939000000391,None,0,2,2,2,6,0,6,0,408.4574819999998,,,,,,,,,,,,408.44722230000025,408.4574819999998,408.4574819999998,409.36618819999967,408.4574819999998,410.10008500000004,j,0,1.6263939000000391,None,left,15,[],0,shiftedgaze_L_15.png,j,0,3,pilot1,001,2026-04-02_15h17.39.436,mogelijke versie adaptive staircase builder,,2026.1.3,60.02851354364969,2026-04-02 15h17.39.531182 +0200,
5.9,ecc10neg,right,7,0,7,f,1,1.874757700000373,None,0,2,2,2,7,0,7,0,410.2009699,,,,,,,,,,,,410.18944360000023,410.2009699,410.2009699,411.09938630000033,410.2009699,412.08321479999995,f,1,1.874757700000373,None,right,15,[15],1,shiftedgaze_R_15.png,f,1,3,pilot1,001,2026-04-02_15h17.39.436,mogelijke versie adaptive staircase builder,,2026.1.3,60.02851354364969,2026-04-02 15h17.39.531182 +0200,
5.9,ecc10neg,right,8,0,8,f,1,2.1089060000003883,None,0,2,2,2,8,0,8,0,412.1828757000003,,,,,,,,,,,,412.17283359999965,412.1828757000003,412.1828757000003,413.08255139999983,412.1828757000003,414.29993360000026,f,1,2.1089060000003883,None,right,14,[15],1,shiftedgaze_R_14.png,f,1,3,pilot1,001,2026-04-02_15h17.39.436,mogelijke versie adaptive staircase builder,,2026.1.3,60.02851354364969,2026-04-02 15h17.39.531182 +0200,
5.9,ecc10neg,right,9,0,9,f,1,1.5247889000002033,None,0,2,2,2,9,0,9,0,414.3911355,,,,,,,,,,,,414.3799361000001,414.3911355,414.3911355,415.29926539999997,414.3911355,415.9164173999998,f,1,1.5247889000002033,None,right,14,[15],1,shiftedgaze_R_14.png,f,1,3,pilot1,001,2026-04-02_15h17.39.436,mogelijke versie adaptive staircase builder,,2026.1.3,60.02851354364969,2026-04-02 15h17.39.531182 +0200,
5.9,ecc10neg,right,10,0,10,f,0,1.539732900000672,None,0,2,2,2,10,0,10,0,416.00806040000043,,,,,,,,,,,,415.9974508000005,416.00806040000043,416.00806040000043,416.9160429000003,416.00806040000043,417.54985510000006,f,0,1.539732900000672,None,direct,13,"[15, 13]",2,shifteddirectgaze.png,f,0,3,pilot1,001,2026-04-02_15h17.39.436,mogelijke versie adaptive staircase builder,,2026.1.3,60.02851354364969,2026-04-02 15h17.39.531182 +0200,
5.9,ecc10neg,right,11,0,11,f,0,2.008105500000056,None,0,2,2,2,11,0,11,0,417.6437031000005,,,,,,,,,,,,417.63238699999965,417.6437031000005,417.6437031000005,418.5494477000002,417.6437031000005,419.6664215999999,f,0,2.008105500000056,None,direct,14,"[15, 13]",2,shifteddirectgaze.png,f,0,3,pilot1,001,2026-04-02_15h17.39.436,mogelijke versie adaptive staircase builder,,2026.1.3,60.02851354364969,2026-04-02 15h17.39.531182 +0200,
5.9,ecc10neg,right,12,0,12,f,0,1.5899668000001839,None,0,2,2,2,12,0,12,0,419.7578407000001,,,,,,,,,,,,419.74688609999976,419.7578407000001,419.7578407000001,420.6660462,419.7578407000001,421.3497858999999,f,0,1.5899668000001839,None,direct,15,"[15, 13]",2,shifteddirectgaze.png,f,0,3,pilot1,001,2026-04-02_15h17.39.436,mogelijke versie adaptive staircase builder,,2026.1.3,60.02851354364969,2026-04-02 15h17.39.531182 +0200,
5.9,ecc10neg,right,13,0,13,j,0,1.8911523999995552,None,0,2,2,2,13,0,13,0,421.44080810000014,,,,,,,,,,,,421.4303667000004,421.44080810000014,421.44080810000014,422.3493507000003,421.44080810000014,423.3333300000004,j,0,1.8911523999995552,None,left,15,"[15, 13]",2,shiftedgaze_L_15.png,j,0,3,pilot1,001,2026-04-02_15h17.39.436,mogelijke versie adaptive staircase builder,,2026.1.3,60.02851354364969,2026-04-02 15h17.39.531182 +0200,
5.9,ecc10neg,right,14,0,14,j,0,1.5344220999995741,None,0,2,2,2,14,0,14,0,423.42943040000046,,,,,,,,,,,,423.4186190999999,423.42943040000046,423.42943040000046,424.3493602999997,423.42943040000046,424.96660669999983,j,0,1.5344220999995741,None,left,15,"[15, 13]",2,shiftedgaze_L_15.png,j,0,3,pilot1,001,2026-04-02_15h17.39.436,mogelijke versie adaptive staircase builder,,2026.1.3,60.02851354364969,2026-04-02 15h17.39.531182 +0200,
5.9,ecc10neg,right,15,0,15,j,0,1.640025699999569,None,0,2,2,2,15,0,15,0,425.0598170000003,,,,,,,,,,,,425.0481301,425.0598170000003,425.0598170000003,425.9659201000004,425.0598170000003,426.71632969999973,j,0,1.640025699999569,None,left,15,"[15, 13]",2,shiftedgaze_L_15.png,j,0,3,pilot1,001,2026-04-02_15h17.39.436,mogelijke versie adaptive staircase builder,,2026.1.3,60.02851354364969,2026-04-02 15h17.39.531182 +0200,
5.9,ecc10neg,right,16,0,16,f,0,2.036411100000805,None,0,2,2,2,16,0,16,0,426.8075090000002,,,,,,,,,,,,426.7973482999996,426.8075090000002,426.8075090000002,427.71583929999997,426.8075090000002,428.8496906999999,f,0,2.036411100000805,None,direct,15,"[15, 13]",2,shifteddirectgaze.png,f,0,3,pilot1,001,2026-04-02_15h17.39.436,mogelijke versie adaptive staircase builder,,2026.1.3,60.02851354364969,2026-04-02 15h17.39.531182 +0200,
5.9,ecc10neg,right,17,0,17,j,0,1.6046636999999464,None,0,2,2,2,17,0,17,0,428.94340009999996,,,,,,,,,,,,428.93233229999987,428.94340009999996,428.94340009999996,429.8492862000003,428.94340009999996,430.5497992999999,j,0,1.6046636999999464,None,left,15,"[15, 13]",2,shiftedgaze_L_15.png,j,0,3,pilot1,001,2026-04-02_15h17.39.436,mogelijke versie adaptive staircase builder,,2026.1.3,60.02851354364969,2026-04-02 15h17.39.531182 +0200,
5.9,ecc10neg,right,18,0,18,f,0,1.881666199999927,None,0,2,2,2,18,0,18,0,430.6420971999996,,,,,,,,,,,,430.6317326999997,430.6420971999996,430.6420971999996,431.54922950000037,430.6420971999996,432.5328933999999,f,0,1.881666199999927,None,direct,15,"[15, 13]",2,shifteddirectgaze.png,f,0,3,pilot1,001,2026-04-02_15h17.39.436,mogelijke versie adaptive staircase builder,,2026.1.3,60.02851354364969,2026-04-02 15h17.39.531182 +0200,
5.9,ecc10neg,right,19,0,19,f,1,1.5075322000002416,None,0,2,2,2,19,0,19,0,432.6243158999996,,,,,,,,,,,,432.61402240000007,432.6243158999996,432.6243158999996,433.5322586000002,432.6243158999996,434.1331792000001,f,1,1.5075322000002416,None,right,15,"[15, 13]",2,shiftedgaze_R_15.png,f,1,3,pilot1,001,2026-04-02_15h17.39.436,mogelijke versie adaptive staircase builder,,2026.1.3,60.02851354364969,2026-04-02 15h17.39.531182 +0200,
5.9,ecc10neg,right,20,0,20,j,0,2.210639299999457,None,0,2,2,2,20,0,20,0,434.2253535,,,,,,,,,,,,434.2142945000005,434.2253535,434.2253535,435.1325568000002,434.2253535,436.4496758000005,j,0,2.210639299999457,None,left,15,"[15, 13]",2,shiftedgaze_L_15.png,j,0,3,pilot1,001,2026-04-02_15h17.39.436,mogelijke versie adaptive staircase builder,,2026.1.3,60.02851354364969,2026-04-02 15h17.39.531182 +0200,
5.9,ecc10neg,right,21,0,21,f,0,1.8071874999995998,None,0,2,2,2,21,0,21,0,436.5407863999999,,,,,,,,,,,,436.53016000000025,436.5407863999999,436.5407863999999,437.44926750000013,436.5407863999999,438.3496315000002,f,0,1.8071874999995998,None,direct,15,"[15, 13]",2,shifteddirectgaze.png,f,0,3,pilot1,001,2026-04-02_15h17.39.436,mogelijke versie adaptive staircase builder,,2026.1.3,60.02851354364969,2026-04-02 15h17.39.531182 +0200,
5.9,ecc10neg,right,22,0,22,f,0,1.6186514999999417,None,0,2,2,2,22,0,22,0,438.44116080000003,,,,,,,,,,,,438.4305454000005,438.44116080000003,438.44116080000003,439.3491987999996,438.44116080000003,440.06618249999974,f,0,1.6186514999999417,None,direct,15,"[15, 13]",2,shifteddirectgaze.png,f,0,3,pilot1,001,2026-04-02_15h17.39.436,mogelijke versie adaptive staircase builder,,2026.1.3,60.02851354364969,2026-04-02 15h17.39.531182 +0200,
5.9,ecc10neg,right,23,0,23,f,0,1.5099933999999848,None,0,2,2,2,23,0,23,0,440.1578252999998,,,,,,,,,,,,440.1466733999996,440.1578252999998,440.1578252999998,441.0656405999998,440.1578252999998,441.68264309999995,f,0,1.5099933999999848,None,direct,15,"[15, 13]",2,shifteddirectgaze.png,f,0,3,pilot1,001,2026-04-02_15h17.39.436,mogelijke versie adaptive staircase builder,,2026.1.3,60.02851354364969,2026-04-02 15h17.39.531182 +0200,
5.9,ecc10neg,right,24,0,24,f,1,1.5420776999999362,None,0,2,2,2,24,0,24,0,441.7740952000004,,,,,,,,,,,,441.7635124999997,441.7740952000004,441.7740952000004,442.6824309000003,441.7740952000004,443.33282729999974,f,1,1.5420776999999362,None,right,15,"[15, 13]",2,shiftedgaze_R_15.png,f,1,3,pilot1,001,2026-04-02_15h17.39.436,mogelijke versie adaptive staircase builder,,2026.1.3,60.02851354364969,2026-04-02 15h17.39.531182 +0200,
5.9,ecc10neg,right,25,0,25,f,1,1.5449798999998166,None,0,2,2,2,25,0,25,0,443.42779020000035,,,,,,,,,,,,443.4147659,443.42779020000035,443.42779020000035,444.33227480000005,443.42779020000035,444.98289099999965,f,1,1.5449798999998166,None,right,15,"[15, 13, 15]",3,shiftedgaze_R_15.png,f,1,3,pilot1,001,2026-04-02_15h17.39.436,mogelijke versie adaptive staircase builder,,2026.1.3,60.02851354364969,2026-04-02 15h17.39.531182 +0200,
5.9,ecc10neg,right,26,0,26,f,0,1.3926753000005192,None,0,2,2,2,26,0,26,0,445.07521410000027,,,,,,,,,,,,445.0645459999996,445.07521410000027,445.07521410000027,445.9821671999998,445.07521410000027,446.48269210000035,f,0,1.3926753000005192,None,direct,14,"[15, 13, 15, 14]",4,shifteddirectgaze.png,f,0,3,pilot1,001,2026-04-02_15h17.39.436,mogelijke versie adaptive staircase builder,,2026.1.3,60.02851354364969,2026-04-02 15h17.39.531182 +0200,
5.9,ecc10neg,right,27,0,27,f,0,1.4382276000005731,None,0,2,2,2,27,0,27,0,446.57358769999973,,,,,,,,,,,,446.56297749999976,446.57358769999973,446.57358769999973,447.4821744000001,446.57358769999973,448.0158256000004,f,0,1.4382276000005731,None,direct,15,"[15, 13, 15, 14]",4,shifteddirectgaze.png,f,0,3,pilot1,001,2026-04-02_15h17.39.436,mogelijke versie adaptive staircase builder,,2026.1.3,60.02851354364969,2026-04-02 15h17.39.531182 +0200,
5.9,ecc10neg,right,28,0,28,f,0,1.4166857999998683,None,0,2,2,2,28,0,28,0,448.1081148000003,,,,,,,,,,,,448.0971658999997,448.1081148000003,448.1081148000003,449.0156900000002,448.1081148000003,449.53293029999986,f,0,1.4166857999998683,None,direct,15,"[15, 13, 15, 14]",4,shifteddirectgaze.png,f,0,3,pilot1,001,2026-04-02_15h17.39.436,mogelijke versie adaptive staircase builder,,2026.1.3,60.02851354364969,2026-04-02 15h17.39.531182 +0200,
5.9,ecc10neg,right,29,0,29,f,1,1.4505068999997093,None,0,2,2,2,29,0,29,0,449.62535949999983,,,,,,,,,,,,449.61473000000024,449.62535949999983,449.62535949999983,450.5322236000002,449.62535949999983,451.08234489999995,f,1,1.4505068999997093,None,right,15,"[15, 13, 15, 14]",4,shiftedgaze_R_15.png,f,1,3,pilot1,001,2026-04-02_15h17.39.436,mogelijke versie adaptive staircase builder,,2026.1.3,60.02851354364969,2026-04-02 15h17.39.531182 +0200,
5.9,ecc10neg,right,30,0,30,j,0,1.6374540000006164,None,0,2,2,2,30,0,30,0,451.1745173999998,,,,,,,,,,,,451.1634350000004,451.1745173999998,451.1745173999998,452.0823061000001,451.1745173999998,452.81589429999985,j,0,1.6374540000006164,None,left,15,"[15, 13, 15, 14]",4,shiftedgaze_L_15.png,j,0,3,pilot1,001,2026-04-02_15h17.39.436,mogelijke versie adaptive staircase builder,,2026.1.3,60.02851354364969,2026-04-02 15h17.39.531182 +0200,
5.9,ecc10neg,right,31,0,31,f,1,1.9420416999992085,None,0,2,2,2,31,0,31,0,452.9098270000004,,,,,,,,,,,,452.8991225,452.9098270000004,452.9098270000004,453.8154929000002,452.9098270000004,454.86571749999985,f,1,1.9420416999992085,None,right,15,"[15, 13, 15, 14]",4,shiftedgaze_R_15.png,f,1,3,pilot1,001,2026-04-02_15h17.39.436,mogelijke versie adaptive staircase builder,,2026.1.3,60.02851354364969,2026-04-02 15h17.39.531182 +0200,
5.9,ecc10neg,right,32,0,32,f,0,1.471164300000055,None,0,2,2,2,32,0,32,0,454.95673760000045,,,,,,,,,,,,454.9455955000003,454.95673760000045,454.95673760000045,455.8655077000003,454.95673760000045,456.4327831999999,f,0,1.471164300000055,None,direct,15,"[15, 13, 15, 14]",4,shifteddirectgaze.png,f,0,3,pilot1,001,2026-04-02_15h17.39.436,mogelijke versie adaptive staircase builder,,2026.1.3,60.02851354364969,2026-04-02 15h17.39.531182 +0200,
5.9,ecc10neg,right,33,0,33,j,0,1.4340406000001167,None,0,2,2,2,33,0,33,0,456.52323239999987,,,,,,,,,,,,456.5122074000001,456.52323239999987,456.52323239999987,457.43225880000045,456.52323239999987,457.96604970000044,j,0,1.4340406000001167,None,left,15,"[15, 13, 15, 14]",4,shiftedgaze_L_15.png,j,0,3,pilot1,001,2026-04-02_15h17.39.436,mogelijke versie adaptive staircase builder,,2026.1.3,60.02851354364969,2026-04-02 15h17.39.531182 +0200,
5.9,ecc10neg,right,34,0,34,f,1,1.5041161999997712,None,0,2,2,2,34,0,34,0,458.0598774,,,,,,,,,,,,458.0490024999999,458.0598774,458.0598774,458.96543589999965,458.0598774,459.5656939999999,f,1,1.5041161999997712,None,right,15,"[15, 13, 15, 14]",4,shiftedgaze_R_15.png,f,1,3,pilot1,001,2026-04-02_15h17.39.436,mogelijke versie adaptive staircase builder,,2026.1.3,60.02851354364969,2026-04-02 15h17.39.531182 +0200,
5.9,ecc10neg,right,35,0,35,f,1,1.5162516000000323,None,0,2,2,2,35,0,35,0,459.6565068,,,,,,,,,,,,459.64567869999973,459.6565068,459.6565068,460.5653978,459.6565068,461.18268350000017,f,1,1.5162516000000323,None,right,15,"[15, 13, 15, 14, 15]",5,shiftedgaze_R_15.png,f,1,3,pilot1,001,2026-04-02_15h17.39.436,mogelijke versie adaptive staircase builder,,2026.1.3,60.02851354364969,2026-04-02 15h17.39.531182 +0200,
5.9,ecc10neg,right,36,0,36,j,0,1.5764748999999938,None,0,2,2,2,36,0,36,0,461.2832926000001,,,,,,,,,,,,461.2721412000001,461.2832926000001,461.2832926000001,462.18191899999965,461.2832926000001,462.8655934999997,j,0,1.5764748999999938,None,left,14,"[15, 13, 15, 14, 15, 14]",6,shiftedgaze_L_14.png,j,0,3,pilot1,001,2026-04-02_15h17.39.436,mogelijke versie adaptive staircase builder,,2026.1.3,60.02851354364969,2026-04-02 15h17.39.531182 +0200,
5.9,ecc10neg,right,37,0,37,f,1,1.6511504999998579,None,0,2,2,2,37,0,37,0,462.9607335999999,,,,,,,,,,,,462.94780700000047,462.9607335999999,462.9607335999999,463.8654763000004,462.9607335999999,464.6160488000005,f,1,1.6511504999998579,None,right,15,"[15, 13, 15, 14, 15, 14]",6,shiftedgaze_R_15.png,f,1,3,pilot1,001,2026-04-02_15h17.39.436,mogelijke versie adaptive staircase builder,,2026.1.3,60.02851354364969,2026-04-02 15h17.39.531182 +0200,
5.9,ecc10neg,right,38,0,38,j,0,3.4226640999995652,None,0,2,2,2,38,0,38,0,464.70961499999976,,,,,,,,,,,,464.69850469999983,464.70961499999976,464.70961499999976,465.61539730000004,464.70961499999976,468.1489601000003,j,0,3.4226640999995652,None,left,15,"[15, 13, 15, 14, 15, 14]",6,shiftedgaze_L_15.png,j,0,3,pilot1,001,2026-04-02_15h17.39.436,mogelijke versie adaptive staircase builder,,2026.1.3,60.02851354364969,2026-04-02 15h17.39.531182 +0200,
5.9,ecc10neg,right,39,0,39,f,0,1.551772699999674,None,0,2,2,2,39,0,39,0,468.24400419999984,,,,,,,,,,,,468.23255810000046,468.24400419999984,468.24400419999984,469.1487790000001,468.24400419999984,469.7992727000001,f,0,1.551772699999674,None,direct,15,"[15, 13, 15, 14, 15, 14]",6,shifteddirectgaze.png,f,0,3,pilot1,001,2026-04-02_15h17.39.436,mogelijke versie adaptive staircase builder,,2026.1.3,60.02851354364969,2026-04-02 15h17.39.531182 +0200,
5.9,ecc10neg,right,40,0,40,f,1,1.9314199000000372,None,0,2,2,2,40,0,40,0,469.8964340000002,,,,,,,,,,,,469.8858030000001,469.8964340000002,469.8964340000002,470.79928259999997,469.8964340000002,471.8323522999999,f,1,1.9314199000000372,None,right,15,"[15, 13, 15, 14, 15, 14]",6,shiftedgaze_R_15.png,f,1,3,pilot1,001,2026-04-02_15h17.39.436,mogelijke versie adaptive staircase builder,,2026.1.3,60.02851354364969,2026-04-02 15h17.39.531182 +0200,
5.9,ecc10neg,right,41,0,41,f,0,2.3273239999998623,None,0,2,2,2,41,0,41,0,471.94046809999963,,,,,,,,,,,,471.9292727000002,471.94046809999963,471.94046809999963,472.83195090000027,471.94046809999963,474.2825423000004,f,0,2.3273239999998623,None,direct,15,"[15, 13, 15, 14, 15, 14]",6,shifteddirectgaze.png,f,0,3,pilot1,001,2026-04-02_15h17.39.436,mogelijke versie adaptive staircase builder,,2026.1.3,60.02851354364969,2026-04-02 15h17.39.531182 +0200,
5.9,ecc10neg,right,42,0,42,f,1,1.662797099999807,None,0,2,2,2,42,0,42,0,474.3730089999999,,,,,,,,,,,,474.3625138999996,474.3730089999999,474.3730089999999,475.2820633000001,474.3730089999999,476.0497051000002,f,1,1.662797099999807,None,right,15,"[15, 13, 15, 14, 15, 14]",6,shiftedgaze_R_15.png,f,1,3,pilot1,001,2026-04-02_15h17.39.436,mogelijke versie adaptive staircase builder,,2026.1.3,60.02851354364969,2026-04-02 15h17.39.531182 +0200,
5.9,ecc10neg,right,43,0,43,f,1,2.5169246000004932,None,0,2,2,2,43,0,43,0,476.14288659999966,,,,,,,,,,,,476.13167069999963,476.14288659999966,476.14288659999966,477.0657017000003,476.14288659999966,478.66574070000024,f,1,2.5169246000004932,None,right,15,"[15, 13, 15, 14, 15, 14, 15]",7,shiftedgaze_R_15.png,f,1,3,pilot1,001,2026-04-02_15h17.39.436,mogelijke versie adaptive staircase builder,,2026.1.3,60.02851354364969,2026-04-02 15h17.39.531182 +0200,
5.9,ecc10neg,right,44,0,44,f,1,1.421012900000278,None,0,2,2,2,44,0,44,0,478.75887500000044,,,,,,,,,,,,478.7476974000001,478.75887500000044,478.75887500000044,479.66521100000045,478.75887500000044,480.1823930999999,f,1,1.421012900000278,None,left,14,"[15, 13, 15, 14, 15, 14, 15]",7,shiftedgaze_L_14.png,f,1,3,pilot1,001,2026-04-02_15h17.39.436,mogelijke versie adaptive staircase builder,,2026.1.3,60.02851354364969,2026-04-02 15h17.39.531182 +0200,
5.9,ecc10neg,right,45,0,45,f,1,2.1856077000002188,None,0,2,2,2,45,0,45,0,480.27417369999966,,,,,,,,,,,,480.2637980999998,480.27417369999966,480.27417369999966,481.1819843000003,480.27417369999966,482.4656869999999,f,1,2.1856077000002188,None,right,14,"[15, 13, 15, 14, 15, 14, 15]",7,shiftedgaze_R_14.png,f,1,3,pilot1,001,2026-04-02_15h17.39.436,mogelijke versie adaptive staircase builder,,2026.1.3,60.02851354364969,2026-04-02 15h17.39.531182 +0200,
5.9,ecc10neg,right,46,0,46,j,0,1.509840599999734,None,0,2,2,2,46,0,46,0,482.5660606000001,,,,,,,,,,,,482.55512569999973,482.5660606000001,482.5660606000001,483.46516189999966,482.5660606000001,484.08216790000006,j,0,1.509840599999734,None,left,13,"[15, 13, 15, 14, 15, 14, 15, 13]",8,shiftedgaze_L_13.png,j,0,3,pilot1,001,2026-04-02_15h17.39.436,mogelijke versie adaptive staircase builder,,2026.1.3,60.02851354364969,2026-04-02 15h17.39.531182 +0200,
5.9,ecc10neg,right,47,0,47,f,1,1.6691934000000401,None,0,2,2,2,47,0,47,0,484.17464629999995,,,,,,,,,,,,484.1631500000003,484.17464629999995,484.17464629999995,485.0818626,484.17464629999995,485.8489281000002,f,1,1.6691934000000401,None,right,14,"[15, 13, 15, 14, 15, 14, 15, 13]",8,shiftedgaze_R_14.png,f,1,3,pilot1,001,2026-04-02_15h17.39.436,mogelijke versie adaptive staircase builder,,2026.1.3,60.02851354364969,2026-04-02 15h17.39.531182 +0200,
5.9,ecc10neg,right,48,0,48,j,0,2.4166308999992907,None,0,2,2,2,48,0,48,0,485.9394070999997,,,,,,,,,,,,485.9290262000004,485.9394070999997,485.9394070999997,486.84852539999974,485.9394070999997,488.36570269999993,j,0,2.4166308999992907,None,left,14,"[15, 13, 15, 14, 15, 14, 15, 13]",8,shiftedgaze_L_14.png,j,0,3,pilot1,001,2026-04-02_15h17.39.436,mogelijke versie adaptive staircase builder,,2026.1.3,60.02851354364969,2026-04-02 15h17.39.531182 +0200,
5.9,ecc10neg,right,49,0,49,f,0,2.825897200000327,None,0,2,2,2,49,0,49,0,488.4579730000005,,,,,,,,,,,,488.44684320000033,488.4579730000005,488.4579730000005,489.36517019999974,488.4579730000005,491.2984875000002,f,0,2.825897200000327,None,direct,15,"[15, 13, 15, 14, 15, 14, 15, 13]",8,shifteddirectgaze.png,f,0,3,pilot1,001,2026-04-02_15h17.39.436,mogelijke versie adaptive staircase builder,,2026.1.3,60.02851354364969,2026-04-02 15h17.39.531182 +0200,
5.9,ecc10neg,right,2,2,0,,,,,0,2,2,2,,,,,,,,,,,,,,,,,,,,,,,,,,,,,,,,,,,pilot1,001,2026-04-02_15h17.39.436,mogelijke versie adaptive staircase builder,,2026.1.3,60.02851354364969,2026-04-02 15h17.39.531182 +0200,
