xPos,stimulusSet,whichImage,thisN,thisTrialN,thisRepN,key_resp.keys,key_resp.corr,key_resp.rt,key_resp.duration,blocks.thisRepN,blocks.thisTrialN,blocks.thisN,blocks.thisIndex,trials.thisRepN,trials.thisTrialN,trials.thisN,trials.thisIndex,thisRow.t,notes,piloting,intro.started,introinstructions.started,intro_key.started,intro.stopped,intro_key.keys,intro_key.rt,intro_key.duration,block_start.started,block_start.stopped,trial.started,key_resp.started,middle_image.started,right_image.started,left_image.started,trial.stopped,trials.key_resp.keys,trials.key_resp.corr,trials.key_resp.rt,trials.key_resp.duration,direction,angle,reversal_intensities,number_reversals,stimulus,response,correct,blockNumber,participant,session,date,expName,expVersion,psychopyVersion,frameRate,expStart,
,,,,,,,,,,,,,,,,,,,,False,0.05121159999998781,0.05893329999980779,0.05893329999980779,109.28875929999958,space,109.21451570000045,None,,,,,,,,,,,,,,,,,,,,,pilot2,001,2026-04-02_15h33.22.749,mogelijke versie adaptive staircase builder,,2026.1.3,60.05273831470535,2026-04-02 15h33.22.946549 +0200,
29.1,ecc10pos,left,0,0,0,f,0,3.575426499999594,None,0,0,0,0,0,0,0,0,109.62607060000028,,,,,,,,,,109.51190169999973,109.51202050000029,109.61450229999991,109.62607060000028,109.62607060000028,109.62607060000028,110.5216634999997,113.2052120999997,f,0,3.575426499999594,None,direct,15,[],0,shifteddirectgaze.png,f,0,1,pilot2,001,2026-04-02_15h33.22.749,mogelijke versie adaptive staircase builder,,2026.1.3,60.05273831470535,2026-04-02 15h33.22.946549 +0200,
29.1,ecc10pos,left,1,0,1,j,0,3.7426869000000806,None,0,0,0,0,1,0,1,0,113.30671669999992,,,,,,,,,,,,113.29550070000005,113.30671669999992,113.30671669999992,113.30671669999992,114.20487760000015,117.05525089999992,j,0,3.7426869000000806,None,right,15,[],0,shiftedgaze_R_15.png,j,0,1,pilot2,001,2026-04-02_15h33.22.749,mogelijke versie adaptive staircase builder,,2026.1.3,60.05273831470535,2026-04-02 15h33.22.946549 +0200,
29.1,ecc10pos,left,2,0,2,j,0,2.6462145000004966,None,0,0,0,0,2,0,2,0,117.14721889999964,,,,,,,,,,,,117.13681340000039,117.14721889999964,117.14721889999964,117.14721889999964,118.05509470000015,119.8054603999999,j,0,2.6462145000004966,None,right,15,[],0,shiftedgaze_R_15.png,j,0,1,pilot2,001,2026-04-02_15h33.22.749,mogelijke versie adaptive staircase builder,,2026.1.3,60.05273831470535,2026-04-02 15h33.22.946549 +0200,
29.1,ecc10pos,left,3,0,3,j,0,2.968072200000279,None,0,0,0,0,3,0,3,0,119.91339319999952,,,,,,,,,,,,119.90326819999973,119.91339319999952,119.91339319999952,119.91339319999952,120.80484290000004,122.88859339999999,j,0,2.968072200000279,None,left,15,[],0,shiftedgaze_L_15.png,j,0,1,pilot2,001,2026-04-02_15h33.22.749,mogelijke versie adaptive staircase builder,,2026.1.3,60.05273831470535,2026-04-02 15h33.22.946549 +0200,
29.1,ecc10pos,left,4,0,4,j,1,2.105444499999976,None,0,0,0,0,4,0,4,0,122.99208679999992,,,,,,,,,,,,122.98177860000033,122.99208679999992,122.99208679999992,122.99208679999992,123.88826470000004,125.10533940000005,j,1,2.105444499999976,None,direct,15,[15],1,shifteddirectgaze.png,j,1,1,pilot2,001,2026-04-02_15h33.22.749,mogelijke versie adaptive staircase builder,,2026.1.3,60.05273831470535,2026-04-02 15h33.22.946549 +0200,
29.1,ecc10pos,left,5,0,5,f,0,1.8583770999994158,None,0,0,0,0,5,0,5,0,125.19906170000013,,,,,,,,,,,,125.18797499999982,125.19906170000013,125.19906170000013,125.19906170000013,126.10519120000026,127.07190319999972,f,0,1.8583770999994158,None,direct,14,"[15, 14]",2,shifteddirectgaze.png,f,0,1,pilot2,001,2026-04-02_15h33.22.749,mogelijke versie adaptive staircase builder,,2026.1.3,60.05273831470535,2026-04-02 15h33.22.946549 +0200,
29.1,ecc10pos,left,6,0,6,f,1,1.7319572000005792,None,0,0,0,0,6,0,6,0,127.16552349999984,,,,,,,,,,,,127.1540058999999,127.16552349999984,127.16552349999984,127.16552349999984,128.08819349999976,128.90521309999986,f,1,1.7319572000005792,None,right,15,"[15, 14]",2,shiftedgaze_R_15.png,f,1,1,pilot2,001,2026-04-02_15h33.22.749,mogelijke versie adaptive staircase builder,,2026.1.3,60.05273831470535,2026-04-02 15h33.22.946549 +0200,
29.1,ecc10pos,left,7,0,7,f,0,2.0600438999999824,None,0,0,0,0,7,0,7,0,128.99743099999978,,,,,,,,,,,,128.98684830000002,128.99743099999978,128.99743099999978,128.99743099999978,129.9048260999998,131.0718606999999,f,0,2.0600438999999824,None,direct,15,"[15, 14]",2,shifteddirectgaze.png,f,0,1,pilot2,001,2026-04-02_15h33.22.749,mogelijke versie adaptive staircase builder,,2026.1.3,60.05273831470535,2026-04-02 15h33.22.946549 +0200,
29.1,ecc10pos,left,8,0,8,j,1,2.445148299999346,None,0,0,0,0,8,0,8,0,131.16431639999973,,,,,,,,,,,,131.15357109999968,131.16431639999973,131.16431639999973,131.16431639999973,132.07136079999964,133.6218315999995,j,1,2.445148299999346,None,direct,15,"[15, 14]",2,shifteddirectgaze.png,j,1,1,pilot2,001,2026-04-02_15h33.22.749,mogelijke versie adaptive staircase builder,,2026.1.3,60.05273831470535,2026-04-02 15h33.22.946549 +0200,
29.1,ecc10pos,left,9,0,9,j,0,1.9640593000003719,None,0,0,0,0,9,0,9,0,133.72549770000023,,,,,,,,,,,,133.71522670000013,133.72549770000023,133.72549770000023,133.72549770000023,134.6214772000003,135.70537669999976,j,0,1.9640593000003719,None,left,15,"[15, 14]",2,shiftedgaze_L_15.png,j,0,1,pilot2,001,2026-04-02_15h33.22.749,mogelijke versie adaptive staircase builder,,2026.1.3,60.05273831470535,2026-04-02 15h33.22.946549 +0200,
29.1,ecc10pos,left,10,0,10,f,1,1.978277899999739,None,0,0,0,0,10,0,10,0,135.80730089999997,,,,,,,,,,,,135.7964052999996,135.80730089999997,135.80730089999997,135.80730089999997,136.70501799999965,137.78838209999958,f,1,1.978277899999739,None,right,15,"[15, 14]",2,shiftedgaze_R_15.png,f,1,1,pilot2,001,2026-04-02_15h33.22.749,mogelijke versie adaptive staircase builder,,2026.1.3,60.05273831470535,2026-04-02 15h33.22.946549 +0200,
29.1,ecc10pos,left,11,0,11,f,1,2.0897107000000688,None,0,0,0,0,11,0,11,0,137.87991369999963,,,,,,,,,,,,137.8692484000003,137.87991369999963,137.87991369999963,137.87991369999963,138.7882325999999,139.97167530000024,f,1,2.0897107000000688,None,right,15,"[15, 14, 15]",3,shiftedgaze_R_15.png,f,1,1,pilot2,001,2026-04-02_15h33.22.749,mogelijke versie adaptive staircase builder,,2026.1.3,60.05273831470535,2026-04-02 15h33.22.946549 +0200,
29.1,ecc10pos,left,12,0,12,j,1,2.3237555999994584,None,0,0,0,0,12,0,12,0,140.06172979999974,,,,,,,,,,,,140.05126389999987,140.06172979999974,140.06172979999974,140.06172979999974,140.97149569999965,142.38854329999958,j,1,2.3237555999994584,None,direct,14,"[15, 14, 15]",3,shifteddirectgaze.png,j,1,1,pilot2,001,2026-04-02_15h33.22.749,mogelijke versie adaptive staircase builder,,2026.1.3,60.05273831470535,2026-04-02 15h33.22.946549 +0200,
29.1,ecc10pos,left,13,0,13,j,0,2.4550027000004775,None,0,0,0,0,13,0,13,0,142.49047210000026,,,,,,,,,,,,142.4795340999999,142.49047210000026,142.49047210000026,142.49047210000026,143.38787479999974,144.95539629999985,j,0,2.4550027000004775,None,left,14,"[15, 14, 15, 14]",4,shiftedgaze_L_14.png,j,0,1,pilot2,001,2026-04-02_15h33.22.749,mogelijke versie adaptive staircase builder,,2026.1.3,60.05273831470535,2026-04-02 15h33.22.946549 +0200,
29.1,ecc10pos,left,14,0,14,j,0,3.059585199999674,None,0,0,0,0,14,0,14,0,145.0460678999998,,,,,,,,,,,,145.0358527999997,145.0460678999998,145.0460678999998,145.0460678999998,145.97116970000025,148.1217883999998,j,0,3.059585199999674,None,right,15,"[15, 14, 15, 14]",4,shiftedgaze_R_15.png,j,0,1,pilot2,001,2026-04-02_15h33.22.749,mogelijke versie adaptive staircase builder,,2026.1.3,60.05273831470535,2026-04-02 15h33.22.946549 +0200,
29.1,ecc10pos,left,15,0,15,f,1,2.411055800000213,None,0,0,0,0,15,0,15,0,148.22249199999987,,,,,,,,,,,,148.21240070000022,148.22249199999987,148.22249199999987,148.22249199999987,149.12128060000032,150.63849120000032,f,1,2.411055800000213,None,left,15,"[15, 14, 15, 14]",4,shiftedgaze_L_15.png,f,1,1,pilot2,001,2026-04-02_15h33.22.749,mogelijke versie adaptive staircase builder,,2026.1.3,60.05273831470535,2026-04-02 15h33.22.946549 +0200,
29.1,ecc10pos,left,16,0,16,j,1,1.9739973000005193,None,0,0,0,0,16,0,16,0,150.73955240000032,,,,,,,,,,,,150.72936459999983,150.73955240000032,150.73955240000032,150.73955240000032,151.63812270000017,152.72156470000027,j,1,1.9739973000005193,None,direct,15,"[15, 14, 15, 14, 15]",5,shifteddirectgaze.png,j,1,1,pilot2,001,2026-04-02_15h33.22.749,mogelijke versie adaptive staircase builder,,2026.1.3,60.05273831470535,2026-04-02 15h33.22.946549 +0200,
29.1,ecc10pos,left,17,0,17,j,0,1.5498262999999497,None,0,0,0,0,17,0,17,0,152.81971669999984,,,,,,,,,,,,152.80919389999963,152.81971669999984,152.81971669999984,152.81971669999984,153.72138910000012,154.37163390000023,j,0,1.5498262999999497,None,right,14,"[15, 14, 15, 14, 15, 14]",6,shiftedgaze_R_14.png,j,0,1,pilot2,001,2026-04-02_15h33.22.749,mogelijke versie adaptive staircase builder,,2026.1.3,60.05273831470535,2026-04-02 15h33.22.946549 +0200,
29.1,ecc10pos,left,18,0,18,f,1,2.6960562000003847,None,0,0,0,0,18,0,18,0,154.47357319999992,,,,,,,,,,,,154.46319949999997,154.47357319999992,154.47357319999992,154.47357319999992,155.37133389999963,157.17162180000014,f,1,2.6960562000003847,None,left,15,"[15, 14, 15, 14, 15, 14]",6,shiftedgaze_L_15.png,f,1,1,pilot2,001,2026-04-02_15h33.22.749,mogelijke versie adaptive staircase builder,,2026.1.3,60.05273831470535,2026-04-02 15h33.22.946549 +0200,
29.1,ecc10pos,left,19,0,19,j,1,2.0814666999995097,None,0,0,0,0,19,0,19,0,157.2724773,,,,,,,,,,,,157.26243169999998,157.2724773,157.2724773,157.2724773,158.17146150000008,159.35579400000006,j,1,2.0814666999995097,None,direct,15,"[15, 14, 15, 14, 15, 14, 15]",7,shifteddirectgaze.png,j,1,1,pilot2,001,2026-04-02_15h33.22.749,mogelijke versie adaptive staircase builder,,2026.1.3,60.05273831470535,2026-04-02 15h33.22.946549 +0200,
29.1,ecc10pos,left,20,0,20,j,0,2.032822699999997,None,0,0,0,0,20,0,20,0,159.44872169999962,,,,,,,,,,,,159.43675110000004,159.44872169999962,159.44872169999962,159.44872169999962,160.37115960000028,161.48783960000037,j,0,2.032822699999997,None,left,14,"[15, 14, 15, 14, 15, 14, 15, 14]",8,shiftedgaze_L_14.png,j,0,1,pilot2,001,2026-04-02_15h33.22.749,mogelijke versie adaptive staircase builder,,2026.1.3,60.05273831470535,2026-04-02 15h33.22.946549 +0200,
29.1,ecc10pos,left,21,0,21,f,1,2.1287206000006336,None,0,0,0,0,21,0,21,0,161.59295209999982,,,,,,,,,,,,161.5816235000002,161.59295209999982,161.59295209999982,161.59295209999982,162.4878448999998,163.73872810000012,f,1,2.1287206000006336,None,left,15,"[15, 14, 15, 14, 15, 14, 15, 14]",8,shiftedgaze_L_15.png,f,1,1,pilot2,001,2026-04-02_15h33.22.749,mogelijke versie adaptive staircase builder,,2026.1.3,60.05273831470535,2026-04-02 15h33.22.946549 +0200,
29.1,ecc10pos,left,22,0,22,f,1,1.988505499999519,None,0,0,0,0,22,0,22,0,163.8369444,,,,,,,,,,,,163.82576080000035,163.8369444,163.8369444,163.8369444,164.7542109999995,165.8379659000002,f,1,1.988505499999519,None,left,15,"[15, 14, 15, 14, 15, 14, 15, 14, 15]",9,shiftedgaze_L_15.png,f,1,1,pilot2,001,2026-04-02_15h33.22.749,mogelijke versie adaptive staircase builder,,2026.1.3,60.05273831470535,2026-04-02 15h33.22.946549 +0200,
29.1,ecc10pos,left,23,0,23,j,0,2.077759800000422,None,0,0,0,0,23,0,23,0,165.93989909999982,,,,,,,,,,,,165.9301832000001,165.93989909999982,165.93989909999982,165.93989909999982,166.8376245999998,168.02150849999998,j,0,2.077759800000422,None,right,14,"[15, 14, 15, 14, 15, 14, 15, 14, 15, 14]",10,shiftedgaze_R_14.png,j,0,1,pilot2,001,2026-04-02_15h33.22.749,mogelijke versie adaptive staircase builder,,2026.1.3,60.05273831470535,2026-04-02 15h33.22.946549 +0200,
29.1,ecc10pos,left,24,0,24,j,0,1.8564431999993758,None,0,0,0,0,24,0,24,0,168.11312240000007,,,,,,,,,,,,168.1020582000001,168.11312240000007,168.11312240000007,168.11312240000007,169.0210606999999,169.9713025000001,j,0,1.8564431999993758,None,right,15,"[15, 14, 15, 14, 15, 14, 15, 14, 15, 14]",10,shiftedgaze_R_15.png,j,0,1,pilot2,001,2026-04-02_15h33.22.749,mogelijke versie adaptive staircase builder,,2026.1.3,60.05273831470535,2026-04-02 15h33.22.946549 +0200,
29.1,ecc10pos,left,25,0,25,j,0,1.8881336000004012,None,0,0,0,0,25,0,25,0,170.07387860000017,,,,,,,,,,,,170.06379730000026,170.07387860000017,170.07387860000017,170.07387860000017,170.97098240000014,171.97147570000016,j,0,1.8881336000004012,None,left,15,"[15, 14, 15, 14, 15, 14, 15, 14, 15, 14]",10,shiftedgaze_L_15.png,j,0,1,pilot2,001,2026-04-02_15h33.22.749,mogelijke versie adaptive staircase builder,,2026.1.3,60.05273831470535,2026-04-02 15h33.22.946549 +0200,
29.1,ecc10pos,left,26,0,26,j,1,2.664481099999648,None,0,0,0,0,26,0,26,0,172.0734167999999,,,,,,,,,,,,172.06294780000007,172.0734167999999,172.0734167999999,172.0734167999999,172.9878230000004,174.75434179999957,j,1,2.664481099999648,None,direct,15,"[15, 14, 15, 14, 15, 14, 15, 14, 15, 14]",10,shifteddirectgaze.png,j,1,1,pilot2,001,2026-04-02_15h33.22.749,mogelijke versie adaptive staircase builder,,2026.1.3,60.05273831470535,2026-04-02 15h33.22.946549 +0200,
29.1,ecc10pos,left,27,0,27,j,0,2.3071461999998064,None,0,0,0,0,27,0,27,0,174.8463542999998,,,,,,,,,,,,174.83584400000018,174.8463542999998,174.8463542999998,174.8463542999998,175.7546094999998,177.1549525999999,j,0,2.3071461999998064,None,right,15,"[15, 14, 15, 14, 15, 14, 15, 14, 15, 14]",10,shiftedgaze_R_15.png,j,0,1,pilot2,001,2026-04-02_15h33.22.749,mogelijke versie adaptive staircase builder,,2026.1.3,60.05273831470535,2026-04-02 15h33.22.946549 +0200,
29.1,ecc10pos,left,28,0,28,f,0,2.4506946999999855,None,0,0,0,0,28,0,28,0,177.2468358999995,,,,,,,,,,,,177.2358174000001,177.2468358999995,177.2468358999995,177.2468358999995,178.17100800000026,179.7044704,f,0,2.4506946999999855,None,direct,15,"[15, 14, 15, 14, 15, 14, 15, 14, 15, 14]",10,shifteddirectgaze.png,f,0,1,pilot2,001,2026-04-02_15h33.22.749,mogelijke versie adaptive staircase builder,,2026.1.3,60.05273831470535,2026-04-02 15h33.22.946549 +0200,
29.1,ecc10pos,left,29,0,29,j,0,2.424727399999938,None,0,0,0,0,29,0,29,0,179.80873129999964,,,,,,,,,,,,179.79843110000002,179.80873129999964,179.80873129999964,179.80873129999964,180.70425720000003,182.23775169999954,j,0,2.424727399999938,None,left,15,"[15, 14, 15, 14, 15, 14, 15, 14, 15, 14]",10,shiftedgaze_L_15.png,j,0,1,pilot2,001,2026-04-02_15h33.22.749,mogelijke versie adaptive staircase builder,,2026.1.3,60.05273831470535,2026-04-02 15h33.22.946549 +0200,
29.1,ecc10pos,left,30,0,30,j,1,3.038661599999614,None,0,0,0,0,30,0,30,0,182.33927649999987,,,,,,,,,,,,182.32951539999976,182.33927649999987,182.33927649999987,182.33927649999987,183.2372663999995,185.3875264999997,j,1,3.038661599999614,None,direct,15,"[15, 14, 15, 14, 15, 14, 15, 14, 15, 14]",10,shifteddirectgaze.png,j,1,1,pilot2,001,2026-04-02_15h33.22.749,mogelijke versie adaptive staircase builder,,2026.1.3,60.05273831470535,2026-04-02 15h33.22.946549 +0200,
29.1,ecc10pos,left,31,0,31,f,0,1.9763454999992973,None,0,0,0,0,31,0,31,0,185.48112049999963,,,,,,,,,,,,185.47026709999955,185.48112049999963,185.48112049999963,185.48112049999963,186.38729849999982,187.47156579999955,f,0,1.9763454999992973,None,direct,15,"[15, 14, 15, 14, 15, 14, 15, 14, 15, 14]",10,shifteddirectgaze.png,f,0,1,pilot2,001,2026-04-02_15h33.22.749,mogelijke versie adaptive staircase builder,,2026.1.3,60.05273831470535,2026-04-02 15h33.22.946549 +0200,
29.1,ecc10pos,left,32,0,32,j,1,2.412579399999231,None,0,0,0,0,32,0,32,0,187.56486440000026,,,,,,,,,,,,187.5536473000002,187.56486440000026,187.56486440000026,187.56486440000026,188.4871538999996,189.98755710000023,j,1,2.412579399999231,None,direct,15,"[15, 14, 15, 14, 15, 14, 15, 14, 15, 14]",10,shifteddirectgaze.png,j,1,1,pilot2,001,2026-04-02_15h33.22.749,mogelijke versie adaptive staircase builder,,2026.1.3,60.05273831470535,2026-04-02 15h33.22.946549 +0200,
29.1,ecc10pos,left,33,0,33,j,0,2.6080080000001544,None,0,0,0,0,33,0,33,0,190.08149330000015,,,,,,,,,,,,190.06968440000037,190.08149330000015,190.08149330000015,190.08149330000015,190.98710990000018,192.70426130000033,j,0,2.6080080000001544,None,right,15,"[15, 14, 15, 14, 15, 14, 15, 14, 15, 14]",10,shiftedgaze_R_15.png,j,0,1,pilot2,001,2026-04-02_15h33.22.749,mogelijke versie adaptive staircase builder,,2026.1.3,60.05273831470535,2026-04-02 15h33.22.946549 +0200,
29.1,ecc10pos,left,34,0,34,f,1,2.548140300000341,None,0,0,0,0,34,0,34,0,192.8057362999998,,,,,,,,,,,,192.79593639999985,192.8057362999998,192.8057362999998,192.8057362999998,193.70401709999987,195.35431659999995,f,1,2.548140300000341,None,left,15,"[15, 14, 15, 14, 15, 14, 15, 14, 15, 14]",10,shiftedgaze_L_15.png,f,1,1,pilot2,001,2026-04-02_15h33.22.749,mogelijke versie adaptive staircase builder,,2026.1.3,60.05273831470535,2026-04-02 15h33.22.946549 +0200,
29.1,ecc10pos,left,35,0,35,f,0,2.6892447000000175,None,0,0,0,0,35,0,35,0,195.45620309999958,,,,,,,,,,,,195.4459197999995,195.45620309999958,195.45620309999958,195.45620309999958,196.3710576000003,198.15430409999954,f,0,2.6892447000000175,None,direct,15,"[15, 14, 15, 14, 15, 14, 15, 14, 15, 14]",10,shifteddirectgaze.png,f,0,1,pilot2,001,2026-04-02_15h33.22.749,mogelijke versie adaptive staircase builder,,2026.1.3,60.05273831470535,2026-04-02 15h33.22.946549 +0200,
29.1,ecc10pos,left,36,0,36,f,1,3.4745763999999326,None,0,0,0,0,36,0,36,0,198.2548568000002,,,,,,,,,,,,198.2446001999997,198.2548568000002,198.2548568000002,198.2548568000002,199.15399419999994,201.73755530000017,f,1,3.4745763999999326,None,left,15,"[15, 14, 15, 14, 15, 14, 15, 14, 15, 14]",10,shiftedgaze_L_15.png,f,1,1,pilot2,001,2026-04-02_15h33.22.749,mogelijke versie adaptive staircase builder,,2026.1.3,60.05273831470535,2026-04-02 15h33.22.946549 +0200,
29.1,ecc10pos,left,37,0,37,j,0,2.349397300000419,None,0,0,0,0,37,0,37,0,201.82803989999957,,,,,,,,,,,,201.81694479999987,201.82803989999957,201.82803989999957,201.82803989999957,202.73721389999992,204.18739920000007,j,0,2.349397300000419,None,left,15,"[15, 14, 15, 14, 15, 14, 15, 14, 15, 14]",10,shiftedgaze_L_15.png,j,0,1,pilot2,001,2026-04-02_15h33.22.749,mogelijke versie adaptive staircase builder,,2026.1.3,60.05273831470535,2026-04-02 15h33.22.946549 +0200,
29.1,ecc10pos,left,38,0,38,j,0,2.248776800000087,None,0,0,0,0,38,0,38,0,204.28894320000018,,,,,,,,,,,,204.2790259000003,204.28894320000018,204.28894320000018,204.28894320000018,205.18692519999968,206.55436550000013,j,0,2.248776800000087,None,right,15,"[15, 14, 15, 14, 15, 14, 15, 14, 15, 14]",10,shiftedgaze_R_15.png,j,0,1,pilot2,001,2026-04-02_15h33.22.749,mogelijke versie adaptive staircase builder,,2026.1.3,60.05273831470535,2026-04-02 15h33.22.946549 +0200,
29.1,ecc10pos,left,39,0,39,j,1,2.6176147000005585,None,0,0,0,0,39,0,39,0,206.64788520000002,,,,,,,,,,,,206.6368735999995,206.64788520000002,206.64788520000002,206.64788520000002,207.55376520000027,209.2708364,j,1,2.6176147000005585,None,direct,15,"[15, 14, 15, 14, 15, 14, 15, 14, 15, 14]",10,shifteddirectgaze.png,j,1,1,pilot2,001,2026-04-02_15h33.22.749,mogelijke versie adaptive staircase builder,,2026.1.3,60.05273831470535,2026-04-02 15h33.22.946549 +0200,
29.1,ecc10pos,left,40,0,40,j,0,2.392866799999865,None,0,0,0,0,40,0,40,0,209.3765924999998,,,,,,,,,,,,209.3663461999995,209.3765924999998,209.3765924999998,209.3765924999998,210.2702661000003,211.77060580000034,j,0,2.392866799999865,None,left,15,"[15, 14, 15, 14, 15, 14, 15, 14, 15, 14]",10,shiftedgaze_L_15.png,j,0,1,pilot2,001,2026-04-02_15h33.22.749,mogelijke versie adaptive staircase builder,,2026.1.3,60.05273831470535,2026-04-02 15h33.22.946549 +0200,
29.1,ecc10pos,left,41,0,41,f,0,2.4673123000002306,None,0,0,0,0,41,0,41,0,211.8704276999997,,,,,,,,,,,,211.86022830000002,211.8704276999997,211.8704276999997,211.8704276999997,212.77025109999977,214.3539983999999,f,0,2.4673123000002306,None,direct,15,"[15, 14, 15, 14, 15, 14, 15, 14, 15, 14]",10,shifteddirectgaze.png,f,0,1,pilot2,001,2026-04-02_15h33.22.749,mogelijke versie adaptive staircase builder,,2026.1.3,60.05273831470535,2026-04-02 15h33.22.946549 +0200,
29.1,ecc10pos,left,42,0,42,f,0,2.8923415999997815,None,0,0,0,0,42,0,42,0,214.44538620000003,,,,,,,,,,,,214.4352676999997,214.44538620000003,214.44538620000003,214.44538620000003,215.35375380000005,217.35431309999967,f,0,2.8923415999997815,None,direct,15,"[15, 14, 15, 14, 15, 14, 15, 14, 15, 14]",10,shifteddirectgaze.png,f,0,1,pilot2,001,2026-04-02_15h33.22.749,mogelijke versie adaptive staircase builder,,2026.1.3,60.05273831470535,2026-04-02 15h33.22.946549 +0200,
29.1,ecc10pos,left,43,0,43,f,0,3.0491854000001695,None,0,0,0,0,43,0,43,0,217.44826939999984,,,,,,,,,,,,217.43726650000008,217.44826939999984,217.44826939999984,217.44826939999984,218.3537268,220.50401619999957,f,0,3.0491854000001695,None,direct,15,"[15, 14, 15, 14, 15, 14, 15, 14, 15, 14]",10,shifteddirectgaze.png,f,0,1,pilot2,001,2026-04-02_15h33.22.749,mogelijke versie adaptive staircase builder,,2026.1.3,60.05273831470535,2026-04-02 15h33.22.946549 +0200,
29.1,ecc10pos,left,44,0,44,j,0,2.122474100000545,None,0,0,0,0,44,0,44,0,220.60704600000008,,,,,,,,,,,,220.59771509999973,220.60704600000008,220.60704600000008,220.60704600000008,221.50369620000038,222.73723820000032,j,0,2.122474100000545,None,left,15,"[15, 14, 15, 14, 15, 14, 15, 14, 15, 14]",10,shiftedgaze_L_15.png,j,0,1,pilot2,001,2026-04-02_15h33.22.749,mogelijke versie adaptive staircase builder,,2026.1.3,60.05273831470535,2026-04-02 15h33.22.946549 +0200,
29.1,ecc10pos,left,45,0,45,j,0,2.5175631000001886,None,0,0,0,0,45,0,45,0,222.82795689999966,,,,,,,,,,,,222.81698210000013,222.82795689999966,222.82795689999966,222.82795689999966,223.73790310000004,225.35442369999964,j,0,2.5175631000001886,None,left,15,"[15, 14, 15, 14, 15, 14, 15, 14, 15, 14]",10,shiftedgaze_L_15.png,j,0,1,pilot2,001,2026-04-02_15h33.22.749,mogelijke versie adaptive staircase builder,,2026.1.3,60.05273831470535,2026-04-02 15h33.22.946549 +0200,
29.1,ecc10pos,left,46,0,46,j,1,2.6314214999993055,None,0,0,0,0,46,0,46,0,225.45805430000019,,,,,,,,,,,,225.44786899999963,225.45805430000019,225.45805430000019,225.45805430000019,226.3702659999999,228.10400969999955,j,1,2.6314214999993055,None,direct,15,"[15, 14, 15, 14, 15, 14, 15, 14, 15, 14]",10,shifteddirectgaze.png,j,1,1,pilot2,001,2026-04-02_15h33.22.749,mogelijke versie adaptive staircase builder,,2026.1.3,60.05273831470535,2026-04-02 15h33.22.946549 +0200,
29.1,ecc10pos,left,47,0,47,j,1,2.5479482000000644,None,0,0,0,0,47,0,47,0,228.19753039999978,,,,,,,,,,,,228.18670440000005,228.19753039999978,228.19753039999978,228.19753039999978,229.1201420999996,230.7538295000004,j,1,2.5479482000000644,None,direct,15,"[15, 14, 15, 14, 15, 14, 15, 14, 15, 14, 15]",11,shifteddirectgaze.png,j,1,1,pilot2,001,2026-04-02_15h33.22.749,mogelijke versie adaptive staircase builder,,2026.1.3,60.05273831470535,2026-04-02 15h33.22.946549 +0200,
29.1,ecc10pos,left,48,0,48,f,0,2.6374832999999853,None,0,0,0,0,48,0,48,0,230.8439787999996,,,,,,,,,,,,230.833842,230.8439787999996,230.8439787999996,230.8439787999996,231.75354359999983,233.48723379999956,f,0,2.6374832999999853,None,direct,14,"[15, 14, 15, 14, 15, 14, 15, 14, 15, 14, 15, 14]",12,shifteddirectgaze.png,f,0,1,pilot2,001,2026-04-02_15h33.22.749,mogelijke versie adaptive staircase builder,,2026.1.3,60.05273831470535,2026-04-02 15h33.22.946549 +0200,
29.1,ecc10pos,left,49,0,49,j,0,2.869949099999758,None,0,0,0,0,49,0,49,0,233.57950449999953,,,,,,,,,,,,233.56912959999954,233.57950449999953,233.57950449999953,233.57950449999953,234.48685829999977,236.45369670000036,j,0,2.869949099999758,None,right,15,"[15, 14, 15, 14, 15, 14, 15, 14, 15, 14, 15, 14]",12,shiftedgaze_R_15.png,j,0,1,pilot2,001,2026-04-02_15h33.22.749,mogelijke versie adaptive staircase builder,,2026.1.3,60.05273831470535,2026-04-02 15h33.22.946549 +0200,
29.1,ecc10pos,left,0,0,0,,,,,0,0,0,0,,,,,,,,,,,,,,,,,,,,,,,,,,,,,,,,,,,pilot2,001,2026-04-02_15h33.22.749,mogelijke versie adaptive staircase builder,,2026.1.3,60.05273831470535,2026-04-02 15h33.22.946549 +0200,
17.5,ecc0,mid,0,0,0,j,1,3.6580579999999827,None,0,1,1,1,0,0,0,0,236.5594519999995,,,,,,,,,,236.45645239999976,236.45649099999991,236.5483438000001,236.5594519999995,237.47002969999994,236.5594519999995,236.5594519999995,240.22020069999962,j,1,3.6580579999999827,None,direct,15,[],0,direct_gaze.png,j,1,2,pilot2,001,2026-04-02_15h33.22.749,mogelijke versie adaptive staircase builder,,2026.1.3,60.05273831470535,2026-04-02 15h33.22.946549 +0200,
17.5,ecc0,mid,1,0,1,j,1,2.127324199999748,None,0,1,1,1,1,0,1,0,240.31415529999958,,,,,,,,,,,,240.30283390000022,240.31415529999958,241.22002929999962,240.31415529999958,240.31415529999958,242.45368739999958,j,1,2.127324199999748,None,direct,14,[],0,direct_gaze.png,j,1,2,pilot2,001,2026-04-02_15h33.22.749,mogelijke versie adaptive staircase builder,,2026.1.3,60.05273831470535,2026-04-02 15h33.22.946549 +0200,
17.5,ecc0,mid,2,0,2,f,1,2.3193350999999893,None,0,1,1,1,2,0,2,0,242.55417729999954,,,,,,,,,,,,242.5435133000001,242.55417729999954,243.4531632999997,242.55417729999954,242.55417729999954,244.88716569999997,f,1,2.3193350999999893,None,left,13,[],0,gaze_L_13.png,f,1,2,pilot2,001,2026-04-02_15h33.22.749,mogelijke versie adaptive staircase builder,,2026.1.3,60.05273831470535,2026-04-02 15h33.22.946549 +0200,
17.5,ecc0,mid,3,0,3,f,1,2.4095278000004328,None,0,1,1,1,3,0,3,0,244.99191539999993,,,,,,,,,,,,244.98003890000018,244.99191539999993,245.88676889999988,244.99191539999993,244.99191539999993,247.4037370999995,f,1,2.4095278000004328,None,left,12,[],0,gaze_L_12.png,f,1,2,pilot2,001,2026-04-02_15h33.22.749,mogelijke versie adaptive staircase builder,,2026.1.3,60.05273831470535,2026-04-02 15h33.22.946549 +0200,
17.5,ecc0,mid,4,0,4,f,0,2.4098862999999255,None,0,1,1,1,4,0,4,0,247.4956726999999,,,,,,,,,,,,247.4851564999999,247.4956726999999,248.4033571,247.4956726999999,247.4956726999999,249.92033309999988,f,0,2.4098862999999255,None,direct,11,[11],1,direct_gaze.png,f,0,2,pilot2,001,2026-04-02_15h33.22.749,mogelijke versie adaptive staircase builder,,2026.1.3,60.05273831470535,2026-04-02 15h33.22.946549 +0200,
17.5,ecc0,mid,5,0,5,j,0,2.2220665000004374,None,0,1,1,1,5,0,5,0,250.0115655999998,,,,,,,,,,,,250.00025540000024,250.0115655999998,250.92001470000014,250.0115655999998,250.0115655999998,252.2368709000002,j,0,2.2220665000004374,None,left,12,[11],1,gaze_L_12.png,j,0,2,pilot2,001,2026-04-02_15h33.22.749,mogelijke versie adaptive staircase builder,,2026.1.3,60.05273831470535,2026-04-02 15h33.22.946549 +0200,
17.5,ecc0,mid,6,0,6,j,0,2.28668049999942,None,0,1,1,1,6,0,6,0,252.33076259999962,,,,,,,,,,,,252.31947649999984,252.33076259999962,253.23636269999952,252.33076259999962,252.33076259999962,254.62034820000008,j,0,2.28668049999942,None,left,13,[11],1,gaze_L_13.png,j,0,2,pilot2,001,2026-04-02_15h33.22.749,mogelijke versie adaptive staircase builder,,2026.1.3,60.05273831470535,2026-04-02 15h33.22.946549 +0200,
17.5,ecc0,mid,7,0,7,f,0,2.8875731000007363,None,0,1,1,1,7,0,7,0,254.7139956000001,,,,,,,,,,,,254.70330809999996,254.7139956000001,255.6199306999997,254.7139956000001,254.7139956000001,257.60369119999996,f,0,2.8875731000007363,None,direct,14,[11],1,direct_gaze.png,f,0,2,pilot2,001,2026-04-02_15h33.22.749,mogelijke versie adaptive staircase builder,,2026.1.3,60.05273831470535,2026-04-02 15h33.22.946549 +0200,
17.5,ecc0,mid,8,0,8,f,0,3.0744747999997344,None,0,1,1,1,8,0,8,0,257.69494589999977,,,,,,,,,,,,257.6839252,257.69494589999977,258.60326299999997,257.69494589999977,257.69494589999977,260.7703412000001,f,0,3.0744747999997344,None,direct,15,[11],1,direct_gaze.png,f,0,2,pilot2,001,2026-04-02_15h33.22.749,mogelijke versie adaptive staircase builder,,2026.1.3,60.05273831470535,2026-04-02 15h33.22.946549 +0200,
17.5,ecc0,mid,9,0,9,f,0,2.858934500000032,None,0,1,1,1,9,0,9,0,260.86238219999996,,,,,,,,,,,,260.8520857000003,260.86238219999996,261.7699670000002,260.86238219999996,260.86238219999996,263.73687080000036,f,0,2.858934500000032,None,direct,15,[11],1,direct_gaze.png,f,0,2,pilot2,001,2026-04-02_15h33.22.749,mogelijke versie adaptive staircase builder,,2026.1.3,60.05273831470535,2026-04-02 15h33.22.946549 +0200,
17.5,ecc0,mid,10,0,10,j,0,2.85886550000032,None,0,1,1,1,10,0,10,0,263.8386423000002,,,,,,,,,,,,263.82791799999995,263.8386423000002,264.7364755999997,263.8386423000002,263.8386423000002,266.70328359999985,j,0,2.85886550000032,None,right,15,[11],1,gaze_R_15.png,j,0,2,pilot2,001,2026-04-02_15h33.22.749,mogelijke versie adaptive staircase builder,,2026.1.3,60.05273831470535,2026-04-02 15h33.22.946549 +0200,
17.5,ecc0,mid,11,0,11,j,0,2.9572127000001274,None,0,1,1,1,11,0,11,0,266.80430439999964,,,,,,,,,,,,266.792735,266.80430439999964,267.70308380000006,266.80430439999964,266.80430439999964,269.77061539999977,j,0,2.9572127000001274,None,left,15,[11],1,gaze_L_15.png,j,0,2,pilot2,001,2026-04-02_15h33.22.749,mogelijke versie adaptive staircase builder,,2026.1.3,60.05273831470535,2026-04-02 15h33.22.946549 +0200,
17.5,ecc0,mid,12,0,12,f,1,2.4579407999999603,None,0,1,1,1,12,0,12,0,269.8635886000002,,,,,,,,,,,,269.85236910000003,269.8635886000002,270.78659419999985,269.8635886000002,269.8635886000002,272.33665610000025,f,1,2.4579407999999603,None,right,15,[11],1,gaze_R_15.png,f,1,2,pilot2,001,2026-04-02_15h33.22.749,mogelijke versie adaptive staircase builder,,2026.1.3,60.05273831470535,2026-04-02 15h33.22.946549 +0200,
17.5,ecc0,mid,13,0,13,j,1,2.532958700000563,None,0,1,1,1,13,0,13,0,272.42864089999966,,,,,,,,,,,,272.4176293999999,272.42864089999966,273.3363337999999,272.42864089999966,272.42864089999966,274.97001180000007,j,1,2.532958700000563,None,direct,15,"[11, 15]",2,direct_gaze.png,j,1,2,pilot2,001,2026-04-02_15h33.22.749,mogelijke versie adaptive staircase builder,,2026.1.3,60.05273831470535,2026-04-02 15h33.22.946549 +0200,
17.5,ecc0,mid,14,0,14,f,1,2.853254900000138,None,0,1,1,1,14,0,14,0,275.0682502999998,,,,,,,,,,,,275.0576073000002,275.0682502999998,275.9695394999999,275.0682502999998,275.0682502999998,277.9364561000002,f,1,2.853254900000138,None,right,14,"[11, 15]",2,gaze_R_14.png,f,1,2,pilot2,001,2026-04-02_15h33.22.749,mogelijke versie adaptive staircase builder,,2026.1.3,60.05273831470535,2026-04-02 15h33.22.946549 +0200,
17.5,ecc0,mid,15,0,15,f,1,3.1997083999995084,None,0,1,1,1,15,0,15,0,278.03390089999994,,,,,,,,,,,,278.0233728000003,278.03390089999994,278.9361590999997,278.03390089999994,278.03390089999994,281.2365950000003,f,1,3.1997083999995084,None,left,14,"[11, 15]",2,gaze_L_14.png,f,1,2,pilot2,001,2026-04-02_15h33.22.749,mogelijke versie adaptive staircase builder,,2026.1.3,60.05273831470535,2026-04-02 15h33.22.946549 +0200,
17.5,ecc0,mid,16,0,16,j,0,2.4432129999995595,None,0,1,1,1,16,0,16,0,281.3264608999998,,,,,,,,,,,,281.3151128999998,281.3264608999998,282.2370883000003,281.3264608999998,281.3264608999998,283.7701555000003,j,0,2.4432129999995595,None,left,13,"[11, 15, 13]",3,gaze_L_13.png,j,0,2,pilot2,001,2026-04-02_15h33.22.749,mogelijke versie adaptive staircase builder,,2026.1.3,60.05273831470535,2026-04-02 15h33.22.946549 +0200,
17.5,ecc0,mid,17,0,17,j,1,3.1403164000003017,None,0,1,1,1,17,0,17,0,283.86138010000013,,,,,,,,,,,,283.8510501999999,283.86138010000013,284.76965569999993,283.86138010000013,283.86138010000013,287.0033105000002,j,1,3.1403164000003017,None,direct,14,"[11, 15, 13]",3,direct_gaze.png,j,1,2,pilot2,001,2026-04-02_15h33.22.749,mogelijke versie adaptive staircase builder,,2026.1.3,60.05273831470535,2026-04-02 15h33.22.946549 +0200,
17.5,ecc0,mid,18,0,18,j,1,2.554384299999583,None,0,1,1,1,18,0,18,0,287.09524260000035,,,,,,,,,,,,287.08429030000025,287.09524260000035,288.0029195999996,287.09524260000035,287.09524260000035,289.65329289999954,j,1,2.554384299999583,None,direct,14,"[11, 15, 13, 14]",4,direct_gaze.png,j,1,2,pilot2,001,2026-04-02_15h33.22.749,mogelijke versie adaptive staircase builder,,2026.1.3,60.05273831470535,2026-04-02 15h33.22.946549 +0200,
17.5,ecc0,mid,19,0,19,f,0,2.4810941000005187,None,0,1,1,1,19,0,19,0,289.7445547999996,,,,,,,,,,,,289.7329934999998,289.7445547999996,290.6526275999995,289.7445547999996,289.7445547999996,292.23655189999954,f,0,2.4810941000005187,None,direct,13,"[11, 15, 13, 14, 13]",5,direct_gaze.png,f,0,2,pilot2,001,2026-04-02_15h33.22.749,mogelijke versie adaptive staircase builder,,2026.1.3,60.05273831470535,2026-04-02 15h33.22.946549 +0200,
17.5,ecc0,mid,20,0,20,f,0,3.1367927999999665,None,0,1,1,1,20,0,20,0,292.3287343000002,,,,,,,,,,,,292.3183186999995,292.3287343000002,293.2361592999996,292.3287343000002,292.3287343000002,295.469736,f,0,3.1367927999999665,None,direct,14,"[11, 15, 13, 14, 13]",5,direct_gaze.png,f,0,2,pilot2,001,2026-04-02_15h33.22.749,mogelijke versie adaptive staircase builder,,2026.1.3,60.05273831470535,2026-04-02 15h33.22.946549 +0200,
17.5,ecc0,mid,21,0,21,f,1,3.0411009999997987,None,0,1,1,1,21,0,21,0,295.5605402000001,,,,,,,,,,,,295.5496708999999,295.5605402000001,296.4695228999999,295.5605402000001,295.5605402000001,298.6030681000002,f,1,3.0411009999997987,None,left,15,"[11, 15, 13, 14, 13]",5,gaze_L_15.png,f,1,2,pilot2,001,2026-04-02_15h33.22.749,mogelijke versie adaptive staircase builder,,2026.1.3,60.05273831470535,2026-04-02 15h33.22.946549 +0200,
17.5,ecc0,mid,22,0,22,f,0,2.804121799999848,None,0,1,1,1,22,0,22,0,298.70147259999976,,,,,,,,,,,,298.6905735999999,298.70147259999976,299.6026259999999,298.70147259999976,298.70147259999976,301.52007090000006,f,0,2.804121799999848,None,direct,15,"[11, 15, 13, 14, 13]",5,direct_gaze.png,f,0,2,pilot2,001,2026-04-02_15h33.22.749,mogelijke versie adaptive staircase builder,,2026.1.3,60.05273831470535,2026-04-02 15h33.22.946549 +0200,
17.5,ecc0,mid,23,0,23,j,0,2.727769299999636,None,0,1,1,1,23,0,23,0,301.60963830000037,,,,,,,,,,,,301.59911099999954,301.60963830000037,302.5359957999999,301.60963830000037,301.60963830000037,304.3529474999996,j,0,2.727769299999636,None,right,15,"[11, 15, 13, 14, 13]",5,gaze_R_15.png,j,0,2,pilot2,001,2026-04-02_15h33.22.749,mogelijke versie adaptive staircase builder,,2026.1.3,60.05273831470535,2026-04-02 15h33.22.946549 +0200,
17.5,ecc0,mid,24,0,24,j,0,2.546943199999987,None,0,1,1,1,24,0,24,0,304.44648719999986,,,,,,,,,,,,304.4351598000003,304.44648719999986,305.3525589999999,304.44648719999986,304.44648719999986,307.0029328999999,j,0,2.546943199999987,None,left,15,"[11, 15, 13, 14, 13]",5,gaze_L_15.png,j,0,2,pilot2,001,2026-04-02_15h33.22.749,mogelijke versie adaptive staircase builder,,2026.1.3,60.05273831470535,2026-04-02 15h33.22.946549 +0200,
17.5,ecc0,mid,25,0,25,f,1,3.1250804999999673,None,0,1,1,1,25,0,25,0,307.09242259999974,,,,,,,,,,,,307.0822801000004,307.09242259999974,308.0025932999997,307.09242259999974,307.09242259999974,310.21949049999967,f,1,3.1250804999999673,None,left,15,"[11, 15, 13, 14, 13]",5,gaze_L_15.png,f,1,2,pilot2,001,2026-04-02_15h33.22.749,mogelijke versie adaptive staircase builder,,2026.1.3,60.05273831470535,2026-04-02 15h33.22.946549 +0200,
17.5,ecc0,mid,26,0,26,j,0,2.7085278999993534,None,0,1,1,1,26,0,26,0,310.30912329999956,,,,,,,,,,,,310.29857340000035,310.30912329999956,311.2191829000003,310.30912329999956,310.30912329999956,313.0196199000002,j,0,2.7085278999993534,None,left,15,"[11, 15, 13, 14, 13]",5,gaze_L_15.png,j,0,2,pilot2,001,2026-04-02_15h33.22.749,mogelijke versie adaptive staircase builder,,2026.1.3,60.05273831470535,2026-04-02 15h33.22.946549 +0200,
17.5,ecc0,mid,27,0,27,f,1,2.31737990000056,None,0,1,1,1,27,0,27,0,313.11622050000005,,,,,,,,,,,,313.10474350000004,313.11622050000005,314.03577510000014,313.11622050000005,313.11622050000005,315.4361151000003,f,1,2.31737990000056,None,right,15,"[11, 15, 13, 14, 13]",5,gaze_R_15.png,f,1,2,pilot2,001,2026-04-02_15h33.22.749,mogelijke versie adaptive staircase builder,,2026.1.3,60.05273831470535,2026-04-02 15h33.22.946549 +0200,
17.5,ecc0,mid,28,0,28,f,0,3.0829556999997294,None,0,1,1,1,28,0,28,0,315.5267899999999,,,,,,,,,,,,315.51628530000016,315.5267899999999,316.43580399999973,315.5267899999999,315.5267899999999,318.61958119999963,f,0,3.0829556999997294,None,direct,15,"[11, 15, 13, 14, 13]",5,direct_gaze.png,f,0,2,pilot2,001,2026-04-02_15h33.22.749,mogelijke versie adaptive staircase builder,,2026.1.3,60.05273831470535,2026-04-02 15h33.22.946549 +0200,
17.5,ecc0,mid,29,0,29,j,1,2.197542599999906,None,0,1,1,1,29,0,29,0,318.71594989999994,,,,,,,,,,,,318.7049570999998,318.71594989999994,319.61915339999996,318.71594989999994,318.71594989999994,320.91944760000024,j,1,2.197542599999906,None,direct,15,"[11, 15, 13, 14, 13]",5,direct_gaze.png,j,1,2,pilot2,001,2026-04-02_15h33.22.749,mogelijke versie adaptive staircase builder,,2026.1.3,60.05273831470535,2026-04-02 15h33.22.946549 +0200,
17.5,ecc0,mid,30,0,30,j,1,2.7499806000005265,None,0,1,1,1,30,0,30,0,321.0115206999999,,,,,,,,,,,,321.0009662000002,321.0115206999999,321.91906560000007,321.0115206999999,321.0115206999999,323.76949239999976,j,1,2.7499806000005265,None,direct,15,"[11, 15, 13, 14, 13, 15]",6,direct_gaze.png,j,1,2,pilot2,001,2026-04-02_15h33.22.749,mogelijke versie adaptive staircase builder,,2026.1.3,60.05273831470535,2026-04-02 15h33.22.946549 +0200,
17.5,ecc0,mid,31,0,31,f,0,2.8621130999999878,None,0,1,1,1,31,0,31,0,323.8593490000003,,,,,,,,,,,,323.8489811999998,323.8593490000003,324.7700855000003,323.8593490000003,323.8593490000003,326.7361152000003,f,0,2.8621130999999878,None,direct,14,"[11, 15, 13, 14, 13, 15, 14]",7,direct_gaze.png,f,0,2,pilot2,001,2026-04-02_15h33.22.749,mogelijke versie adaptive staircase builder,,2026.1.3,60.05273831470535,2026-04-02 15h33.22.946549 +0200,
17.5,ecc0,mid,32,0,32,f,1,2.6282414999996035,None,0,1,1,1,32,0,32,0,326.8292057999997,,,,,,,,,,,,326.81754920000003,326.8292057999997,327.7357413,326.8292057999997,326.8292057999997,329.4692513,f,1,2.6282414999996035,None,right,15,"[11, 15, 13, 14, 13, 15, 14]",7,gaze_R_15.png,f,1,2,pilot2,001,2026-04-02_15h33.22.749,mogelijke versie adaptive staircase builder,,2026.1.3,60.05273831470535,2026-04-02 15h33.22.946549 +0200,
17.5,ecc0,mid,33,0,33,f,1,3.05466080000042,None,0,1,1,1,33,0,33,0,329.56299239999953,,,,,,,,,,,,329.5518470999996,329.56299239999953,330.4692771,329.56299239999953,329.56299239999953,332.6193038000001,f,1,3.05466080000042,None,right,15,"[11, 15, 13, 14, 13, 15, 14, 15]",8,gaze_R_15.png,f,1,2,pilot2,001,2026-04-02_15h33.22.749,mogelijke versie adaptive staircase builder,,2026.1.3,60.05273831470535,2026-04-02 15h33.22.946549 +0200,
17.5,ecc0,mid,34,0,34,f,0,3.9765565999996397,None,0,1,1,1,34,0,34,0,332.7128679999996,,,,,,,,,,,,332.70175970000037,332.7128679999996,333.6188863999996,332.7128679999996,332.7128679999996,336.7024768000001,f,0,3.9765565999996397,None,direct,14,"[11, 15, 13, 14, 13, 15, 14, 15, 14]",9,direct_gaze.png,f,0,2,pilot2,001,2026-04-02_15h33.22.749,mogelijke versie adaptive staircase builder,,2026.1.3,60.05273831470535,2026-04-02 15h33.22.946549 +0200,
17.5,ecc0,mid,35,0,35,f,1,2.6645132000003287,None,0,1,1,1,35,0,35,0,336.7930059999999,,,,,,,,,,,,336.7813385999998,336.7930059999999,337.7021713000004,336.7930059999999,336.7930059999999,339.4691015999997,f,1,2.6645132000003287,None,right,15,"[11, 15, 13, 14, 13, 15, 14, 15, 14]",9,gaze_R_15.png,f,1,2,pilot2,001,2026-04-02_15h33.22.749,mogelijke versie adaptive staircase builder,,2026.1.3,60.05273831470535,2026-04-02 15h33.22.946549 +0200,
17.5,ecc0,mid,36,0,36,j,1,2.6420459999999366,None,0,1,1,1,36,0,36,0,339.5595927000004,,,,,,,,,,,,339.5489699,339.5595927000004,340.4685116999999,339.5595927000004,339.5595927000004,342.20237929999985,j,1,2.6420459999999366,None,direct,15,"[11, 15, 13, 14, 13, 15, 14, 15, 14, 15]",10,direct_gaze.png,j,1,2,pilot2,001,2026-04-02_15h33.22.749,mogelijke versie adaptive staircase builder,,2026.1.3,60.05273831470535,2026-04-02 15h33.22.946549 +0200,
17.5,ecc0,mid,37,0,37,j,0,2.6095098000005237,None,0,1,1,1,37,0,37,0,342.2960184000003,,,,,,,,,,,,342.2854250999999,342.2960184000003,343.2022175000002,342.2960184000003,342.2960184000003,344.91907189999984,j,0,2.6095098000005237,None,right,14,"[11, 15, 13, 14, 13, 15, 14, 15, 14, 15, 14]",11,gaze_R_14.png,j,0,2,pilot2,001,2026-04-02_15h33.22.749,mogelijke versie adaptive staircase builder,,2026.1.3,60.05273831470535,2026-04-02 15h33.22.946549 +0200,
17.5,ecc0,mid,38,0,38,j,0,2.751739700000144,None,0,1,1,1,38,0,38,0,345.0097060999997,,,,,,,,,,,,344.9995954999995,345.0097060999997,345.9187966999998,345.0097060999997,345.0097060999997,347.76910979999957,j,0,2.751739700000144,None,right,15,"[11, 15, 13, 14, 13, 15, 14, 15, 14, 15, 14]",11,gaze_R_15.png,j,0,2,pilot2,001,2026-04-02_15h33.22.749,mogelijke versie adaptive staircase builder,,2026.1.3,60.05273831470535,2026-04-02 15h33.22.946549 +0200,
17.5,ecc0,mid,39,0,39,f,1,3.3020643999998356,None,0,1,1,1,39,0,39,0,347.8593469999996,,,,,,,,,,,,347.84917549999955,347.8593469999996,348.76874810000027,347.8593469999996,347.8593469999996,351.1690613999999,f,1,3.3020643999998356,None,left,15,"[11, 15, 13, 14, 13, 15, 14, 15, 14, 15, 14]",11,gaze_L_15.png,f,1,2,pilot2,001,2026-04-02_15h33.22.749,mogelijke versie adaptive staircase builder,,2026.1.3,60.05273831470535,2026-04-02 15h33.22.946549 +0200,
17.5,ecc0,mid,40,0,40,f,0,2.3069312999996328,None,0,1,1,1,40,0,40,0,351.2625331999998,,,,,,,,,,,,351.25110099999984,351.2625331999998,352.1686208000001,351.2625331999998,351.2625331999998,353.58578020000004,f,0,2.3069312999996328,None,direct,15,"[11, 15, 13, 14, 13, 15, 14, 15, 14, 15, 14]",11,direct_gaze.png,f,0,2,pilot2,001,2026-04-02_15h33.22.749,mogelijke versie adaptive staircase builder,,2026.1.3,60.05273831470535,2026-04-02 15h33.22.946549 +0200,
17.5,ecc0,mid,41,0,41,j,0,2.0690182999996978,None,0,1,1,1,41,0,41,0,353.6764712000004,,,,,,,,,,,,353.66618500000004,353.6764712000004,354.5852883999996,353.6764712000004,353.6764712000004,355.7522390000004,j,0,2.0690182999996978,None,left,15,"[11, 15, 13, 14, 13, 15, 14, 15, 14, 15, 14]",11,gaze_L_15.png,j,0,2,pilot2,001,2026-04-02_15h33.22.749,mogelijke versie adaptive staircase builder,,2026.1.3,60.05273831470535,2026-04-02 15h33.22.946549 +0200,
17.5,ecc0,mid,42,0,42,j,0,2.0481964000000517,None,0,1,1,1,42,0,42,0,355.84130110000024,,,,,,,,,,,,355.8300208999999,355.84130110000024,356.7519675000003,355.84130110000024,355.84130110000024,357.9029539000003,j,0,2.0481964000000517,None,left,15,"[11, 15, 13, 14, 13, 15, 14, 15, 14, 15, 14]",11,gaze_L_15.png,j,0,2,pilot2,001,2026-04-02_15h33.22.749,mogelijke versie adaptive staircase builder,,2026.1.3,60.05273831470535,2026-04-02 15h33.22.946549 +0200,
17.5,ecc0,mid,43,0,43,j,0,2.701637699999992,None,0,1,1,1,43,0,43,0,357.9958693999997,,,,,,,,,,,,357.98509230000036,357.9958693999997,358.9186458000004,357.9958693999997,357.9958693999997,360.7020805000002,j,0,2.701637699999992,None,left,15,"[11, 15, 13, 14, 13, 15, 14, 15, 14, 15, 14]",11,gaze_L_15.png,j,0,2,pilot2,001,2026-04-02_15h33.22.749,mogelijke versie adaptive staircase builder,,2026.1.3,60.05273831470535,2026-04-02 15h33.22.946549 +0200,
17.5,ecc0,mid,44,0,44,f,0,2.343394499999704,None,0,1,1,1,44,0,44,0,360.79421209999964,,,,,,,,,,,,360.78394370000024,360.79421209999964,361.7019522999999,360.79421209999964,360.79421209999964,363.1526617999998,f,0,2.343394499999704,None,direct,15,"[11, 15, 13, 14, 13, 15, 14, 15, 14, 15, 14]",11,direct_gaze.png,f,0,2,pilot2,001,2026-04-02_15h33.22.749,mogelijke versie adaptive staircase builder,,2026.1.3,60.05273831470535,2026-04-02 15h33.22.946549 +0200,
17.5,ecc0,mid,45,0,45,f,0,2.3758566000005885,None,0,1,1,1,45,0,45,0,363.2417026000003,,,,,,,,,,,,363.2309845,363.2417026000003,364.16839900000014,363.2417026000003,363.2417026000003,365.61896220000017,f,0,2.3758566000005885,None,direct,15,"[11, 15, 13, 14, 13, 15, 14, 15, 14, 15, 14]",11,direct_gaze.png,f,0,2,pilot2,001,2026-04-02_15h33.22.749,mogelijke versie adaptive staircase builder,,2026.1.3,60.05273831470535,2026-04-02 15h33.22.946549 +0200,
17.5,ecc0,mid,46,0,46,j,0,2.835372599999573,None,0,1,1,1,46,0,46,0,365.7101143,,,,,,,,,,,,365.6997527000003,365.7101143,366.6183353999995,365.7101143,365.7101143,368.5523555,j,0,2.835372599999573,None,right,15,"[11, 15, 13, 14, 13, 15, 14, 15, 14, 15, 14]",11,gaze_R_15.png,j,0,2,pilot2,001,2026-04-02_15h33.22.749,mogelijke versie adaptive staircase builder,,2026.1.3,60.05273831470535,2026-04-02 15h33.22.946549 +0200,
17.5,ecc0,mid,47,0,47,j,1,2.8359223999996175,None,0,1,1,1,47,0,47,0,368.6455630999999,,,,,,,,,,,,368.6348386999998,368.6455630999999,369.55176570000003,368.6455630999999,368.6455630999999,371.4853618999996,j,1,2.8359223999996175,None,direct,15,"[11, 15, 13, 14, 13, 15, 14, 15, 14, 15, 14]",11,direct_gaze.png,j,1,2,pilot2,001,2026-04-02_15h33.22.749,mogelijke versie adaptive staircase builder,,2026.1.3,60.05273831470535,2026-04-02 15h33.22.946549 +0200,
17.5,ecc0,mid,48,0,48,f,1,2.272687899999255,None,0,1,1,1,48,0,48,0,371.57676170000013,,,,,,,,,,,,371.56588379999994,371.57676170000013,372.4847645,371.57676170000013,371.57676170000013,373.85204559999966,f,1,2.272687899999255,None,left,15,"[11, 15, 13, 14, 13, 15, 14, 15, 14, 15, 14, 15]",12,gaze_L_15.png,f,1,2,pilot2,001,2026-04-02_15h33.22.749,mogelijke versie adaptive staircase builder,,2026.1.3,60.05273831470535,2026-04-02 15h33.22.946549 +0200,
17.5,ecc0,mid,49,0,49,f,1,3.043386499999542,None,0,1,1,1,49,0,49,0,373.9422195999996,,,,,,,,,,,,373.9320644999998,373.9422195999996,374.8517843999998,373.9422195999996,373.9422195999996,377.00202290000016,f,1,3.043386499999542,None,right,14,"[11, 15, 13, 14, 13, 15, 14, 15, 14, 15, 14, 15]",12,gaze_R_14.png,f,1,2,pilot2,001,2026-04-02_15h33.22.749,mogelijke versie adaptive staircase builder,,2026.1.3,60.05273831470535,2026-04-02 15h33.22.946549 +0200,
17.5,ecc0,mid,1,1,0,,,,,0,1,1,1,,,,,,,,,,,,,,,,,,,,,,,,,,,,,,,,,,,pilot2,001,2026-04-02_15h33.22.749,mogelijke versie adaptive staircase builder,,2026.1.3,60.05273831470535,2026-04-02 15h33.22.946549 +0200,
5.9,ecc10neg,right,0,0,0,j,0,2.937209900000198,None,0,2,2,2,0,0,0,0,377.10510689999956,,,,,,,,,,377.0044662,377.0045041000003,377.09396300000026,377.10510689999956,377.10510689999956,378.0183052000002,377.10510689999956,380.0520372000001,j,0,2.937209900000198,None,left,15,[],0,shiftedgaze_L_15.png,j,0,3,pilot2,001,2026-04-02_15h33.22.749,mogelijke versie adaptive staircase builder,,2026.1.3,60.05273831470535,2026-04-02 15h33.22.946549 +0200,
5.9,ecc10neg,right,1,0,1,j,1,2.52126700000008,None,0,2,2,2,1,0,1,0,380.15217980000034,,,,,,,,,,,,380.14135499999975,380.15217980000034,380.15217980000034,381.0515953000004,380.15217980000034,382.6849921000003,j,1,2.52126700000008,None,direct,15,[15],1,shifteddirectgaze.png,j,1,3,pilot2,001,2026-04-02_15h33.22.749,mogelijke versie adaptive staircase builder,,2026.1.3,60.05273831470535,2026-04-02 15h33.22.946549 +0200,
5.9,ecc10neg,right,2,0,2,j,0,2.5054614999999103,None,0,2,2,2,2,0,2,0,382.7840245999996,,,,,,,,,,,,382.77284880000025,382.7840245999996,382.7840245999996,383.6847294999998,382.7840245999996,385.30213360000016,j,0,2.5054614999999103,None,left,14,"[15, 14]",2,shiftedgaze_L_14.png,j,0,3,pilot2,001,2026-04-02_15h33.22.749,mogelijke versie adaptive staircase builder,,2026.1.3,60.05273831470535,2026-04-02 15h33.22.946549 +0200,
5.9,ecc10neg,right,3,0,3,f,0,2.193173399999978,None,0,2,2,2,3,0,3,0,385.39232489999995,,,,,,,,,,,,385.38137499999993,385.39232489999995,385.39232489999995,386.31838739999966,385.39232489999995,387.6019335000001,f,0,2.193173399999978,None,direct,15,"[15, 14]",2,shifteddirectgaze.png,f,0,3,pilot2,001,2026-04-02_15h33.22.749,mogelijke versie adaptive staircase builder,,2026.1.3,60.05273831470535,2026-04-02 15h33.22.946549 +0200,
5.9,ecc10neg,right,4,0,4,f,0,2.2494692000000214,None,0,2,2,2,4,0,4,0,387.6960356999998,,,,,,,,,,,,387.68460890000006,387.6960356999998,387.6960356999998,388.6015096000001,387.6960356999998,389.9518866999997,f,0,2.2494692000000214,None,direct,15,"[15, 14]",2,shifteddirectgaze.png,f,0,3,pilot2,001,2026-04-02_15h33.22.749,mogelijke versie adaptive staircase builder,,2026.1.3,60.05273831470535,2026-04-02 15h33.22.946549 +0200,
5.9,ecc10neg,right,5,0,5,f,0,2.478710499999579,None,0,2,2,2,5,0,5,0,390.0427246999998,,,,,,,,,,,,390.0317316999999,390.0427246999998,390.0427246999998,390.9514965999997,390.0427246999998,392.53524389999984,f,0,2.478710499999579,None,direct,15,"[15, 14]",2,shifteddirectgaze.png,f,0,3,pilot2,001,2026-04-02_15h33.22.749,mogelijke versie adaptive staircase builder,,2026.1.3,60.05273831470535,2026-04-02 15h33.22.946549 +0200,
5.9,ecc10neg,right,6,0,6,j,1,2.4714889000006224,None,0,2,2,2,6,0,6,0,392.63396999999986,,,,,,,,,,,,392.6227501000003,392.63396999999986,392.63396999999986,393.5349266000003,392.63396999999986,395.1185413000003,j,1,2.4714889000006224,None,direct,15,"[15, 14]",2,shifteddirectgaze.png,j,1,3,pilot2,001,2026-04-02_15h33.22.749,mogelijke versie adaptive staircase builder,,2026.1.3,60.05273831470535,2026-04-02 15h33.22.946549 +0200,
5.9,ecc10neg,right,7,0,7,j,0,2.3051071999998385,None,0,2,2,2,7,0,7,0,395.22447230000034,,,,,,,,,,,,395.21412450000025,395.22447230000034,395.22447230000034,396.1180392999995,395.22447230000034,397.5353662999996,j,0,2.3051071999998385,None,right,15,"[15, 14]",2,shiftedgaze_R_15.png,j,0,3,pilot2,001,2026-04-02_15h33.22.749,mogelijke versie adaptive staircase builder,,2026.1.3,60.05273831470535,2026-04-02 15h33.22.946549 +0200,
5.9,ecc10neg,right,8,0,8,f,1,2.2065673000006427,None,0,2,2,2,8,0,8,0,397.6269419999999,,,,,,,,,,,,397.6148368000004,397.6269419999999,397.6269419999999,398.55135470000005,397.6269419999999,399.8350164000003,f,1,2.2065673000006427,None,right,15,"[15, 14]",2,shiftedgaze_R_15.png,f,1,3,pilot2,001,2026-04-02_15h33.22.749,mogelijke versie adaptive staircase builder,,2026.1.3,60.05273831470535,2026-04-02 15h33.22.946549 +0200,
5.9,ecc10neg,right,9,0,9,f,0,2.0888075000002573,None,0,2,2,2,9,0,9,0,399.9290897000001,,,,,,,,,,,,399.91782690000036,399.9290897000001,399.9290897000001,400.8346541000001,399.9290897000001,402.0183624000001,f,0,2.0888075000002573,None,direct,15,"[15, 14]",2,shifteddirectgaze.png,f,0,3,pilot2,001,2026-04-02_15h33.22.749,mogelijke versie adaptive staircase builder,,2026.1.3,60.05273831470535,2026-04-02 15h33.22.946549 +0200,
5.9,ecc10neg,right,10,0,10,j,1,2.268480499999896,None,0,2,2,2,10,0,10,0,402.10896520000006,,,,,,,,,,,,402.09866580000016,402.10896520000006,402.10896520000006,403.0180094999996,402.10896520000006,404.38511430000017,j,1,2.268480499999896,None,direct,15,"[15, 14]",2,shifteddirectgaze.png,j,1,3,pilot2,001,2026-04-02_15h33.22.749,mogelijke versie adaptive staircase builder,,2026.1.3,60.05273831470535,2026-04-02 15h33.22.946549 +0200,
5.9,ecc10neg,right,11,0,11,f,1,1.843156299999464,None,0,2,2,2,11,0,11,0,404.4784059000003,,,,,,,,,,,,404.46710299999995,404.4784059000003,404.4784059000003,405.4011359999995,404.4784059000003,406.3350135999999,f,1,1.843156299999464,None,right,15,"[15, 14, 15]",3,shiftedgaze_R_15.png,f,1,3,pilot2,001,2026-04-02_15h33.22.749,mogelijke versie adaptive staircase builder,,2026.1.3,60.05273831470535,2026-04-02 15h33.22.946549 +0200,
5.9,ecc10neg,right,12,0,12,f,1,1.870760099999643,None,0,2,2,2,12,0,12,0,406.4348037,,,,,,,,,,,,406.4244550000003,406.4348037,406.4348037,407.3345459000002,406.4348037,408.3180500999997,f,1,1.870760099999643,None,right,14,"[15, 14, 15]",3,shiftedgaze_R_14.png,f,1,3,pilot2,001,2026-04-02_15h33.22.749,mogelijke versie adaptive staircase builder,,2026.1.3,60.05273831470535,2026-04-02 15h33.22.946549 +0200,
5.9,ecc10neg,right,13,0,13,f,0,2.3756398000004992,None,0,2,2,2,13,0,13,0,408.4097426999997,,,,,,,,,,,,408.39930989999993,408.4097426999997,408.4097426999997,409.31791150000026,408.4097426999997,410.8016238,f,0,2.3756398000004992,None,direct,14,"[15, 14, 15, 14]",4,shifteddirectgaze.png,f,0,3,pilot2,001,2026-04-02_15h33.22.749,mogelijke versie adaptive staircase builder,,2026.1.3,60.05273831470535,2026-04-02 15h33.22.946549 +0200,
5.9,ecc10neg,right,14,0,14,j,0,1.9839927000002717,None,0,2,2,2,14,0,14,0,410.8974724999998,,,,,,,,,,,,410.8868418000002,410.8974724999998,410.8974724999998,411.8014714000001,410.8974724999998,412.8846999999996,j,0,1.9839927000002717,None,left,15,"[15, 14, 15, 14]",4,shiftedgaze_L_15.png,j,0,3,pilot2,001,2026-04-02_15h33.22.749,mogelijke versie adaptive staircase builder,,2026.1.3,60.05273831470535,2026-04-02 15h33.22.946549 +0200,
5.9,ecc10neg,right,15,0,15,f,1,1.9993857999998,None,0,2,2,2,15,0,15,0,412.9782084999997,,,,,,,,,,,,412.9686135000002,412.9782084999997,412.9782084999997,413.8846550999997,412.9782084999997,414.9849828999995,f,1,1.9993857999998,None,right,15,"[15, 14, 15, 14]",4,shiftedgaze_R_15.png,f,1,3,pilot2,001,2026-04-02_15h33.22.749,mogelijke versie adaptive staircase builder,,2026.1.3,60.05273831470535,2026-04-02 15h33.22.946549 +0200,
5.9,ecc10neg,right,16,0,16,j,0,2.065796599999885,None,0,2,2,2,16,0,16,0,415.07965950000016,,,,,,,,,,,,415.0690112000002,415.07965950000016,415.07965950000016,415.98451680000016,415.07965950000016,417.15146079999977,j,0,2.065796599999885,None,left,15,"[15, 14, 15, 14]",4,shiftedgaze_L_15.png,j,0,3,pilot2,001,2026-04-02_15h33.22.749,mogelijke versie adaptive staircase builder,,2026.1.3,60.05273831470535,2026-04-02 15h33.22.946549 +0200,
5.9,ecc10neg,right,17,0,17,j,1,2.281276599999728,None,0,2,2,2,17,0,17,0,417.2481713999996,,,,,,,,,,,,417.2368704999999,417.2481713999996,417.2481713999996,418.150885,417.2481713999996,419.53486619999967,j,1,2.281276599999728,None,direct,15,"[15, 14, 15, 14]",4,shifteddirectgaze.png,j,1,3,pilot2,001,2026-04-02_15h33.22.749,mogelijke versie adaptive staircase builder,,2026.1.3,60.05273831470535,2026-04-02 15h33.22.946549 +0200,
5.9,ecc10neg,right,18,0,18,f,1,2.0130198000006203,None,0,2,2,2,18,0,18,0,419.6289334000003,,,,,,,,,,,,419.6186577999997,419.6289334000003,419.6289334000003,420.5511384000001,419.6289334000003,421.6515644000001,f,1,2.0130198000006203,None,right,15,"[15, 14, 15, 14, 15]",5,shiftedgaze_R_15.png,f,1,3,pilot2,001,2026-04-02_15h33.22.749,mogelijke versie adaptive staircase builder,,2026.1.3,60.05273831470535,2026-04-02 15h33.22.946549 +0200,
5.9,ecc10neg,right,19,0,19,j,1,2.02418839999973,None,0,2,2,2,19,0,19,0,421.7452102999996,,,,,,,,,,,,421.73432309999953,421.7452102999996,421.7452102999996,422.65112299999964,421.7452102999996,423.78471309999986,j,1,2.02418839999973,None,direct,14,"[15, 14, 15, 14, 15]",5,shifteddirectgaze.png,j,1,3,pilot2,001,2026-04-02_15h33.22.749,mogelijke versie adaptive staircase builder,,2026.1.3,60.05273831470535,2026-04-02 15h33.22.946549 +0200,
5.9,ecc10neg,right,20,0,20,f,1,1.9379845000003115,None,0,2,2,2,20,0,20,0,423.8799165999999,,,,,,,,,,,,423.8694201999997,423.8799165999999,423.8799165999999,424.7845089000002,423.8799165999999,425.83467389999987,f,1,1.9379845000003115,None,right,14,"[15, 14, 15, 14, 15]",5,shiftedgaze_R_14.png,f,1,3,pilot2,001,2026-04-02_15h33.22.749,mogelijke versie adaptive staircase builder,,2026.1.3,60.05273831470535,2026-04-02 15h33.22.946549 +0200,
5.9,ecc10neg,right,21,0,21,j,0,1.8729941000001418,None,0,2,2,2,21,0,21,0,425.93648550000034,,,,,,,,,,,,425.9264049000003,425.93648550000034,425.93648550000034,426.83442959999957,425.93648550000034,427.8179055999999,j,0,1.8729941000001418,None,left,13,"[15, 14, 15, 14, 15, 13]",6,shiftedgaze_L_13.png,j,0,3,pilot2,001,2026-04-02_15h33.22.749,mogelijke versie adaptive staircase builder,,2026.1.3,60.05273831470535,2026-04-02 15h33.22.946549 +0200,
5.9,ecc10neg,right,22,0,22,f,0,2.2539917000003697,None,0,2,2,2,22,0,22,0,427.9154109000001,,,,,,,,,,,,427.9018808000001,427.9154109000001,427.9154109000001,428.8174342000002,427.9154109000001,430.1846790999998,f,0,2.2539917000003697,None,direct,14,"[15, 14, 15, 14, 15, 13]",6,shifteddirectgaze.png,f,0,3,pilot2,001,2026-04-02_15h33.22.749,mogelijke versie adaptive staircase builder,,2026.1.3,60.05273831470535,2026-04-02 15h33.22.946549 +0200,
5.9,ecc10neg,right,23,0,23,f,1,2.1310450000000856,None,0,2,2,2,23,0,23,0,430.2784425,,,,,,,,,,,,430.2672193999997,430.2784425,430.2784425,431.184303,430.2784425,432.4179535000003,f,1,2.1310450000000856,None,left,15,"[15, 14, 15, 14, 15, 13]",6,shiftedgaze_L_15.png,f,1,3,pilot2,001,2026-04-02_15h33.22.749,mogelijke versie adaptive staircase builder,,2026.1.3,60.05273831470535,2026-04-02 15h33.22.946549 +0200,
5.9,ecc10neg,right,24,0,24,j,0,2.198684100000719,None,0,2,2,2,24,0,24,0,432.51473759999953,,,,,,,,,,,,432.50376849999975,432.51473759999953,432.51473759999953,433.41763770000034,432.51473759999953,434.7176870000003,j,0,2.198684100000719,None,left,15,"[15, 14, 15, 14, 15, 13]",6,shiftedgaze_L_15.png,j,0,3,pilot2,001,2026-04-02_15h33.22.749,mogelijke versie adaptive staircase builder,,2026.1.3,60.05273831470535,2026-04-02 15h33.22.946549 +0200,
5.9,ecc10neg,right,25,0,25,f,1,2.1150017999998454,None,0,2,2,2,25,0,25,0,434.81441129999985,,,,,,,,,,,,434.8015124000003,434.81441129999985,434.81441129999985,435.71750919999977,434.81441129999985,436.9345105000002,f,1,2.1150017999998454,None,right,15,"[15, 14, 15, 14, 15, 13]",6,shiftedgaze_R_15.png,f,1,3,pilot2,001,2026-04-02_15h33.22.749,mogelijke versie adaptive staircase builder,,2026.1.3,60.05273831470535,2026-04-02 15h33.22.946549 +0200,
5.9,ecc10neg,right,26,0,26,j,0,2.9567684000003283,None,0,2,2,2,26,0,26,0,437.02859759999956,,,,,,,,,,,,437.01863950000006,437.02859759999956,437.02859759999956,437.9342544000001,437.02859759999956,440.00110099999984,j,0,2.9567684000003283,None,left,15,"[15, 14, 15, 14, 15, 13]",6,shiftedgaze_L_15.png,j,0,3,pilot2,001,2026-04-02_15h33.22.749,mogelijke versie adaptive staircase builder,,2026.1.3,60.05273831470535,2026-04-02 15h33.22.946549 +0200,
5.9,ecc10neg,right,27,0,27,f,0,2.2551800999999614,None,0,2,2,2,27,0,27,0,440.09818579999956,,,,,,,,,,,,440.0876664999996,440.09818579999956,440.09818579999956,441.00069879999955,440.09818579999956,442.36770330000036,f,0,2.2551800999999614,None,direct,15,"[15, 14, 15, 14, 15, 13]",6,shifteddirectgaze.png,f,0,3,pilot2,001,2026-04-02_15h33.22.749,mogelijke versie adaptive staircase builder,,2026.1.3,60.05273831470535,2026-04-02 15h33.22.946549 +0200,
5.9,ecc10neg,right,28,0,28,f,0,2.7371290999999474,None,0,2,2,2,28,0,28,0,442.4642861000002,,,,,,,,,,,,442.45391540000037,442.4642861000002,442.4642861000002,443.3675536999999,442.4642861000002,445.2176241999996,f,0,2.7371290999999474,None,direct,15,"[15, 14, 15, 14, 15, 13]",6,shifteddirectgaze.png,f,0,3,pilot2,001,2026-04-02_15h33.22.749,mogelijke versie adaptive staircase builder,,2026.1.3,60.05273831470535,2026-04-02 15h33.22.946549 +0200,
5.9,ecc10neg,right,29,0,29,f,1,2.5779898999999205,None,0,2,2,2,29,0,29,0,445.31157669999993,,,,,,,,,,,,445.30107919999955,445.31157669999993,445.31157669999993,446.21738129999994,445.31157669999993,447.9011005000002,f,1,2.5779898999999205,None,right,15,"[15, 14, 15, 14, 15, 13]",6,shiftedgaze_R_15.png,f,1,3,pilot2,001,2026-04-02_15h33.22.749,mogelijke versie adaptive staircase builder,,2026.1.3,60.05273831470535,2026-04-02 15h33.22.946549 +0200,
5.9,ecc10neg,right,30,0,30,j,1,2.56409530000019,None,0,2,2,2,30,0,30,0,447.9973809000003,,,,,,,,,,,,447.9864526000001,447.9973809000003,447.9973809000003,448.9005582,447.9973809000003,450.5677341999999,j,1,2.56409530000019,None,direct,15,"[15, 14, 15, 14, 15, 13, 15]",7,shifteddirectgaze.png,j,1,3,pilot2,001,2026-04-02_15h33.22.749,mogelijke versie adaptive staircase builder,,2026.1.3,60.05273831470535,2026-04-02 15h33.22.946549 +0200,
5.9,ecc10neg,right,31,0,31,f,1,2.9783747999999832,None,0,2,2,2,31,0,31,0,450.6630839999998,,,,,,,,,,,,450.65289159999975,450.6630839999998,450.6630839999998,451.5673526999999,450.6630839999998,453.65118449999954,f,1,2.9783747999999832,None,right,14,"[15, 14, 15, 14, 15, 13, 15]",7,shiftedgaze_R_14.png,f,1,3,pilot2,001,2026-04-02_15h33.22.749,mogelijke versie adaptive staircase builder,,2026.1.3,60.05273831470535,2026-04-02 15h33.22.946549 +0200,
5.9,ecc10neg,right,32,0,32,f,1,4.7204514000004565,None,0,2,2,2,32,0,32,0,453.74499939999987,,,,,,,,,,,,453.7345419000003,453.74499939999987,453.74499939999987,454.6505850000003,453.74499939999987,458.4676555999995,f,1,4.7204514000004565,None,right,14,"[15, 14, 15, 14, 15, 13, 15]",7,shiftedgaze_R_14.png,f,1,3,pilot2,001,2026-04-02_15h33.22.749,mogelijke versie adaptive staircase builder,,2026.1.3,60.05273831470535,2026-04-02 15h33.22.946549 +0200,
5.9,ecc10neg,right,33,0,33,f,1,2.534474699999919,None,0,2,2,2,33,0,33,0,458.56300159999955,,,,,,,,,,,,458.55176180000035,458.56300159999955,458.56300159999955,459.4673729999995,458.56300159999955,461.10086709999996,f,1,2.534474699999919,None,left,13,"[15, 14, 15, 14, 15, 13, 15]",7,shiftedgaze_L_13.png,f,1,3,pilot2,001,2026-04-02_15h33.22.749,mogelijke versie adaptive staircase builder,,2026.1.3,60.05273831470535,2026-04-02 15h33.22.946549 +0200,
5.9,ecc10neg,right,34,0,34,j,0,2.6113212999998723,None,0,2,2,2,34,0,34,0,461.19816379999975,,,,,,,,,,,,461.1879466999999,461.19816379999975,461.19816379999975,462.1002520000002,461.19816379999975,463.81754980000005,j,0,2.6113212999998723,None,left,13,"[15, 14, 15, 14, 15, 13, 15, 13]",8,shiftedgaze_L_13.png,j,0,3,pilot2,001,2026-04-02_15h33.22.749,mogelijke versie adaptive staircase builder,,2026.1.3,60.05273831470535,2026-04-02 15h33.22.946549 +0200,
5.9,ecc10neg,right,35,0,35,j,0,2.494615800000247,None,0,2,2,2,35,0,35,0,463.9148232999996,,,,,,,,,,,,463.90408800000023,463.9148232999996,463.9148232999996,464.8171562999996,463.9148232999996,466.41752149999957,j,0,2.494615800000247,None,left,14,"[15, 14, 15, 14, 15, 13, 15, 13]",8,shiftedgaze_L_14.png,j,0,3,pilot2,001,2026-04-02_15h33.22.749,mogelijke versie adaptive staircase builder,,2026.1.3,60.05273831470535,2026-04-02 15h33.22.946549 +0200,
5.9,ecc10neg,right,36,0,36,f,1,2.721184099999846,None,0,2,2,2,36,0,36,0,466.51235110000016,,,,,,,,,,,,466.5019106,466.51235110000016,466.51235110000016,467.4171226999997,466.51235110000016,469.23417119999976,f,1,2.721184099999846,None,left,15,"[15, 14, 15, 14, 15, 13, 15, 13]",8,shiftedgaze_L_15.png,f,1,3,pilot2,001,2026-04-02_15h33.22.749,mogelijke versie adaptive staircase builder,,2026.1.3,60.05273831470535,2026-04-02 15h33.22.946549 +0200,
5.9,ecc10neg,right,37,0,37,j,0,2.238109400000212,None,0,2,2,2,37,0,37,0,469.3313761999998,,,,,,,,,,,,469.3210462999996,469.3313761999998,469.3313761999998,470.2337243000002,469.3313761999998,471.5842474000001,j,0,2.238109400000212,None,left,15,"[15, 14, 15, 14, 15, 13, 15, 13]",8,shiftedgaze_L_15.png,j,0,3,pilot2,001,2026-04-02_15h33.22.749,mogelijke versie adaptive staircase builder,,2026.1.3,60.05273831470535,2026-04-02 15h33.22.946549 +0200,
5.9,ecc10neg,right,38,0,38,f,0,3.991759600000478,None,0,2,2,2,38,0,38,0,471.68973149999965,,,,,,,,,,,,471.67828240000017,471.68973149999965,471.68973149999965,472.5836572999997,471.68973149999965,475.6841629999999,f,0,3.991759600000478,None,direct,15,"[15, 14, 15, 14, 15, 13, 15, 13]",8,shifteddirectgaze.png,f,0,3,pilot2,001,2026-04-02_15h33.22.749,mogelijke versie adaptive staircase builder,,2026.1.3,60.05273831470535,2026-04-02 15h33.22.946549 +0200,
5.9,ecc10neg,right,39,0,39,f,1,2.8875889999999345,None,0,2,2,2,39,0,39,0,475.7778331999998,,,,,,,,,,,,475.76783869999963,475.7778331999998,475.7778331999998,476.70028980000006,475.7778331999998,478.6674836000002,f,1,2.8875889999999345,None,right,15,"[15, 14, 15, 14, 15, 13, 15, 13]",8,shiftedgaze_R_15.png,f,1,3,pilot2,001,2026-04-02_15h33.22.749,mogelijke versie adaptive staircase builder,,2026.1.3,60.05273831470535,2026-04-02 15h33.22.946549 +0200,
5.9,ecc10neg,right,40,0,40,f,0,2.482578199999807,None,0,2,2,2,40,0,40,0,478.7669864999998,,,,,,,,,,,,478.7565469000001,478.7669864999998,478.7669864999998,479.66699900000003,478.7669864999998,481.2506317999996,f,0,2.482578199999807,None,direct,15,"[15, 14, 15, 14, 15, 13, 15, 13]",8,shifteddirectgaze.png,f,0,3,pilot2,001,2026-04-02_15h33.22.749,mogelijke versie adaptive staircase builder,,2026.1.3,60.05273831470535,2026-04-02 15h33.22.946549 +0200,
5.9,ecc10neg,right,41,0,41,f,1,2.7328967000003104,None,0,2,2,2,41,0,41,0,481.3485773000002,,,,,,,,,,,,481.3373875999996,481.3485773000002,481.3485773000002,482.2670290999995,481.3485773000002,484.0840121000001,f,1,2.7328967000003104,None,right,15,"[15, 14, 15, 14, 15, 13, 15, 13]",8,shiftedgaze_R_15.png,f,1,3,pilot2,001,2026-04-02_15h33.22.749,mogelijke versie adaptive staircase builder,,2026.1.3,60.05273831470535,2026-04-02 15h33.22.946549 +0200,
5.9,ecc10neg,right,42,0,42,j,0,3.3098667000003843,None,0,2,2,2,42,0,42,0,484.17961490000016,,,,,,,,,,,,484.16938889999983,484.17961490000016,484.17961490000016,485.0836098,484.17961490000016,487.50058809999973,j,0,3.3098667000003843,None,right,15,"[15, 14, 15, 14, 15, 13, 15, 13]",8,shiftedgaze_R_15.png,j,0,3,pilot2,001,2026-04-02_15h33.22.749,mogelijke versie adaptive staircase builder,,2026.1.3,60.05273831470535,2026-04-02 15h33.22.946549 +0200,
5.9,ecc10neg,right,43,0,43,j,1,3.0368091000000277,None,0,2,2,2,43,0,43,0,487.5968375000002,,,,,,,,,,,,487.5856910000002,487.5968375000002,487.5968375000002,488.5000441000002,487.5968375000002,490.6506129999998,j,1,3.0368091000000277,None,direct,15,"[15, 14, 15, 14, 15, 13, 15, 13]",8,shifteddirectgaze.png,j,1,3,pilot2,001,2026-04-02_15h33.22.749,mogelijke versie adaptive staircase builder,,2026.1.3,60.05273831470535,2026-04-02 15h33.22.946549 +0200,
5.9,ecc10neg,right,44,0,44,j,0,2.7497127999995428,None,0,2,2,2,44,0,44,0,490.7477466999999,,,,,,,,,,,,490.737255,490.7477466999999,490.7477466999999,491.65024939999967,490.7477466999999,493.50057240000024,j,0,2.7497127999995428,None,right,15,"[15, 14, 15, 14, 15, 13, 15, 13]",8,shiftedgaze_R_15.png,j,0,3,pilot2,001,2026-04-02_15h33.22.749,mogelijke versie adaptive staircase builder,,2026.1.3,60.05273831470535,2026-04-02 15h33.22.946549 +0200,
5.9,ecc10neg,right,45,0,45,j,1,2.7473712999999407,None,0,2,2,2,45,0,45,0,493.5981380000003,,,,,,,,,,,,493.5878165000004,493.5981380000003,493.5981380000003,494.5001331000003,493.5981380000003,496.35053679999965,j,1,2.7473712999999407,None,direct,15,"[15, 14, 15, 14, 15, 13, 15, 13]",8,shifteddirectgaze.png,j,1,3,pilot2,001,2026-04-02_15h33.22.749,mogelijke versie adaptive staircase builder,,2026.1.3,60.05273831470535,2026-04-02 15h33.22.946549 +0200,
5.9,ecc10neg,right,46,0,46,f,1,3.7398685999996815,None,0,2,2,2,46,0,46,0,496.44584870000017,,,,,,,,,,,,496.4350056000003,496.44584870000017,496.44584870000017,497.3501030999996,496.44584870000017,500.2001841000001,f,1,3.7398685999996815,None,left,15,"[15, 14, 15, 14, 15, 13, 15, 13, 15]",9,shiftedgaze_L_15.png,f,1,3,pilot2,001,2026-04-02_15h33.22.749,mogelijke versie adaptive staircase builder,,2026.1.3,60.05273831470535,2026-04-02 15h33.22.946549 +0200,
5.9,ecc10neg,right,47,0,47,f,1,2.6406318999997893,None,0,2,2,2,47,0,47,0,500.2968689999998,,,,,,,,,,,,500.2862262999997,500.2968689999998,500.2968689999998,501.20000119999986,500.2968689999998,502.9501984999997,f,1,2.6406318999997893,None,right,14,"[15, 14, 15, 14, 15, 13, 15, 13, 15]",9,shiftedgaze_R_14.png,f,1,3,pilot2,001,2026-04-02_15h33.22.749,mogelijke versie adaptive staircase builder,,2026.1.3,60.05273831470535,2026-04-02 15h33.22.946549 +0200,
5.9,ecc10neg,right,48,0,48,j,0,2.7536730000001626,None,0,2,2,2,48,0,48,0,503.0477197,,,,,,,,,,,,503.03677549999975,503.0477197,503.0477197,503.9497173,503.0477197,505.8170577000001,j,0,2.7536730000001626,None,right,14,"[15, 14, 15, 14, 15, 13, 15, 13, 15, 14]",10,shiftedgaze_R_14.png,j,0,3,pilot2,001,2026-04-02_15h33.22.749,mogelijke versie adaptive staircase builder,,2026.1.3,60.05273831470535,2026-04-02 15h33.22.946549 +0200,
5.9,ecc10neg,right,49,0,49,f,0,2.911022399999638,None,0,2,2,2,49,0,49,0,505.9143965000003,,,,,,,,,,,,505.9031176999997,505.9143965000003,505.9143965000003,506.8165861999996,505.9143965000003,508.8336591999996,f,0,2.911022399999638,None,direct,15,"[15, 14, 15, 14, 15, 13, 15, 13, 15, 14]",10,shifteddirectgaze.png,f,0,3,pilot2,001,2026-04-02_15h33.22.749,mogelijke versie adaptive staircase builder,,2026.1.3,60.05273831470535,2026-04-02 15h33.22.946549 +0200,
5.9,ecc10neg,right,2,2,0,,,,,0,2,2,2,,,,,,,,,,,,,,,,,,,,,,,,,,,,,,,,,,,pilot2,001,2026-04-02_15h33.22.749,mogelijke versie adaptive staircase builder,,2026.1.3,60.05273831470535,2026-04-02 15h33.22.946549 +0200,
