xPos,stimulusSet,whichImage,thisN,thisTrialN,thisRepN,key_resp.keys,key_resp.corr,key_resp.rt,key_resp.duration,blocks.thisRepN,blocks.thisTrialN,blocks.thisN,blocks.thisIndex,trials.thisRepN,trials.thisTrialN,trials.thisN,trials.thisIndex,thisRow.t,notes,piloting,intro.started,introinstructions.started,intro_key.started,intro.stopped,intro_key.keys,intro_key.rt,intro_key.duration,block_start.started,block_start.stopped,trial.started,key_resp.started,middle_image.started,right_image.started,left_image.started,trial.stopped,trials.key_resp.keys,trials.key_resp.corr,trials.key_resp.rt,trials.key_resp.duration,direction,angle,reversal_intensities,number_reversals,stimulus,response,correct,blockNumber,participant,session,date,expName,expVersion,psychopyVersion,frameRate,expStart,
,,,,,,,,,,,,,,,,,,,,False,0.051050199999735923,0.05830690000038885,0.05830690000038885,57.989389700000174,space,57.922891599999275,None,,,,,,,,,,,,,,,,,,,,,pilot4,001,2026-04-02_16h28.58.862,mogelijke versie adaptive staircase builder,,2026.1.3,59.97713671594799,2026-04-02 16h28.59.060554 +0200,
29.1,ecc10pos,left,0,0,0,j,0,2.9312885999988794,None,0,0,0,0,0,0,0,0,58.289932300000146,,,,,,,,,,58.17318250000062,58.17328989999987,58.27953499999967,58.289932300000146,58.289932300000146,58.289932300000146,59.1724004000007,61.22289600000113,j,0,2.9312885999988794,None,right,15,[],0,shiftedgaze_R_15.png,j,0,1,pilot4,001,2026-04-02_16h28.58.862,mogelijke versie adaptive staircase builder,,2026.1.3,59.97713671594799,2026-04-02 16h28.59.060554 +0200,
29.1,ecc10pos,left,1,0,1,f,0,16.781931900000927,None,0,0,0,0,1,0,1,0,61.32720440000048,,,,,,,,,,,,61.314814999999726,61.32720440000048,61.32720440000048,61.32720440000048,62.22235929999988,78.12242140000126,f,0,16.781931900000927,None,direct,15,[],0,shifteddirectgaze.png,f,0,1,pilot4,001,2026-04-02_16h28.58.862,mogelijke versie adaptive staircase builder,,2026.1.3,59.97713671594799,2026-04-02 16h28.59.060554 +0200,
29.1,ecc10pos,left,2,0,2,j,0,4.812933100000009,None,0,0,0,0,2,0,2,0,78.22413030000098,,,,,,,,,,,,78.21385960000043,78.22413030000098,78.22413030000098,78.22413030000098,79.13895980000052,83.03898200000003,j,0,4.812933100000009,None,right,15,[],0,shiftedgaze_R_15.png,j,0,1,pilot4,001,2026-04-02_16h28.58.862,mogelijke versie adaptive staircase builder,,2026.1.3,59.97713671594799,2026-04-02 16h28.59.060554 +0200,
29.1,ecc10pos,left,3,0,3,f,0,3.915338000000702,None,0,0,0,0,3,0,3,0,83.1377123000002,,,,,,,,,,,,83.12753490000068,83.1377123000002,83.1377123000002,83.1377123000002,84.03858589999982,87.0557514000011,f,0,3.915338000000702,None,direct,15,[],0,shifteddirectgaze.png,f,0,1,pilot4,001,2026-04-02_16h28.58.862,mogelijke versie adaptive staircase builder,,2026.1.3,59.97713671594799,2026-04-02 16h28.59.060554 +0200,
29.1,ecc10pos,left,4,0,4,j,0,6.3609692999998515,None,0,0,0,0,4,0,4,0,87.15613959999973,,,,,,,,,,,,87.1446305999998,87.15613959999973,87.15613959999973,87.15613959999973,88.05534760000046,93.52234760000101,j,0,6.3609692999998515,None,right,15,[],0,shiftedgaze_R_15.png,j,0,1,pilot4,001,2026-04-02_16h28.58.862,mogelijke versie adaptive staircase builder,,2026.1.3,59.97713671594799,2026-04-02 16h28.59.060554 +0200,
29.1,ecc10pos,left,5,0,5,f,1,7.763251000000309,None,0,0,0,0,5,0,5,0,93.6337953000002,,,,,,,,,,,,93.62346070000058,93.6337953000002,93.6337953000002,93.6337953000002,94.52201710000008,101.4053866000013,f,1,7.763251000000309,None,left,15,[15],1,shiftedgaze_L_15.png,f,1,1,pilot4,001,2026-04-02_16h28.58.862,mogelijke versie adaptive staircase builder,,2026.1.3,59.97713671594799,2026-04-02 16h28.59.060554 +0200,
29.1,ecc10pos,left,6,0,6,j,0,8.37813030000143,None,0,0,0,0,6,0,6,0,101.51491350000106,,,,,,,,,,,,101.50515230000019,101.51491350000106,101.51491350000106,101.51491350000106,102.40506730000016,109.90529040000001,j,0,8.37813030000143,None,left,14,"[15, 14]",2,shiftedgaze_L_14.png,j,0,1,pilot4,001,2026-04-02_16h28.58.862,mogelijke versie adaptive staircase builder,,2026.1.3,59.97713671594799,2026-04-02 16h28.59.060554 +0200,
29.1,ecc10pos,left,7,0,7,f,0,7.009468399999605,None,0,0,0,0,7,0,7,0,110.00370830000065,,,,,,,,,,,,109.993098500001,110.00370830000065,110.00370830000065,110.00370830000065,110.9048531999997,117.02208799999971,f,0,7.009468399999605,None,direct,15,"[15, 14]",2,shifteddirectgaze.png,f,0,1,pilot4,001,2026-04-02_16h28.58.862,mogelijke versie adaptive staircase builder,,2026.1.3,59.97713671594799,2026-04-02 16h28.59.060554 +0200,
29.1,ecc10pos,left,8,0,8,j,1,7.608616499999698,None,0,0,0,0,8,0,8,0,117.12447940000129,,,,,,,,,,,,117.11266989999967,117.12447940000129,117.12447940000129,117.12447940000129,118.02143280000018,124.73843959999977,j,1,7.608616499999698,None,direct,15,"[15, 14]",2,shifteddirectgaze.png,j,1,1,pilot4,001,2026-04-02_16h28.58.862,mogelijke versie adaptive staircase builder,,2026.1.3,59.97713671594799,2026-04-02 16h28.59.060554 +0200,
29.1,ecc10pos,left,9,0,9,j,0,10.90827790000003,None,0,0,0,0,9,0,9,0,124.84874839999975,,,,,,,,,,,,124.83885259999988,124.84874839999975,124.84874839999975,124.84874839999975,125.73812890000045,135.77150559999973,j,0,10.90827790000003,None,left,15,"[15, 14]",2,shiftedgaze_L_15.png,j,0,1,pilot4,001,2026-04-02_16h28.58.862,mogelijke versie adaptive staircase builder,,2026.1.3,59.97713671594799,2026-04-02 16h28.59.060554 +0200,
29.1,ecc10pos,left,10,0,10,f,1,8.602559899998596,None,0,0,0,0,10,0,10,0,135.88234999999986,,,,,,,,,,,,135.8695375999996,135.88234999999986,135.88234999999986,135.88234999999986,136.7717745000009,144.48804630000086,f,1,8.602559899998596,None,right,15,"[15, 14]",2,shiftedgaze_R_15.png,f,1,1,pilot4,001,2026-04-02_16h28.58.862,mogelijke versie adaptive staircase builder,,2026.1.3,59.97713671594799,2026-04-02 16h28.59.060554 +0200,
29.1,ecc10pos,left,11,0,11,f,1,12.2888968999996,None,0,0,0,0,11,0,11,0,144.58827139999994,,,,,,,,,,,,144.57781299999988,144.58827139999994,144.58827139999994,144.58827139999994,145.4877661999999,156.8881435000003,f,1,12.2888968999996,None,right,15,"[15, 14, 15]",3,shiftedgaze_R_15.png,f,1,1,pilot4,001,2026-04-02_16h28.58.862,mogelijke versie adaptive staircase builder,,2026.1.3,59.97713671594799,2026-04-02 16h28.59.060554 +0200,
29.1,ecc10pos,left,12,0,12,f,1,12.207465800000136,None,0,0,0,0,12,0,12,0,156.9895634000004,,,,,,,,,,,,156.97875659999954,156.9895634000004,156.9895634000004,156.9895634000004,157.88774060000105,169.20450979999987,f,1,12.207465800000136,None,right,14,"[15, 14, 15]",3,shiftedgaze_R_14.png,f,1,1,pilot4,001,2026-04-02_16h28.58.862,mogelijke versie adaptive staircase builder,,2026.1.3,59.97713671594799,2026-04-02 16h28.59.060554 +0200,
29.1,ecc10pos,left,13,0,13,j,0,27.898143400001572,None,0,0,0,0,13,0,13,0,169.29902670000047,,,,,,,,,,,,169.28724070000135,169.29902670000047,169.29902670000047,169.29902670000047,170.2041680000002,197.20422619999954,j,0,27.898143400001572,None,left,14,"[15, 14, 15, 14]",4,shiftedgaze_L_14.png,j,0,1,pilot4,001,2026-04-02_16h28.58.862,mogelijke versie adaptive staircase builder,,2026.1.3,59.97713671594799,2026-04-02 16h28.59.060554 +0200,
29.1,ecc10pos,left,14,0,14,f,0,18.94677740000043,None,0,0,0,0,14,0,14,0,197.29825789999995,,,,,,,,,,,,197.28769760000068,197.29825789999995,197.29825789999995,197.29825789999995,198.20384510000076,216.2540116,f,0,18.94677740000043,None,direct,15,"[15, 14, 15, 14]",4,shifteddirectgaze.png,f,0,1,pilot4,001,2026-04-02_16h28.58.862,mogelijke versie adaptive staircase builder,,2026.1.3,59.97713671594799,2026-04-02 16h28.59.060554 +0200,
29.1,ecc10pos,left,15,0,15,j,0,21.760045300001366,None,0,0,0,0,15,0,15,0,216.34987739999997,,,,,,,,,,,,216.33857900000112,216.34987739999997,216.34987739999997,216.34987739999997,217.25357819999954,238.12040390000038,j,0,21.760045300001366,None,right,15,"[15, 14, 15, 14]",4,shiftedgaze_R_15.png,j,0,1,pilot4,001,2026-04-02_16h28.58.862,mogelijke versie adaptive staircase builder,,2026.1.3,59.97713671594799,2026-04-02 16h28.59.060554 +0200,
29.1,ecc10pos,left,16,0,16,f,0,16.95090159999927,None,0,0,0,0,16,0,16,0,238.21418900000026,,,,,,,,,,,,238.2023038999996,238.21418900000026,238.21418900000026,238.21418900000026,239.12009630000102,255.17001680000067,f,0,16.95090159999927,None,direct,15,"[15, 14, 15, 14]",4,shifteddirectgaze.png,f,0,1,pilot4,001,2026-04-02_16h28.58.862,mogelijke versie adaptive staircase builder,,2026.1.3,59.97713671594799,2026-04-02 16h28.59.060554 +0200,
29.1,ecc10pos,left,17,0,17,f,1,15.006639199998972,None,0,0,0,0,17,0,17,0,255.26249430000098,,,,,,,,,,,,255.25223180000103,255.26249430000098,255.26249430000098,255.26249430000098,256.16989490000014,270.26980790000016,f,1,15.006639199998972,None,right,15,"[15, 14, 15, 14]",4,shiftedgaze_R_15.png,f,1,1,pilot4,001,2026-04-02_16h28.58.862,mogelijke versie adaptive staircase builder,,2026.1.3,59.97713671594799,2026-04-02 16h28.59.060554 +0200,
29.1,ecc10pos,left,18,0,18,j,0,28.98472849999962,None,0,0,0,0,18,0,18,0,270.3723865000011,,,,,,,,,,,,270.3620479000001,270.3723865000011,270.3723865000011,270.3723865000011,271.26946710000084,299.36950350000006,j,0,28.98472849999962,None,left,15,"[15, 14, 15, 14]",4,shiftedgaze_L_15.png,j,0,1,pilot4,001,2026-04-02_16h28.58.862,mogelijke versie adaptive staircase builder,,2026.1.3,59.97713671594799,2026-04-02 16h28.59.060554 +0200,
29.1,ecc10pos,left,19,0,19,f,1,23.310737199999494,None,0,0,0,0,19,0,19,0,299.47826390000046,,,,,,,,,,,,299.4684883000009,299.47826390000046,299.47826390000046,299.47826390000046,300.3691290000006,322.80225900000005,f,1,23.310737199999494,None,right,15,"[15, 14, 15, 14]",4,shiftedgaze_R_15.png,f,1,1,pilot4,001,2026-04-02_16h28.58.862,mogelijke versie adaptive staircase builder,,2026.1.3,59.97713671594799,2026-04-02 16h28.59.060554 +0200,
29.1,ecc10pos,left,20,0,20,j,0,19.449809800000367,None,0,0,0,0,20,0,20,0,322.9073504000007,,,,,,,,,,,,322.8965210000006,322.9073504000007,322.9073504000007,322.9073504000007,323.80201990000023,342.36907969999993,j,0,19.449809800000367,None,left,15,"[15, 14, 15, 14]",4,shiftedgaze_L_15.png,j,0,1,pilot4,001,2026-04-02_16h28.58.862,mogelijke versie adaptive staircase builder,,2026.1.3,59.97713671594799,2026-04-02 16h28.59.060554 +0200,
29.1,ecc10pos,left,21,0,21,f,0,50.0929232999988,None,0,0,0,0,21,0,21,0,342.480152600001,,,,,,,,,,,,342.46903510000084,342.480152600001,342.480152600001,342.480152600001,343.3687281000002,392.5849502000001,f,0,50.0929232999988,None,direct,15,"[15, 14, 15, 14]",4,shifteddirectgaze.png,f,0,1,pilot4,001,2026-04-02_16h28.58.862,mogelijke versie adaptive staircase builder,,2026.1.3,59.97713671594799,2026-04-02 16h28.59.060554 +0200,
29.1,ecc10pos,left,22,0,22,j,0,15.184797899999467,None,0,0,0,0,22,0,22,0,392.6922243000008,,,,,,,,,,,,392.6823519999998,392.6922243000008,392.6922243000008,392.6922243000008,393.5846741000005,407.88460850000047,j,0,15.184797899999467,None,left,15,"[15, 14, 15, 14]",4,shiftedgaze_L_15.png,j,0,1,pilot4,001,2026-04-02_16h28.58.862,mogelijke versie adaptive staircase builder,,2026.1.3,59.97713671594799,2026-04-02 16h28.59.060554 +0200,
29.1,ecc10pos,left,23,0,23,f,0,19.01896829999896,None,0,0,0,0,23,0,23,0,407.9941176000011,,,,,,,,,,,,407.9845053000008,407.9941176000011,407.9941176000011,407.9941176000011,408.8841830000001,427.01780450000115,f,0,19.01896829999896,None,direct,15,"[15, 14, 15, 14]",4,shifteddirectgaze.png,f,0,1,pilot4,001,2026-04-02_16h28.58.862,mogelijke versie adaptive staircase builder,,2026.1.3,59.97713671594799,2026-04-02 16h28.59.060554 +0200,
29.1,ecc10pos,left,24,0,24,j,1,15.916645100000096,None,0,0,0,0,24,0,24,0,427.12033060000067,,,,,,,,,,,,427.1092528999998,427.12033060000067,427.12033060000067,427.12033060000067,428.01743850000094,443.05078800000047,j,1,15.916645100000096,None,direct,15,"[15, 14, 15, 14]",4,shifteddirectgaze.png,j,1,1,pilot4,001,2026-04-02_16h28.58.862,mogelijke versie adaptive staircase builder,,2026.1.3,59.97713671594799,2026-04-02 16h28.59.060554 +0200,
29.1,ecc10pos,left,25,0,25,j,0,16.843177300001116,None,0,0,0,0,25,0,25,0,443.1617956000009,,,,,,,,,,,,443.1510424999997,443.1617956000009,443.1617956000009,443.1617956000009,444.0504314000009,460.01714340000035,j,0,16.843177300001116,None,left,15,"[15, 14, 15, 14]",4,shiftedgaze_L_15.png,j,0,1,pilot4,001,2026-04-02_16h28.58.862,mogelijke versie adaptive staircase builder,,2026.1.3,59.97713671594799,2026-04-02 16h28.59.060554 +0200,
29.1,ecc10pos,left,26,0,26,f,1,1.9904979999992065,None,0,0,0,0,26,0,26,0,460.12664829999994,,,,,,,,,,,,460.1168361,460.12664829999994,460.12664829999994,460.12664829999994,461.0170541000007,462.1339329000002,f,1,1.9904979999992065,None,right,15,"[15, 14, 15, 14]",4,shiftedgaze_R_15.png,f,1,1,pilot4,001,2026-04-02_16h28.58.862,mogelijke versie adaptive staircase builder,,2026.1.3,59.97713671594799,2026-04-02 16h28.59.060554 +0200,
29.1,ecc10pos,left,27,0,27,f,0,2.4922993000000133,None,0,0,0,0,27,0,27,0,462.2328245000008,,,,,,,,,,,,462.2224275999997,462.2328245000008,462.2328245000008,462.2328245000008,463.13344529999995,464.73394069999995,f,0,2.4922993000000133,None,direct,15,"[15, 14, 15, 14]",4,shifteddirectgaze.png,f,0,1,pilot4,001,2026-04-02_16h28.58.862,mogelijke versie adaptive staircase builder,,2026.1.3,59.97713671594799,2026-04-02 16h28.59.060554 +0200,
29.1,ecc10pos,left,28,0,28,j,0,2.3234792000002926,None,0,0,0,0,28,0,28,0,464.83385570000064,,,,,,,,,,,,464.82302619999973,464.83385570000064,464.83385570000064,464.83385570000064,465.7338711000011,467.1671864,j,0,2.3234792000002926,None,right,15,"[15, 14, 15, 14]",4,shiftedgaze_R_15.png,j,0,1,pilot4,001,2026-04-02_16h28.58.862,mogelijke versie adaptive staircase builder,,2026.1.3,59.97713671594799,2026-04-02 16h28.59.060554 +0200,
29.1,ecc10pos,left,29,0,29,f,0,10.21907950000059,None,0,0,0,0,29,0,29,0,467.2659530000001,,,,,,,,,,,,467.2560924999998,467.2659530000001,467.2659530000001,467.2659530000001,468.1666428000008,477.5003667000001,f,0,10.21907950000059,None,direct,15,"[15, 14, 15, 14]",4,shifteddirectgaze.png,f,0,1,pilot4,001,2026-04-02_16h28.58.862,mogelijke versie adaptive staircase builder,,2026.1.3,59.97713671594799,2026-04-02 16h28.59.060554 +0200,
29.1,ecc10pos,left,30,0,30,j,1,14.564876399999775,None,0,0,0,0,30,0,30,0,477.6000935000011,,,,,,,,,,,,477.5885527999999,477.6000935000011,477.6000935000011,477.6000935000011,478.4998802000009,492.1666468000003,j,1,14.564876399999775,None,direct,15,"[15, 14, 15, 14]",4,shifteddirectgaze.png,j,1,1,pilot4,001,2026-04-02_16h28.58.862,mogelijke versie adaptive staircase builder,,2026.1.3,59.97713671594799,2026-04-02 16h28.59.060554 +0200,
29.1,ecc10pos,left,31,0,31,f,0,3.0594141999990825,None,0,0,0,0,31,0,31,0,492.26586380000117,,,,,,,,,,,,492.25516290000087,492.26586380000117,492.26586380000117,492.26586380000117,493.16633060000095,495.3334598000001,f,0,3.0594141999990825,None,direct,15,"[15, 14, 15, 14]",4,shifteddirectgaze.png,f,0,1,pilot4,001,2026-04-02_16h28.58.862,mogelijke versie adaptive staircase builder,,2026.1.3,59.97713671594799,2026-04-02 16h28.59.060554 +0200,
29.1,ecc10pos,left,32,0,32,f,0,4.060722599999281,None,0,0,0,0,32,0,32,0,495.432358,,,,,,,,,,,,495.42261250000047,495.432358,495.432358,495.432358,496.33318060000056,499.4999110000008,f,0,4.060722599999281,None,direct,15,"[15, 14, 15, 14]",4,shifteddirectgaze.png,f,0,1,pilot4,001,2026-04-02_16h28.58.862,mogelijke versie adaptive staircase builder,,2026.1.3,59.97713671594799,2026-04-02 16h28.59.060554 +0200,
29.1,ecc10pos,left,33,0,33,f,1,5.430218700001205,None,0,0,0,0,33,0,33,0,499.59873809999954,,,,,,,,,,,,499.58815230000073,499.59873809999954,499.59873809999954,499.59873809999954,500.4995713999997,505.0331853000007,f,1,5.430218700001205,None,right,15,"[15, 14, 15, 14]",4,shiftedgaze_R_15.png,f,1,1,pilot4,001,2026-04-02_16h28.58.862,mogelijke versie adaptive staircase builder,,2026.1.3,59.97713671594799,2026-04-02 16h28.59.060554 +0200,
29.1,ecc10pos,left,34,0,34,j,0,4.714542700001402,None,0,0,0,0,34,0,34,0,505.1463590000003,,,,,,,,,,,,505.1367288000001,505.1463590000003,505.1463590000003,505.1463590000003,506.03278150000006,509.86656570000014,j,0,4.714542700001402,None,left,15,"[15, 14, 15, 14]",4,shiftedgaze_L_15.png,j,0,1,pilot4,001,2026-04-02_16h28.58.862,mogelijke versie adaptive staircase builder,,2026.1.3,59.97713671594799,2026-04-02 16h28.59.060554 +0200,
29.1,ecc10pos,left,35,0,35,f,0,11.578157399999327,None,0,0,0,0,35,0,35,0,509.97919100000036,,,,,,,,,,,,509.9689785999999,509.97919100000036,509.97919100000036,509.97919100000036,510.86636120000003,521.5665007000007,f,0,11.578157399999327,None,direct,15,"[15, 14, 15, 14]",4,shifteddirectgaze.png,f,0,1,pilot4,001,2026-04-02_16h28.58.862,mogelijke versie adaptive staircase builder,,2026.1.3,59.97713671594799,2026-04-02 16h28.59.060554 +0200,
29.1,ecc10pos,left,36,0,36,f,0,2.188556700000845,None,0,0,0,0,36,0,36,0,521.6644304000001,,,,,,,,,,,,521.6537250000001,521.6644304000001,521.6644304000001,521.6644304000001,522.5660968000011,523.8663876999999,f,0,2.188556700000845,None,direct,15,"[15, 14, 15, 14]",4,shifteddirectgaze.png,f,0,1,pilot4,001,2026-04-02_16h28.58.862,mogelijke versie adaptive staircase builder,,2026.1.3,59.97713671594799,2026-04-02 16h28.59.060554 +0200,
29.1,ecc10pos,left,37,0,37,j,0,10.771161899998333,None,0,0,0,0,37,0,37,0,523.9700621000011,,,,,,,,,,,,523.9594519000002,523.9700621000011,523.9700621000011,523.9700621000011,524.8662421999998,534.7496893000007,j,0,10.771161899998333,None,right,15,"[15, 14, 15, 14]",4,shiftedgaze_R_15.png,j,0,1,pilot4,001,2026-04-02_16h28.58.862,mogelijke versie adaptive staircase builder,,2026.1.3,59.97713671594799,2026-04-02 16h28.59.060554 +0200,
29.1,ecc10pos,left,38,0,38,f,1,1.777705300000889,None,0,0,0,0,38,0,38,0,534.8594653,,,,,,,,,,,,534.8495641999998,534.8594653,534.8594653,534.8594653,535.7493145000008,536.6495336000007,f,1,1.777705300000889,None,left,15,"[15, 14, 15, 14]",4,shiftedgaze_L_15.png,f,1,1,pilot4,001,2026-04-02_16h28.58.862,mogelijke versie adaptive staircase builder,,2026.1.3,59.97713671594799,2026-04-02 16h28.59.060554 +0200,
29.1,ecc10pos,left,39,0,39,j,0,4.255852199999936,None,0,0,0,0,39,0,39,0,536.7572673000013,,,,,,,,,,,,536.7467868000003,536.7572673000013,536.7572673000013,536.7572673000013,537.6491134000007,541.0163499000009,j,0,4.255852199999936,None,right,15,"[15, 14, 15, 14]",4,shiftedgaze_R_15.png,j,0,1,pilot4,001,2026-04-02_16h28.58.862,mogelijke versie adaptive staircase builder,,2026.1.3,59.97713671594799,2026-04-02 16h28.59.060554 +0200,
29.1,ecc10pos,left,40,0,40,j,1,15.246611900000062,None,0,0,0,0,40,0,40,0,541.1186126000011,,,,,,,,,,,,541.1077641000011,541.1186126000011,541.1186126000011,541.1186126000011,542.0158763,556.3660775000008,j,1,15.246611900000062,None,direct,15,"[15, 14, 15, 14]",4,shifteddirectgaze.png,j,1,1,pilot4,001,2026-04-02_16h28.58.862,mogelijke versie adaptive staircase builder,,2026.1.3,59.97713671594799,2026-04-02 16h28.59.060554 +0200,
29.1,ecc10pos,left,41,0,41,j,0,9.471733500000482,None,0,0,0,0,41,0,41,0,556.4771996,,,,,,,,,,,,556.4662195000001,556.4771996,556.4771996,556.4771996,557.3656836000009,565.9657755999997,j,0,9.471733500000482,None,left,15,"[15, 14, 15, 14]",4,shiftedgaze_L_15.png,j,0,1,pilot4,001,2026-04-02_16h28.58.862,mogelijke versie adaptive staircase builder,,2026.1.3,59.97713671594799,2026-04-02 16h28.59.060554 +0200,
29.1,ecc10pos,left,42,0,42,f,1,1.848965600000156,None,0,0,0,0,42,0,42,0,566.0679916000008,,,,,,,,,,,,566.0561576,566.0679916000008,566.0679916000008,566.0679916000008,566.9656715000001,567.9322616000009,f,1,1.848965600000156,None,left,15,"[15, 14, 15, 14]",4,shiftedgaze_L_15.png,f,1,1,pilot4,001,2026-04-02_16h28.58.862,mogelijke versie adaptive staircase builder,,2026.1.3,59.97713671594799,2026-04-02 16h28.59.060554 +0200,
29.1,ecc10pos,left,43,0,43,j,0,2.3157429000002594,None,0,0,0,0,43,0,43,0,568.0412084,,,,,,,,,,,,568.0313340000012,568.0412084,568.0412084,568.0412084,568.9320306999998,570.3658675000006,j,0,2.3157429000002594,None,right,15,"[15, 14, 15, 14]",4,shiftedgaze_R_15.png,j,0,1,pilot4,001,2026-04-02_16h28.58.862,mogelijke versie adaptive staircase builder,,2026.1.3,59.97713671594799,2026-04-02 16h28.59.060554 +0200,
29.1,ecc10pos,left,44,0,44,j,1,4.021805000000313,None,0,0,0,0,44,0,44,0,570.4631085000001,,,,,,,,,,,,570.4521676000004,570.4631085000001,570.4631085000001,570.4631085000001,571.3656511000008,574.4989793000004,j,1,4.021805000000313,None,direct,15,"[15, 14, 15, 14]",4,shifteddirectgaze.png,j,1,1,pilot4,001,2026-04-02_16h28.58.862,mogelijke versie adaptive staircase builder,,2026.1.3,59.97713671594799,2026-04-02 16h28.59.060554 +0200,
29.1,ecc10pos,left,45,0,45,f,1,9.375525299999936,None,0,0,0,0,45,0,45,0,574.5978701000004,,,,,,,,,,,,574.5872240000008,574.5978701000004,574.5978701000004,574.5978701000004,575.4988866000003,583.9822431000011,f,1,9.375525299999936,None,right,15,"[15, 14, 15, 14, 15]",5,shiftedgaze_R_15.png,f,1,1,pilot4,001,2026-04-02_16h28.58.862,mogelijke versie adaptive staircase builder,,2026.1.3,59.97713671594799,2026-04-02 16h28.59.060554 +0200,
29.1,ecc10pos,left,46,0,46,f,1,1.883835700000418,None,0,0,0,0,46,0,46,0,584.0812658000013,,,,,,,,,,,,584.0702687000012,584.0812658000013,584.0812658000013,584.0812658000013,584.9820313,585.9655744000011,f,1,1.883835700000418,None,right,14,"[15, 14, 15, 14, 15]",5,shiftedgaze_R_14.png,f,1,1,pilot4,001,2026-04-02_16h28.58.862,mogelijke versie adaptive staircase builder,,2026.1.3,59.97713671594799,2026-04-02 16h28.59.060554 +0200,
29.1,ecc10pos,left,47,0,47,j,1,2.243591300000844,None,0,0,0,0,47,0,47,0,586.0654246000013,,,,,,,,,,,,586.054369200001,586.0654246000013,586.0654246000013,586.0654246000013,586.9651594999996,588.3153574999997,j,1,2.243591300000844,None,direct,14,"[15, 14, 15, 14, 15]",5,shifteddirectgaze.png,j,1,1,pilot4,001,2026-04-02_16h28.58.862,mogelijke versie adaptive staircase builder,,2026.1.3,59.97713671594799,2026-04-02 16h28.59.060554 +0200,
29.1,ecc10pos,left,48,0,48,f,1,1.831683399999747,None,0,0,0,0,48,0,48,0,588.4213228999997,,,,,,,,,,,,588.4106831999998,588.4213228999997,588.4213228999997,588.4213228999997,589.3150562999999,590.2654229,f,1,1.831683399999747,None,right,13,"[15, 14, 15, 14, 15]",5,shiftedgaze_R_13.png,f,1,1,pilot4,001,2026-04-02_16h28.58.862,mogelijke versie adaptive staircase builder,,2026.1.3,59.97713671594799,2026-04-02 16h28.59.060554 +0200,
29.1,ecc10pos,left,49,0,49,j,0,3.4413377000000764,None,0,0,0,0,49,0,49,0,590.3636674999998,,,,,,,,,,,,590.3527703,590.3636674999998,590.3636674999998,590.3636674999998,591.265043200001,593.8153676000002,j,0,3.4413377000000764,None,left,13,"[15, 14, 15, 14, 15, 13]",6,shiftedgaze_L_13.png,j,0,1,pilot4,001,2026-04-02_16h28.58.862,mogelijke versie adaptive staircase builder,,2026.1.3,59.97713671594799,2026-04-02 16h28.59.060554 +0200,
29.1,ecc10pos,left,0,0,0,,,,,0,0,0,0,,,,,,,,,,,,,,,,,,,,,,,,,,,,,,,,,,,pilot4,001,2026-04-02_16h28.58.862,mogelijke versie adaptive staircase builder,,2026.1.3,59.97713671594799,2026-04-02 16h28.59.060554 +0200,
17.5,ecc0,mid,0,0,0,j,0,4.207695999999487,None,0,1,1,1,0,0,0,0,593.9174065999996,,,,,,,,,,593.8176602000003,593.8176918999998,593.9070700000011,593.9174065999996,594.8319253999998,593.9174065999996,593.9174065999996,598.1320659000012,j,0,4.207695999999487,None,left,15,[],0,gaze_L_15.png,j,0,2,pilot4,001,2026-04-02_16h28.58.862,mogelijke versie adaptive staircase builder,,2026.1.3,59.97713671594799,2026-04-02 16h28.59.060554 +0200,
17.5,ecc0,mid,1,0,1,j,1,14.639289099999587,None,0,1,1,1,1,0,1,0,598.2297264000008,,,,,,,,,,,,598.2193258000007,598.2297264000008,599.1317606000011,598.2297264000008,598.2297264000008,612.8818970000011,j,1,14.639289099999587,None,direct,15,[15],1,direct_gaze.png,j,1,2,pilot4,001,2026-04-02_16h28.58.862,mogelijke versie adaptive staircase builder,,2026.1.3,59.97713671594799,2026-04-02 16h28.59.060554 +0200,
17.5,ecc0,mid,2,0,2,f,1,23.29435790000025,None,0,1,1,1,2,0,2,0,612.9826549999998,,,,,,,,,,,,612.9716427000003,612.9826549999998,613.8817271999997,612.9826549999998,612.9826549999998,636.281439800001,f,1,23.29435790000025,None,right,14,[15],1,gaze_R_14.png,f,1,2,pilot4,001,2026-04-02_16h28.58.862,mogelijke versie adaptive staircase builder,,2026.1.3,59.97713671594799,2026-04-02 16h28.59.060554 +0200,
17.5,ecc0,mid,3,0,3,f,0,9.91447049999988,None,0,1,1,1,3,0,3,0,636.3785303000004,,,,,,,,,,,,636.3682884000009,636.3785303000004,637.2811970000002,636.3785303000004,636.3785303000004,646.2979493000003,f,0,9.91447049999988,None,direct,14,"[15, 14]",2,direct_gaze.png,f,0,2,pilot4,001,2026-04-02_16h28.58.862,mogelijke versie adaptive staircase builder,,2026.1.3,59.97713671594799,2026-04-02 16h28.59.060554 +0200,
17.5,ecc0,mid,4,0,4,j,0,1.7114894999995158,None,0,1,1,1,4,0,4,0,646.3975219000004,,,,,,,,,,,,646.3863564000003,646.3975219000004,647.2975531000011,646.3975219000004,646.3975219000004,648.1143608000002,j,0,1.7114894999995158,None,left,15,"[15, 14]",2,gaze_L_15.png,j,0,2,pilot4,001,2026-04-02_16h28.58.862,mogelijke versie adaptive staircase builder,,2026.1.3,59.97713671594799,2026-04-02 16h28.59.060554 +0200,
17.5,ecc0,mid,5,0,5,f,1,4.903368999999657,None,0,1,1,1,5,0,5,0,648.2135706000008,,,,,,,,,,,,648.2016975999995,648.2135706000008,649.1142746000005,648.2135706000008,648.2135706000008,653.131206,f,1,4.903368999999657,None,left,15,"[15, 14]",2,gaze_L_15.png,f,1,2,pilot4,001,2026-04-02_16h28.58.862,mogelijke versie adaptive staircase builder,,2026.1.3,59.97713671594799,2026-04-02 16h28.59.060554 +0200,
17.5,ecc0,mid,6,0,6,j,1,2.054777200000899,None,0,1,1,1,6,0,6,0,653.2302947999997,,,,,,,,,,,,653.2183748000007,653.2302947999997,654.1308762000008,653.2302947999997,653.2302947999997,655.2978285999998,j,1,2.054777200000899,None,direct,15,"[15, 14, 15]",3,direct_gaze.png,j,1,2,pilot4,001,2026-04-02_16h28.58.862,mogelijke versie adaptive staircase builder,,2026.1.3,59.97713671594799,2026-04-02 16h28.59.060554 +0200,
17.5,ecc0,mid,7,0,7,j,0,4.881957499999771,None,0,1,1,1,7,0,7,0,655.3950151999998,,,,,,,,,,,,655.3842758999999,655.3950151999998,656.2976153,655.3950151999998,655.3950151999998,660.2810485000009,j,0,4.881957499999771,None,left,14,"[15, 14, 15, 14]",4,gaze_L_14.png,j,0,2,pilot4,001,2026-04-02_16h28.58.862,mogelijke versie adaptive staircase builder,,2026.1.3,59.97713671594799,2026-04-02 16h28.59.060554 +0200,
17.5,ecc0,mid,8,0,8,j,0,5.073566699998992,None,0,1,1,1,8,0,8,0,660.3803989000007,,,,,,,,,,,,660.3698522000013,660.3803989000007,661.2805624000011,660.3803989000007,660.3803989000007,665.4644853999998,j,0,5.073566699998992,None,right,15,"[15, 14, 15, 14]",4,gaze_R_15.png,j,0,2,pilot4,001,2026-04-02_16h28.58.862,mogelijke versie adaptive staircase builder,,2026.1.3,59.97713671594799,2026-04-02 16h28.59.060554 +0200,
17.5,ecc0,mid,9,0,9,f,1,2.4524584999999206,None,0,1,1,1,9,0,9,0,665.5764988999999,,,,,,,,,,,,665.5635328999997,665.5764988999999,666.4642698999996,665.5764988999999,665.5764988999999,668.0307095000007,f,1,2.4524584999999206,None,right,15,"[15, 14, 15, 14]",4,gaze_R_15.png,f,1,2,pilot4,001,2026-04-02_16h28.58.862,mogelijke versie adaptive staircase builder,,2026.1.3,59.97713671594799,2026-04-02 16h28.59.060554 +0200,
17.5,ecc0,mid,10,0,10,f,1,9.684212300000581,None,0,1,1,1,10,0,10,0,668.1287885000002,,,,,,,,,,,,668.1179436000002,668.1287885000002,669.0307186999999,668.1287885000002,668.1287885000002,677.8141735999998,f,1,9.684212300000581,None,right,15,"[15, 14, 15, 14, 15]",5,gaze_R_15.png,f,1,2,pilot4,001,2026-04-02_16h28.58.862,mogelijke versie adaptive staircase builder,,2026.1.3,59.97713671594799,2026-04-02 16h28.59.060554 +0200,
17.5,ecc0,mid,11,0,11,j,0,1.9008403999996517,None,0,1,1,1,11,0,11,0,677.9121242000001,,,,,,,,,,,,677.9015849999996,677.9121242000001,678.8138649000011,677.9121242000001,677.9121242000001,679.8141530000012,j,0,1.9008403999996517,None,right,14,"[15, 14, 15, 14, 15, 14]",6,gaze_R_14.png,j,0,2,pilot4,001,2026-04-02_16h28.58.862,mogelijke versie adaptive staircase builder,,2026.1.3,59.97713671594799,2026-04-02 16h28.59.060554 +0200,
17.5,ecc0,mid,12,0,12,j,1,10.189080300000569,None,0,1,1,1,12,0,12,0,679.9118617000004,,,,,,,,,,,,679.9007006000011,679.9118617000004,680.8138617000004,679.9118617000004,679.9118617000004,690.113925900001,j,1,10.189080300000569,None,direct,15,"[15, 14, 15, 14, 15, 14]",6,direct_gaze.png,j,1,2,pilot4,001,2026-04-02_16h28.58.862,mogelijke versie adaptive staircase builder,,2026.1.3,59.97713671594799,2026-04-02 16h28.59.060554 +0200,
17.5,ecc0,mid,13,0,13,j,0,2.3113467000002856,None,0,1,1,1,13,0,13,0,690.2136573999996,,,,,,,,,,,,690.2022116000007,690.2136573999996,691.1137493000006,690.2136573999996,690.2136573999996,692.5305779000009,j,0,2.3113467000002856,None,right,15,"[15, 14, 15, 14, 15, 14]",6,gaze_R_15.png,j,0,2,pilot4,001,2026-04-02_16h28.58.862,mogelijke versie adaptive staircase builder,,2026.1.3,59.97713671594799,2026-04-02 16h28.59.060554 +0200,
17.5,ecc0,mid,14,0,14,f,1,1.9205429000012373,None,0,1,1,1,14,0,14,0,692.6283758000009,,,,,,,,,,,,692.6180578000003,692.6283758000009,693.5302542999998,692.6283758000009,692.6283758000009,694.5639853000011,f,1,1.9205429000012373,None,right,15,"[15, 14, 15, 14, 15, 14]",6,gaze_R_15.png,f,1,2,pilot4,001,2026-04-02_16h28.58.862,mogelijke versie adaptive staircase builder,,2026.1.3,59.97713671594799,2026-04-02 16h28.59.060554 +0200,
17.5,ecc0,mid,15,0,15,j,1,9.797908300000927,None,0,1,1,1,15,0,15,0,694.6631108000001,,,,,,,,,,,,694.6525784000005,694.6631108000001,695.5636138999998,694.6631108000001,694.6631108000001,704.4639162000003,j,1,9.797908300000927,None,direct,15,"[15, 14, 15, 14, 15, 14, 15]",7,direct_gaze.png,j,1,2,pilot4,001,2026-04-02_16h28.58.862,mogelijke versie adaptive staircase builder,,2026.1.3,59.97713671594799,2026-04-02 16h28.59.060554 +0200,
17.5,ecc0,mid,16,0,16,f,1,2.1216757999991387,None,0,1,1,1,16,0,16,0,704.5632571000006,,,,,,,,,,,,704.5525214000008,704.5632571000006,705.4636108000013,704.5632571000006,704.5632571000006,706.6968445000002,f,1,2.1216757999991387,None,left,14,"[15, 14, 15, 14, 15, 14, 15]",7,gaze_L_14.png,f,1,2,pilot4,001,2026-04-02_16h28.58.862,mogelijke versie adaptive staircase builder,,2026.1.3,59.97713671594799,2026-04-02 16h28.59.060554 +0200,
17.5,ecc0,mid,17,0,17,j,0,2.153266799999983,None,0,1,1,1,17,0,17,0,706.7957411999996,,,,,,,,,,,,706.7853790999998,706.7957411999996,707.6968089000002,706.7957411999996,706.7957411999996,708.9636471000013,j,0,2.153266799999983,None,left,14,"[15, 14, 15, 14, 15, 14, 15, 14]",8,gaze_L_14.png,j,0,2,pilot4,001,2026-04-02_16h28.58.862,mogelijke versie adaptive staircase builder,,2026.1.3,59.97713671594799,2026-04-02 16h28.59.060554 +0200,
17.5,ecc0,mid,18,0,18,f,1,2.7750696999992215,None,0,1,1,1,18,0,18,0,709.0621427000005,,,,,,,,,,,,709.0513182000013,709.0621427000005,709.9634225999998,709.0621427000005,709.0621427000005,711.8470195000009,f,1,2.7750696999992215,None,right,15,"[15, 14, 15, 14, 15, 14, 15, 14]",8,gaze_R_15.png,f,1,2,pilot4,001,2026-04-02_16h28.58.862,mogelijke versie adaptive staircase builder,,2026.1.3,59.97713671594799,2026-04-02 16h28.59.060554 +0200,
17.5,ecc0,mid,19,0,19,j,1,1.7882466999999451,None,0,1,1,1,19,0,19,0,711.9447864000012,,,,,,,,,,,,711.9345606000006,711.9447864000012,712.8467670999999,711.9447864000012,711.9447864000012,713.7471542000003,j,1,1.7882466999999451,None,direct,15,"[15, 14, 15, 14, 15, 14, 15, 14, 15]",9,direct_gaze.png,j,1,2,pilot4,001,2026-04-02_16h28.58.862,mogelijke versie adaptive staircase builder,,2026.1.3,59.97713671594799,2026-04-02 16h28.59.060554 +0200,
17.5,ecc0,mid,20,0,20,f,0,6.70545089999905,None,0,1,1,1,20,0,20,0,713.8435093999997,,,,,,,,,,,,713.8331632000009,713.8435093999997,714.7468148999997,713.8435093999997,713.8435093999997,720.5636295000004,f,0,6.70545089999905,None,direct,14,"[15, 14, 15, 14, 15, 14, 15, 14, 15, 14]",10,direct_gaze.png,f,0,2,pilot4,001,2026-04-02_16h28.58.862,mogelijke versie adaptive staircase builder,,2026.1.3,59.97713671594799,2026-04-02 16h28.59.060554 +0200,
17.5,ecc0,mid,21,0,21,j,1,7.150612400000682,None,0,1,1,1,21,0,21,0,720.6624775,,,,,,,,,,,,720.650980800001,720.6624775,721.5633392,720.6624775,720.6624775,727.8133894000002,j,1,7.150612400000682,None,direct,15,"[15, 14, 15, 14, 15, 14, 15, 14, 15, 14]",10,direct_gaze.png,j,1,2,pilot4,001,2026-04-02_16h28.58.862,mogelijke versie adaptive staircase builder,,2026.1.3,59.97713671594799,2026-04-02 16h28.59.060554 +0200,
17.5,ecc0,mid,22,0,22,j,0,3.3184423000002425,None,0,1,1,1,22,0,22,0,727.9106638000012,,,,,,,,,,,,727.9000171999996,727.9106638000012,728.8132244000008,727.9106638000012,727.9106638000012,731.2300386000006,j,0,3.3184423000002425,None,left,15,"[15, 14, 15, 14, 15, 14, 15, 14, 15, 14]",10,gaze_L_15.png,j,0,2,pilot4,001,2026-04-02_16h28.58.862,mogelijke versie adaptive staircase builder,,2026.1.3,59.97713671594799,2026-04-02 16h28.59.060554 +0200,
17.5,ecc0,mid,23,0,23,j,0,6.398807300000044,None,0,1,1,1,23,0,23,0,731.3263903999996,,,,,,,,,,,,731.3153168999997,731.3263903999996,732.2298257000002,731.3263903999996,731.3263903999996,737.7300143000011,j,0,6.398807300000044,None,left,15,"[15, 14, 15, 14, 15, 14, 15, 14, 15, 14]",10,gaze_L_15.png,j,0,2,pilot4,001,2026-04-02_16h28.58.862,mogelijke versie adaptive staircase builder,,2026.1.3,59.97713671594799,2026-04-02 16h28.59.060554 +0200,
17.5,ecc0,mid,24,0,24,j,0,2.4798331999991206,None,0,1,1,1,24,0,24,0,737.8292394,,,,,,,,,,,,737.8188535000008,737.8292394,738.7297151000002,737.8292394,737.8292394,740.3132910000004,j,0,2.4798331999991206,None,right,15,"[15, 14, 15, 14, 15, 14, 15, 14, 15, 14]",10,gaze_R_15.png,j,0,2,pilot4,001,2026-04-02_16h28.58.862,mogelijke versie adaptive staircase builder,,2026.1.3,59.97713671594799,2026-04-02 16h28.59.060554 +0200,
17.5,ecc0,mid,25,0,25,f,1,10.62698840000121,None,0,1,1,1,25,0,25,0,740.4101518999996,,,,,,,,,,,,740.3995603000003,740.4101518999996,741.3129594000002,740.4101518999996,740.4101518999996,751.0465412000012,f,1,10.62698840000121,None,right,15,"[15, 14, 15, 14, 15, 14, 15, 14, 15, 14]",10,gaze_R_15.png,f,1,2,pilot4,001,2026-04-02_16h28.58.862,mogelijke versie adaptive staircase builder,,2026.1.3,59.97713671594799,2026-04-02 16h28.59.060554 +0200,
17.5,ecc0,mid,26,0,26,j,0,4.7966056000004755,None,0,1,1,1,26,0,26,0,751.1443909000009,,,,,,,,,,,,751.1325785000008,751.1443909000009,752.0462188000001,751.1443909000009,751.1443909000009,755.9463489999998,j,0,4.7966056000004755,None,left,15,"[15, 14, 15, 14, 15, 14, 15, 14, 15, 14]",10,gaze_L_15.png,j,0,2,pilot4,001,2026-04-02_16h28.58.862,mogelijke versie adaptive staircase builder,,2026.1.3,59.97713671594799,2026-04-02 16h28.59.060554 +0200,
17.5,ecc0,mid,27,0,27,f,1,5.750922500001252,None,0,1,1,1,27,0,27,0,756.0459744,,,,,,,,,,,,756.0358723999998,756.0459744,756.946166400001,756.0459744,756.0459744,761.8130969000013,f,1,5.750922500001252,None,left,15,"[15, 14, 15, 14, 15, 14, 15, 14, 15, 14]",10,gaze_L_15.png,f,1,2,pilot4,001,2026-04-02_16h28.58.862,mogelijke versie adaptive staircase builder,,2026.1.3,59.97713671594799,2026-04-02 16h28.59.060554 +0200,
17.5,ecc0,mid,28,0,28,j,1,3.8529130999995687,None,0,1,1,1,28,0,28,0,761.9119987000013,,,,,,,,,,,,761.9013694000005,761.9119987000013,762.8126364,761.9119987000013,761.9119987000013,765.7798478000004,j,1,3.8529130999995687,None,direct,15,"[15, 14, 15, 14, 15, 14, 15, 14, 15, 14, 15]",11,direct_gaze.png,j,1,2,pilot4,001,2026-04-02_16h28.58.862,mogelijke versie adaptive staircase builder,,2026.1.3,59.97713671594799,2026-04-02 16h28.59.060554 +0200,
17.5,ecc0,mid,29,0,29,j,0,3.8223147000007884,None,0,1,1,1,29,0,29,0,765.8786306000002,,,,,,,,,,,,765.8679362000003,765.8786306000002,766.7794498000003,765.8786306000002,765.8786306000002,769.712842500001,j,0,3.8223147000007884,None,left,14,"[15, 14, 15, 14, 15, 14, 15, 14, 15, 14, 15, 14]",12,gaze_L_14.png,j,0,2,pilot4,001,2026-04-02_16h28.58.862,mogelijke versie adaptive staircase builder,,2026.1.3,59.97713671594799,2026-04-02 16h28.59.060554 +0200,
17.5,ecc0,mid,30,0,30,j,1,6.754211100000248,None,0,1,1,1,30,0,30,0,769.8108134000013,,,,,,,,,,,,769.8009810000003,769.8108134000013,770.7125754000008,769.8108134000013,769.8108134000013,776.5794994999997,j,1,6.754211100000248,None,direct,15,"[15, 14, 15, 14, 15, 14, 15, 14, 15, 14, 15, 14]",12,direct_gaze.png,j,1,2,pilot4,001,2026-04-02_16h28.58.862,mogelijke versie adaptive staircase builder,,2026.1.3,59.97713671594799,2026-04-02 16h28.59.060554 +0200,
17.5,ecc0,mid,31,0,31,f,1,4.678068499999426,None,0,1,1,1,31,0,31,0,776.6789685000003,,,,,,,,,,,,776.6675973000001,776.6789685000003,777.5792079000003,776.6789685000003,776.6789685000003,781.3626358000001,f,1,4.678068499999426,None,right,15,"[15, 14, 15, 14, 15, 14, 15, 14, 15, 14, 15, 14, 15]",13,gaze_R_15.png,f,1,2,pilot4,001,2026-04-02_16h28.58.862,mogelijke versie adaptive staircase builder,,2026.1.3,59.97713671594799,2026-04-02 16h28.59.060554 +0200,
17.5,ecc0,mid,32,0,32,j,1,3.479684500000076,None,0,1,1,1,32,0,32,0,781.4615207000006,,,,,,,,,,,,781.4514147000009,781.4615207000006,782.3624099000008,781.4615207000006,781.4615207000006,784.9458974000008,j,1,3.479684500000076,None,direct,14,"[15, 14, 15, 14, 15, 14, 15, 14, 15, 14, 15, 14, 15]",13,direct_gaze.png,j,1,2,pilot4,001,2026-04-02_16h28.58.862,mogelijke versie adaptive staircase builder,,2026.1.3,59.97713671594799,2026-04-02 16h28.59.060554 +0200,
17.5,ecc0,mid,33,0,33,j,1,3.603185599999051,None,0,1,1,1,33,0,33,0,785.041890800001,,,,,,,,,,,,785.0310847000001,785.041890800001,785.9457478000004,785.041890800001,785.041890800001,788.6459128000006,j,1,3.603185599999051,None,direct,14,"[15, 14, 15, 14, 15, 14, 15, 14, 15, 14, 15, 14, 15]",13,direct_gaze.png,j,1,2,pilot4,001,2026-04-02_16h28.58.862,mogelijke versie adaptive staircase builder,,2026.1.3,59.97713671594799,2026-04-02 16h28.59.060554 +0200,
17.5,ecc0,mid,34,0,34,f,1,2.1408420000007027,None,0,1,1,1,34,0,34,0,788.7521783000011,,,,,,,,,,,,788.7411623000007,788.7521783000011,789.6457038000008,788.7521783000011,788.7521783000011,790.8958751999999,f,1,2.1408420000007027,None,right,13,"[15, 14, 15, 14, 15, 14, 15, 14, 15, 14, 15, 14, 15]",13,gaze_R_13.png,f,1,2,pilot4,001,2026-04-02_16h28.58.862,mogelijke versie adaptive staircase builder,,2026.1.3,59.97713671594799,2026-04-02 16h28.59.060554 +0200,
17.5,ecc0,mid,35,0,35,j,1,3.2830242,None,0,1,1,1,35,0,35,0,790.9939802999997,,,,,,,,,,,,790.9834645999999,790.9939802999997,791.8956226000009,790.9939802999997,790.9939802999997,794.279204800001,j,1,3.2830242,None,direct,13,"[15, 14, 15, 14, 15, 14, 15, 14, 15, 14, 15, 14, 15]",13,direct_gaze.png,j,1,2,pilot4,001,2026-04-02_16h28.58.862,mogelijke versie adaptive staircase builder,,2026.1.3,59.97713671594799,2026-04-02 16h28.59.060554 +0200,
17.5,ecc0,mid,36,0,36,f,1,8.126104900000428,None,0,1,1,1,36,0,36,0,794.3828258000012,,,,,,,,,,,,794.3723139000012,794.3828258000012,795.2789905000009,794.3828258000012,794.3828258000012,802.5125519000012,f,1,8.126104900000428,None,left,12,"[15, 14, 15, 14, 15, 14, 15, 14, 15, 14, 15, 14, 15]",13,gaze_L_12.png,f,1,2,pilot4,001,2026-04-02_16h28.58.862,mogelijke versie adaptive staircase builder,,2026.1.3,59.97713671594799,2026-04-02 16h28.59.060554 +0200,
17.5,ecc0,mid,37,0,37,f,1,2.7067336999989493,None,0,1,1,1,37,0,37,0,802.6183543000006,,,,,,,,,,,,802.606824800001,802.6183543000006,803.5120482000002,802.6183543000006,802.6183543000006,805.3290389000013,f,1,2.7067336999989493,None,right,12,"[15, 14, 15, 14, 15, 14, 15, 14, 15, 14, 15, 14, 15]",13,gaze_R_12.png,f,1,2,pilot4,001,2026-04-02_16h28.58.862,mogelijke versie adaptive staircase builder,,2026.1.3,59.97713671594799,2026-04-02 16h28.59.060554 +0200,
17.5,ecc0,mid,38,0,38,j,0,6.4267985000005865,None,0,1,1,1,38,0,38,0,805.4342077000001,,,,,,,,,,,,805.4235752000004,805.4342077000001,806.3287799000009,805.4342077000001,805.4342077000001,811.8622742999996,j,0,6.4267985000005865,None,right,11,"[15, 14, 15, 14, 15, 14, 15, 14, 15, 14, 15, 14, 15, 11]",14,gaze_R_11.png,j,0,2,pilot4,001,2026-04-02_16h28.58.862,mogelijke versie adaptive staircase builder,,2026.1.3,59.97713671594799,2026-04-02 16h28.59.060554 +0200,
17.5,ecc0,mid,39,0,39,f,0,6.46879380000064,None,0,1,1,1,39,0,39,0,811.9602254000001,,,,,,,,,,,,811.9495838000003,811.9602254000001,812.8619813000005,811.9602254000001,811.9602254000001,818.4454161000012,f,0,6.46879380000064,None,direct,12,"[15, 14, 15, 14, 15, 14, 15, 14, 15, 14, 15, 14, 15, 11]",14,direct_gaze.png,f,0,2,pilot4,001,2026-04-02_16h28.58.862,mogelijke versie adaptive staircase builder,,2026.1.3,59.97713671594799,2026-04-02 16h28.59.060554 +0200,
17.5,ecc0,mid,40,0,40,f,1,2.7732828999996855,None,0,1,1,1,40,0,40,0,818.5437108000006,,,,,,,,,,,,818.5333733999996,818.5437108000006,819.4451323000012,818.5437108000006,818.5437108000006,821.3288044000001,f,1,2.7732828999996855,None,right,13,"[15, 14, 15, 14, 15, 14, 15, 14, 15, 14, 15, 14, 15, 11]",14,gaze_R_13.png,f,1,2,pilot4,001,2026-04-02_16h28.58.862,mogelijke versie adaptive staircase builder,,2026.1.3,59.97713671594799,2026-04-02 16h28.59.060554 +0200,
17.5,ecc0,mid,41,0,41,j,0,1.817922300000646,None,0,1,1,1,41,0,41,0,821.4270847000007,,,,,,,,,,,,821.4166600000008,821.4270847000007,822.3282986000013,821.4270847000007,821.4270847000007,823.2452819999999,j,0,1.817922300000646,None,left,13,"[15, 14, 15, 14, 15, 14, 15, 14, 15, 14, 15, 14, 15, 11]",14,gaze_L_13.png,j,0,2,pilot4,001,2026-04-02_16h28.58.862,mogelijke versie adaptive staircase builder,,2026.1.3,59.97713671594799,2026-04-02 16h28.59.060554 +0200,
17.5,ecc0,mid,42,0,42,f,0,10.789072800000213,None,0,1,1,1,42,0,42,0,823.3438581999999,,,,,,,,,,,,823.3330870000009,823.3438581999999,824.2451619000003,823.3438581999999,823.3438581999999,834.1452619000011,f,0,10.789072800000213,None,direct,14,"[15, 14, 15, 14, 15, 14, 15, 14, 15, 14, 15, 14, 15, 11]",14,direct_gaze.png,f,0,2,pilot4,001,2026-04-02_16h28.58.862,mogelijke versie adaptive staircase builder,,2026.1.3,59.97713671594799,2026-04-02 16h28.59.060554 +0200,
17.5,ecc0,mid,43,0,43,j,1,18.49063500000011,None,0,1,1,1,43,0,43,0,834.2422853999997,,,,,,,,,,,,834.231793500001,834.2422853999997,835.1448431000008,834.2422853999997,834.2422853999997,852.7450035000002,j,1,18.49063500000011,None,direct,15,"[15, 14, 15, 14, 15, 14, 15, 14, 15, 14, 15, 14, 15, 11]",14,direct_gaze.png,j,1,2,pilot4,001,2026-04-02_16h28.58.862,mogelijke versie adaptive staircase builder,,2026.1.3,59.97713671594799,2026-04-02 16h28.59.060554 +0200,
17.5,ecc0,mid,44,0,44,f,1,5.0992846000008285,None,0,1,1,1,44,0,44,0,852.8417343000001,,,,,,,,,,,,852.8311032000001,852.8417343000001,853.744568600001,852.8417343000001,852.8417343000001,857.9446958000008,f,1,5.0992846000008285,None,left,15,"[15, 14, 15, 14, 15, 14, 15, 14, 15, 14, 15, 14, 15, 11, 15]",15,gaze_L_15.png,f,1,2,pilot4,001,2026-04-02_16h28.58.862,mogelijke versie adaptive staircase builder,,2026.1.3,59.97713671594799,2026-04-02 16h28.59.060554 +0200,
17.5,ecc0,mid,45,0,45,f,1,4.265171600000031,None,0,1,1,1,45,0,45,0,858.0437311000005,,,,,,,,,,,,858.0306794000007,858.0437311000005,858.944908200001,858.0437311000005,858.0437311000005,862.3115447,f,1,4.265171600000031,None,left,14,"[15, 14, 15, 14, 15, 14, 15, 14, 15, 14, 15, 14, 15, 11, 15]",15,gaze_L_14.png,f,1,2,pilot4,001,2026-04-02_16h28.58.862,mogelijke versie adaptive staircase builder,,2026.1.3,59.97713671594799,2026-04-02 16h28.59.060554 +0200,
17.5,ecc0,mid,46,0,46,f,0,3.8687444999995932,None,0,1,1,1,46,0,46,0,862.4083582000003,,,,,,,,,,,,862.397766600001,862.4083582000003,863.3110866999996,862.4083582000003,862.4083582000003,866.2781601000006,f,0,3.8687444999995932,None,direct,14,"[15, 14, 15, 14, 15, 14, 15, 14, 15, 14, 15, 14, 15, 11, 15, 14]",16,direct_gaze.png,f,0,2,pilot4,001,2026-04-02_16h28.58.862,mogelijke versie adaptive staircase builder,,2026.1.3,59.97713671594799,2026-04-02 16h28.59.060554 +0200,
17.5,ecc0,mid,47,0,47,f,1,6.4056075000007695,None,0,1,1,1,47,0,47,0,866.3753723999998,,,,,,,,,,,,866.3644149000011,866.3753723999998,867.2779521000011,866.3753723999998,866.3753723999998,872.7948500000002,f,1,6.4056075000007695,None,right,15,"[15, 14, 15, 14, 15, 14, 15, 14, 15, 14, 15, 14, 15, 11, 15, 14]",16,gaze_R_15.png,f,1,2,pilot4,001,2026-04-02_16h28.58.862,mogelijke versie adaptive staircase builder,,2026.1.3,59.97713671594799,2026-04-02 16h28.59.060554 +0200,
17.5,ecc0,mid,48,0,48,j,0,4.639274999999543,None,0,1,1,1,48,0,48,0,872.893648700001,,,,,,,,,,,,872.8834979000003,872.893648700001,873.7945521000001,872.893648700001,872.893648700001,877.5446642999996,j,0,4.639274999999543,None,right,15,"[15, 14, 15, 14, 15, 14, 15, 14, 15, 14, 15, 14, 15, 11, 15, 14]",16,gaze_R_15.png,j,0,2,pilot4,001,2026-04-02_16h28.58.862,mogelijke versie adaptive staircase builder,,2026.1.3,59.97713671594799,2026-04-02 16h28.59.060554 +0200,
17.5,ecc0,mid,49,0,49,f,1,6.626630599999771,None,0,1,1,1,49,0,49,0,877.6422765999996,,,,,,,,,,,,877.6319936,877.6422765999996,878.5444605000012,877.6422765999996,877.6422765999996,884.2777824000004,f,1,6.626630599999771,None,left,15,"[15, 14, 15, 14, 15, 14, 15, 14, 15, 14, 15, 14, 15, 11, 15, 14]",16,gaze_L_15.png,f,1,2,pilot4,001,2026-04-02_16h28.58.862,mogelijke versie adaptive staircase builder,,2026.1.3,59.97713671594799,2026-04-02 16h28.59.060554 +0200,
17.5,ecc0,mid,1,1,0,,,,,0,1,1,1,,,,,,,,,,,,,,,,,,,,,,,,,,,,,,,,,,,pilot4,001,2026-04-02_16h28.58.862,mogelijke versie adaptive staircase builder,,2026.1.3,59.97713671594799,2026-04-02 16h28.59.060554 +0200,
5.9,ecc10neg,right,0,0,0,f,1,3.5286546000006638,None,0,2,2,2,0,0,0,0,884.3803767999998,,,,,,,,,,884.2801959000008,884.2802310999996,884.3688786000002,884.3803767999998,884.3803767999998,885.2943864999997,884.3803767999998,887.9113300999998,f,1,3.5286546000006638,None,right,15,[],0,shiftedgaze_R_15.png,f,1,3,pilot4,001,2026-04-02_16h28.58.862,mogelijke versie adaptive staircase builder,,2026.1.3,59.97713671594799,2026-04-02 16h28.59.060554 +0200,
5.9,ecc10neg,right,1,0,1,j,0,1.7928018999991764,None,0,2,2,2,1,0,1,0,888.0121132000004,,,,,,,,,,,,888.0018221000009,888.0121132000004,888.0121132000004,888.9110102000013,888.0121132000004,889.8111592000005,j,0,1.7928018999991764,None,left,14,[14],1,shiftedgaze_L_14.png,j,0,3,pilot4,001,2026-04-02_16h28.58.862,mogelijke versie adaptive staircase builder,,2026.1.3,59.97713671594799,2026-04-02 16h28.59.060554 +0200,
5.9,ecc10neg,right,2,0,2,f,0,4.695538199999646,None,0,2,2,2,2,0,2,0,889.9095353000012,,,,,,,,,,,,889.8993375999999,889.9095353000012,889.9095353000012,890.8108092000002,889.9095353000012,894.6111409000005,f,0,4.695538199999646,None,direct,15,[14],1,shifteddirectgaze.png,f,0,3,pilot4,001,2026-04-02_16h28.58.862,mogelijke versie adaptive staircase builder,,2026.1.3,59.97713671594799,2026-04-02 16h28.59.060554 +0200,
5.9,ecc10neg,right,3,0,3,f,1,3.296867500001099,None,0,2,2,2,3,0,3,0,894.7082265999998,,,,,,,,,,,,894.6971391999996,894.7082265999998,894.7082265999998,895.6107361000013,894.7082265999998,898.0108786000001,f,1,3.296867500001099,None,right,15,[14],1,shiftedgaze_R_15.png,f,1,3,pilot4,001,2026-04-02_16h28.58.862,mogelijke versie adaptive staircase builder,,2026.1.3,59.97713671594799,2026-04-02 16h28.59.060554 +0200,
5.9,ecc10neg,right,4,0,4,f,1,3.655401599999095,None,0,2,2,2,4,0,4,0,898.1097007000008,,,,,,,,,,,,898.097908400001,898.1097007000008,898.1097007000008,899.0107318000009,898.1097007000008,901.7776352000001,f,1,3.655401599999095,None,right,15,"[14, 15]",2,shiftedgaze_R_15.png,f,1,3,pilot4,001,2026-04-02_16h28.58.862,mogelijke versie adaptive staircase builder,,2026.1.3,59.97713671594799,2026-04-02 16h28.59.060554 +0200,
5.9,ecc10neg,right,5,0,5,j,1,1.8326907999999094,None,0,2,2,2,5,0,5,0,901.8762930000012,,,,,,,,,,,,901.8656074999999,901.8762930000012,901.8762930000012,902.7774162000005,901.8762930000012,903.7108110000008,j,1,1.8326907999999094,None,direct,14,"[14, 15]",2,shifteddirectgaze.png,j,1,3,pilot4,001,2026-04-02_16h28.58.862,mogelijke versie adaptive staircase builder,,2026.1.3,59.97713671594799,2026-04-02 16h28.59.060554 +0200,
5.9,ecc10neg,right,6,0,6,f,1,2.0285672999998496,None,0,2,2,2,6,0,6,0,903.808426900001,,,,,,,,,,,,903.7976004000011,903.808426900001,903.808426900001,904.710619200001,903.808426900001,905.8442360999998,f,1,2.0285672999998496,None,left,14,"[14, 15]",2,shiftedgaze_L_14.png,f,1,3,pilot4,001,2026-04-02_16h28.58.862,mogelijke versie adaptive staircase builder,,2026.1.3,59.97713671594799,2026-04-02 16h28.59.060554 +0200,
5.9,ecc10neg,right,7,0,7,j,1,5.096554800000376,None,0,2,2,2,7,0,7,0,905.9404952000004,,,,,,,,,,,,905.9301164000008,905.9404952000004,905.9404952000004,906.8440296999997,905.9404952000004,911.0441714000008,j,1,5.096554800000376,None,direct,13,"[14, 15]",2,shifteddirectgaze.png,j,1,3,pilot4,001,2026-04-02_16h28.58.862,mogelijke versie adaptive staircase builder,,2026.1.3,59.97713671594799,2026-04-02 16h28.59.060554 +0200,
5.9,ecc10neg,right,8,0,8,j,0,1.9103331999995135,None,0,2,2,2,8,0,8,0,911.1427159000013,,,,,,,,,,,,911.1323816000004,911.1427159000013,911.1427159000013,912.0438826999998,911.1427159000013,913.0608047000005,j,0,1.9103331999995135,None,left,13,"[14, 15, 13]",3,shiftedgaze_L_13.png,j,0,3,pilot4,001,2026-04-02_16h28.58.862,mogelijke versie adaptive staircase builder,,2026.1.3,59.97713671594799,2026-04-02 16h28.59.060554 +0200,
5.9,ecc10neg,right,9,0,9,j,0,2.2865992999995797,None,0,2,2,2,9,0,9,0,913.1582780000008,,,,,,,,,,,,913.1478088000003,913.1582780000008,913.1582780000008,914.0605888000009,913.1582780000008,915.4606960000001,j,0,2.2865992999995797,None,left,14,"[14, 15, 13]",3,shiftedgaze_L_14.png,j,0,3,pilot4,001,2026-04-02_16h28.58.862,mogelijke versie adaptive staircase builder,,2026.1.3,59.97713671594799,2026-04-02 16h28.59.060554 +0200,
5.9,ecc10neg,right,10,0,10,f,1,2.286836299999777,None,0,2,2,2,10,0,10,0,915.5581401,,,,,,,,,,,,915.5478190000013,915.5581401,915.5581401,916.4604544000013,915.5581401,917.860663200001,f,1,2.286836299999777,None,right,15,"[14, 15, 13]",3,shiftedgaze_R_15.png,f,1,3,pilot4,001,2026-04-02_16h28.58.862,mogelijke versie adaptive staircase builder,,2026.1.3,59.97713671594799,2026-04-02 16h28.59.060554 +0200,
5.9,ecc10neg,right,11,0,11,f,1,2.0448794000003545,None,0,2,2,2,11,0,11,0,917.9601543000008,,,,,,,,,,,,917.9489346000009,917.9601543000008,917.9601543000008,918.8604018000005,917.9601543000008,920.0107371000013,f,1,2.0448794000003545,None,right,15,"[14, 15, 13, 15]",4,shiftedgaze_R_15.png,f,1,3,pilot4,001,2026-04-02_16h28.58.862,mogelijke versie adaptive staircase builder,,2026.1.3,59.97713671594799,2026-04-02 16h28.59.060554 +0200,
5.9,ecc10neg,right,12,0,12,f,1,3.4560980000005657,None,0,2,2,2,12,0,12,0,920.1087809,,,,,,,,,,,,920.0986224000007,920.1087809,920.1087809,921.0105277000002,920.1087809,923.5772656000008,f,1,3.4560980000005657,None,right,14,"[14, 15, 13, 15]",4,shiftedgaze_R_14.png,f,1,3,pilot4,001,2026-04-02_16h28.58.862,mogelijke versie adaptive staircase builder,,2026.1.3,59.97713671594799,2026-04-02 16h28.59.060554 +0200,
5.9,ecc10neg,right,13,0,13,j,0,1.7141881000006833,None,0,2,2,2,13,0,13,0,923.6746280000007,,,,,,,,,,,,923.6639758000001,923.6746280000007,923.6746280000007,924.5771065000008,923.6746280000007,925.3937237999999,j,0,1.7141881000006833,None,left,14,"[14, 15, 13, 15, 14]",5,shiftedgaze_L_14.png,j,0,3,pilot4,001,2026-04-02_16h28.58.862,mogelijke versie adaptive staircase builder,,2026.1.3,59.97713671594799,2026-04-02 16h28.59.060554 +0200,
5.9,ecc10neg,right,14,0,14,j,1,2.001237599999513,None,0,2,2,2,14,0,14,0,925.4917373999997,,,,,,,,,,,,925.4811384000004,925.4917373999997,925.4917373999997,926.3937708000012,925.4917373999997,927.4939353999998,j,1,2.001237599999513,None,direct,15,"[14, 15, 13, 15, 14]",5,shifteddirectgaze.png,j,1,3,pilot4,001,2026-04-02_16h28.58.862,mogelijke versie adaptive staircase builder,,2026.1.3,59.97713671594799,2026-04-02 16h28.59.060554 +0200,
5.9,ecc10neg,right,15,0,15,f,1,1.9487676000007923,None,0,2,2,2,15,0,15,0,927.5921151000002,,,,,,,,,,,,927.5818863000004,927.5921151000002,927.5921151000002,928.4936342000001,927.5921151000002,929.5440552,f,1,1.9487676000007923,None,right,15,"[14, 15, 13, 15, 14, 15]",6,shiftedgaze_R_15.png,f,1,3,pilot4,001,2026-04-02_16h28.58.862,mogelijke versie adaptive staircase builder,,2026.1.3,59.97713671594799,2026-04-02 16h28.59.060554 +0200,
5.9,ecc10neg,right,16,0,16,j,1,1.9218405000010534,None,0,2,2,2,16,0,16,0,929.6431023000005,,,,,,,,,,,,929.6319616000001,929.6431023000005,929.6431023000005,930.5435229000013,929.6431023000005,931.5773606000002,j,1,1.9218405000010534,None,direct,14,"[14, 15, 13, 15, 14, 15]",6,shifteddirectgaze.png,j,1,3,pilot4,001,2026-04-02_16h28.58.862,mogelijke versie adaptive staircase builder,,2026.1.3,59.97713671594799,2026-04-02 16h28.59.060554 +0200,
5.9,ecc10neg,right,17,0,17,j,0,3.498470600001383,None,0,2,2,2,17,0,17,0,931.6747625999997,,,,,,,,,,,,931.6645692000002,931.6747625999997,931.6747625999997,932.5770190000003,931.6747625999997,935.177182200001,j,0,3.498470600001383,None,right,14,"[14, 15, 13, 15, 14, 15, 14]",7,shiftedgaze_R_14.png,j,0,3,pilot4,001,2026-04-02_16h28.58.862,mogelijke versie adaptive staircase builder,,2026.1.3,59.97713671594799,2026-04-02 16h28.59.060554 +0200,
5.9,ecc10neg,right,18,0,18,f,1,8.440569000000323,None,0,2,2,2,18,0,18,0,935.2766826000006,,,,,,,,,,,,935.2660584000005,935.2766826000006,935.2766826000006,936.1769665000011,935.2766826000006,943.7269339000013,f,1,8.440569000000323,None,left,15,"[14, 15, 13, 15, 14, 15, 14]",7,shiftedgaze_L_15.png,f,1,3,pilot4,001,2026-04-02_16h28.58.862,mogelijke versie adaptive staircase builder,,2026.1.3,59.97713671594799,2026-04-02 16h28.59.060554 +0200,
5.9,ecc10neg,right,19,0,19,f,0,4.875624700000117,None,0,2,2,2,19,0,19,0,943.8253581000008,,,,,,,,,,,,943.8140076,943.8253581000008,943.8253581000008,944.7265888000002,943.8253581000008,948.7104467000008,f,0,4.875624700000117,None,direct,15,"[14, 15, 13, 15, 14, 15, 14]",7,shifteddirectgaze.png,f,0,3,pilot4,001,2026-04-02_16h28.58.862,mogelijke versie adaptive staircase builder,,2026.1.3,59.97713671594799,2026-04-02 16h28.59.060554 +0200,
5.9,ecc10neg,right,20,0,20,f,1,4.10642050000024,None,0,2,2,2,20,0,20,0,948.8105140999996,,,,,,,,,,,,948.800050400001,948.8105140999996,948.8105140999996,949.7101490000005,948.8105140999996,952.9269679000008,f,1,4.10642050000024,None,right,15,"[14, 15, 13, 15, 14, 15, 14]",7,shiftedgaze_R_15.png,f,1,3,pilot4,001,2026-04-02_16h28.58.862,mogelijke versie adaptive staircase builder,,2026.1.3,59.97713671594799,2026-04-02 16h28.59.060554 +0200,
5.9,ecc10neg,right,21,0,21,j,0,2.86901989999933,None,0,2,2,2,21,0,21,0,953.0239847000012,,,,,,,,,,,,953.0130927000009,953.0239847000012,953.0239847000012,953.9264363000002,953.0239847000012,955.8933341000011,j,0,2.86901989999933,None,left,15,"[14, 15, 13, 15, 14, 15, 14]",7,shiftedgaze_L_15.png,j,0,3,pilot4,001,2026-04-02_16h28.58.862,mogelijke versie adaptive staircase builder,,2026.1.3,59.97713671594799,2026-04-02 16h28.59.060554 +0200,
5.9,ecc10neg,right,22,0,22,f,1,2.1971496000005573,None,0,2,2,2,22,0,22,0,955.9918040000011,,,,,,,,,,,,955.9815359000004,955.9918040000011,955.9918040000011,956.8930154999998,955.9918040000011,958.1934958000002,f,1,2.1971496000005573,None,right,15,"[14, 15, 13, 15, 14, 15, 14]",7,shiftedgaze_R_15.png,f,1,3,pilot4,001,2026-04-02_16h28.58.862,mogelijke versie adaptive staircase builder,,2026.1.3,59.97713671594799,2026-04-02 16h28.59.060554 +0200,
5.9,ecc10neg,right,23,0,23,j,0,6.986313199999131,None,0,2,2,2,23,0,23,0,958.2905541,,,,,,,,,,,,958.279709800001,958.2905541,958.2905541,959.1933110999998,958.2905541,965.2937230000007,j,0,6.986313199999131,None,right,15,"[14, 15, 13, 15, 14, 15, 14]",7,shiftedgaze_R_15.png,j,0,3,pilot4,001,2026-04-02_16h28.58.862,mogelijke versie adaptive staircase builder,,2026.1.3,59.97713671594799,2026-04-02 16h28.59.060554 +0200,
5.9,ecc10neg,right,24,0,24,j,1,2.3484582000000955,None,0,2,2,2,24,0,24,0,965.3924582,,,,,,,,,,,,965.3808755000009,965.3924582,965.3924582,966.2931600000011,965.3924582,967.7433271999998,j,1,2.3484582000000955,None,direct,15,"[14, 15, 13, 15, 14, 15, 14]",7,shifteddirectgaze.png,j,1,3,pilot4,001,2026-04-02_16h28.58.862,mogelijke versie adaptive staircase builder,,2026.1.3,59.97713671594799,2026-04-02 16h28.59.060554 +0200,
5.9,ecc10neg,right,25,0,25,f,1,2.2830828000005567,None,0,2,2,2,25,0,25,0,967.8419383,,,,,,,,,,,,967.8320510000012,967.8419383,967.8419383,968.7428995000009,967.8419383,970.1265722999997,f,1,2.2830828000005567,None,right,15,"[14, 15, 13, 15, 14, 15, 14, 15]",8,shiftedgaze_R_15.png,f,1,3,pilot4,001,2026-04-02_16h28.58.862,mogelijke versie adaptive staircase builder,,2026.1.3,59.97713671594799,2026-04-02 16h28.59.060554 +0200,
5.9,ecc10neg,right,26,0,26,f,0,2.547429200001716,None,0,2,2,2,26,0,26,0,970.2255464999998,,,,,,,,,,,,970.2150065000005,970.2255464999998,970.2255464999998,971.1261777,970.2255464999998,972.7765896000001,f,0,2.547429200001716,None,direct,14,"[14, 15, 13, 15, 14, 15, 14, 15, 14]",9,shifteddirectgaze.png,f,0,3,pilot4,001,2026-04-02_16h28.58.862,mogelijke versie adaptive staircase builder,,2026.1.3,59.97713671594799,2026-04-02 16h28.59.060554 +0200,
5.9,ecc10neg,right,27,0,27,j,0,5.187019000000873,None,0,2,2,2,27,0,27,0,972.873956200001,,,,,,,,,,,,972.8630133000006,972.873956200001,972.873956200001,973.7762588000005,972.873956200001,978.0766015000008,j,0,5.187019000000873,None,right,15,"[14, 15, 13, 15, 14, 15, 14, 15, 14]",9,shiftedgaze_R_15.png,j,0,3,pilot4,001,2026-04-02_16h28.58.862,mogelijke versie adaptive staircase builder,,2026.1.3,59.97713671594799,2026-04-02 16h28.59.060554 +0200,
5.9,ecc10neg,right,28,0,28,j,0,3.333074399999532,None,0,2,2,2,28,0,28,0,978.1759378999996,,,,,,,,,,,,978.1655664000009,978.1759378999996,978.1759378999996,979.0763125000012,978.1759378999996,981.5098037999996,j,0,3.333074399999532,None,right,15,"[14, 15, 13, 15, 14, 15, 14, 15, 14]",9,shiftedgaze_R_15.png,j,0,3,pilot4,001,2026-04-02_16h28.58.862,mogelijke versie adaptive staircase builder,,2026.1.3,59.97713671594799,2026-04-02 16h28.59.060554 +0200,
5.9,ecc10neg,right,29,0,29,f,1,2.1173402999993414,None,0,2,2,2,29,0,29,0,981.6078299000001,,,,,,,,,,,,981.5972730000012,981.6078299000001,981.6078299000001,982.5094552999999,981.6078299000001,983.7264468000012,f,1,2.1173402999993414,None,right,15,"[14, 15, 13, 15, 14, 15, 14, 15, 14]",9,shiftedgaze_R_15.png,f,1,3,pilot4,001,2026-04-02_16h28.58.862,mogelijke versie adaptive staircase builder,,2026.1.3,59.97713671594799,2026-04-02 16h28.59.060554 +0200,
5.9,ecc10neg,right,30,0,30,j,0,5.5737596999988455,None,0,2,2,2,30,0,30,0,983.8231295000005,,,,,,,,,,,,983.8126893999997,983.8231295000005,983.8231295000005,984.7260806000013,983.8231295000005,989.4095097999998,j,0,5.5737596999988455,None,left,15,"[14, 15, 13, 15, 14, 15, 14, 15, 14]",9,shiftedgaze_L_15.png,j,0,3,pilot4,001,2026-04-02_16h28.58.862,mogelijke versie adaptive staircase builder,,2026.1.3,59.97713671594799,2026-04-02 16h28.59.060554 +0200,
5.9,ecc10neg,right,31,0,31,f,1,5.768617600000653,None,0,2,2,2,31,0,31,0,989.5084994000008,,,,,,,,,,,,989.4981477000001,989.5084994000008,989.5084994000008,990.4093528000012,989.5084994000008,995.2928795000007,f,1,5.768617600000653,None,right,15,"[14, 15, 13, 15, 14, 15, 14, 15, 14]",9,shiftedgaze_R_15.png,f,1,3,pilot4,001,2026-04-02_16h28.58.862,mogelijke versie adaptive staircase builder,,2026.1.3,59.97713671594799,2026-04-02 16h28.59.060554 +0200,
5.9,ecc10neg,right,32,0,32,j,0,2.471589300001142,None,0,2,2,2,32,0,32,0,995.3892531000001,,,,,,,,,,,,995.3784171999996,995.3892531000001,995.3892531000001,996.2926563000001,995.3892531000001,997.8762776000003,j,0,2.471589300001142,None,left,15,"[14, 15, 13, 15, 14, 15, 14, 15, 14]",9,shiftedgaze_L_15.png,j,0,3,pilot4,001,2026-04-02_16h28.58.862,mogelijke versie adaptive staircase builder,,2026.1.3,59.97713671594799,2026-04-02 16h28.59.060554 +0200,
5.9,ecc10neg,right,33,0,33,f,1,3.408483100000012,None,0,2,2,2,33,0,33,0,997.9724478000007,,,,,,,,,,,,997.9624414999998,997.9724478000007,997.9724478000007,998.8759389999996,997.9724478000007,1001.3929103999999,f,1,3.408483100000012,None,right,15,"[14, 15, 13, 15, 14, 15, 14, 15, 14]",9,shiftedgaze_R_15.png,f,1,3,pilot4,001,2026-04-02_16h28.58.862,mogelijke versie adaptive staircase builder,,2026.1.3,59.97713671594799,2026-04-02 16h28.59.060554 +0200,
5.9,ecc10neg,right,34,0,34,j,0,3.18871339999896,None,0,2,2,2,34,0,34,0,1001.4962486000004,,,,,,,,,,,,1001.483382800001,1001.4962486000004,1001.4962486000004,1002.3923639000004,1001.4962486000004,1004.6928036999998,j,0,3.18871339999896,None,right,15,"[14, 15, 13, 15, 14, 15, 14, 15, 14]",9,shiftedgaze_R_15.png,j,0,3,pilot4,001,2026-04-02_16h28.58.862,mogelijke versie adaptive staircase builder,,2026.1.3,59.97713671594799,2026-04-02 16h28.59.060554 +0200,
5.9,ecc10neg,right,35,0,35,j,1,2.3890865000012127,None,0,2,2,2,35,0,35,0,1004.7918643000012,,,,,,,,,,,,1004.7808963999996,1004.7918643000012,1004.7918643000012,1005.6926098000004,1004.7918643000012,1007.1928368000008,j,1,2.3890865000012127,None,direct,15,"[14, 15, 13, 15, 14, 15, 14, 15, 14]",9,shifteddirectgaze.png,j,1,3,pilot4,001,2026-04-02_16h28.58.862,mogelijke versie adaptive staircase builder,,2026.1.3,59.97713671594799,2026-04-02 16h28.59.060554 +0200,
5.9,ecc10neg,right,36,0,36,j,1,4.734995700000582,None,0,2,2,2,36,0,36,0,1007.293913200001,,,,,,,,,,,,1007.2834469999998,1007.293913200001,1007.293913200001,1008.1925502000013,1007.293913200001,1012.0427354000003,j,1,4.734995700000582,None,direct,15,"[14, 15, 13, 15, 14, 15, 14, 15, 14, 15]",10,shifteddirectgaze.png,j,1,3,pilot4,001,2026-04-02_16h28.58.862,mogelijke versie adaptive staircase builder,,2026.1.3,59.97713671594799,2026-04-02 16h28.59.060554 +0200,
5.9,ecc10neg,right,37,0,37,f,1,1.6876619000013307,None,0,2,2,2,37,0,37,0,1012.1413326000002,,,,,,,,,,,,1012.1302374000006,1012.1413326000002,1012.1413326000002,1013.0425100000011,1012.1413326000002,1013.842740600001,f,1,1.6876619000013307,None,left,14,"[14, 15, 13, 15, 14, 15, 14, 15, 14, 15]",10,shiftedgaze_L_14.png,f,1,3,pilot4,001,2026-04-02_16h28.58.862,mogelijke versie adaptive staircase builder,,2026.1.3,59.97713671594799,2026-04-02 16h28.59.060554 +0200,
5.9,ecc10neg,right,38,0,38,j,0,3.3448322000003827,None,0,2,2,2,38,0,38,0,1013.9401783000012,,,,,,,,,,,,1013.9300584000011,1013.9401783000012,1013.9401783000012,1014.8424634000003,1013.9401783000012,1017.2924975000005,j,0,3.3448322000003827,None,left,14,"[14, 15, 13, 15, 14, 15, 14, 15, 14, 15, 14]",11,shiftedgaze_L_14.png,j,0,3,pilot4,001,2026-04-02_16h28.58.862,mogelijke versie adaptive staircase builder,,2026.1.3,59.97713671594799,2026-04-02 16h28.59.060554 +0200,
5.9,ecc10neg,right,39,0,39,f,0,3.008022299998629,None,0,2,2,2,39,0,39,0,1017.3889679000004,,,,,,,,,,,,1017.3786090000012,1017.3889679000004,1017.3889679000004,1018.2923946999999,1017.3889679000004,1020.4092607000002,f,0,3.008022299998629,None,direct,15,"[14, 15, 13, 15, 14, 15, 14, 15, 14, 15, 14]",11,shifteddirectgaze.png,f,0,3,pilot4,001,2026-04-02_16h28.58.862,mogelijke versie adaptive staircase builder,,2026.1.3,59.97713671594799,2026-04-02 16h28.59.060554 +0200,
5.9,ecc10neg,right,40,0,40,j,1,2.915903099999923,None,0,2,2,2,40,0,40,0,1020.5049715000005,,,,,,,,,,,,1020.4941153,1020.5049715000005,1020.5049715000005,1021.4090346000012,1020.5049715000005,1023.4259086000002,j,1,2.915903099999923,None,direct,15,"[14, 15, 13, 15, 14, 15, 14, 15, 14, 15, 14]",11,shifteddirectgaze.png,j,1,3,pilot4,001,2026-04-02_16h28.58.862,mogelijke versie adaptive staircase builder,,2026.1.3,59.97713671594799,2026-04-02 16h28.59.060554 +0200,
5.9,ecc10neg,right,41,0,41,f,1,4.569662600000811,None,0,2,2,2,41,0,41,0,1023.5233378000012,,,,,,,,,,,,1023.5130577,1023.5233378000012,1023.5233378000012,1024.4256557000008,1023.5233378000012,1028.1093151000005,f,1,4.569662600000811,None,left,15,"[14, 15, 13, 15, 14, 15, 14, 15, 14, 15, 14, 15]",12,shiftedgaze_L_15.png,f,1,3,pilot4,001,2026-04-02_16h28.58.862,mogelijke versie adaptive staircase builder,,2026.1.3,59.97713671594799,2026-04-02 16h28.59.060554 +0200,
5.9,ecc10neg,right,42,0,42,j,0,3.1986985000003187,None,0,2,2,2,42,0,42,0,1028.2222542,,,,,,,,,,,,1028.2074721999998,1028.2222542,1028.2222542,1029.109050000001,1028.2222542,1031.425823200001,j,0,3.1986985000003187,None,left,14,"[14, 15, 13, 15, 14, 15, 14, 15, 14, 15, 14, 15, 14]",13,shiftedgaze_L_14.png,j,0,3,pilot4,001,2026-04-02_16h28.58.862,mogelijke versie adaptive staircase builder,,2026.1.3,59.97713671594799,2026-04-02 16h28.59.060554 +0200,
5.9,ecc10neg,right,43,0,43,j,0,2.4316629999993893,None,0,2,2,2,43,0,43,0,1031.5252720000008,,,,,,,,,,,,1031.5141347999997,1031.5252720000008,1031.5252720000008,1032.4257620999997,1031.5252720000008,1033.9590918000013,j,0,2.4316629999993893,None,left,15,"[14, 15, 13, 15, 14, 15, 14, 15, 14, 15, 14, 15, 14]",13,shiftedgaze_L_15.png,j,0,3,pilot4,001,2026-04-02_16h28.58.862,mogelijke versie adaptive staircase builder,,2026.1.3,59.97713671594799,2026-04-02 16h28.59.060554 +0200,
5.9,ecc10neg,right,44,0,44,f,1,6.923697500000344,None,0,2,2,2,44,0,44,0,1034.057169900001,,,,,,,,,,,,1034.0451233000003,1034.057169900001,1034.057169900001,1034.9588543999998,1034.057169900001,1040.9924714000008,f,1,6.923697500000344,None,right,15,"[14, 15, 13, 15, 14, 15, 14, 15, 14, 15, 14, 15, 14]",13,shiftedgaze_R_15.png,f,1,3,pilot4,001,2026-04-02_16h28.58.862,mogelijke versie adaptive staircase builder,,2026.1.3,59.97713671594799,2026-04-02 16h28.59.060554 +0200,
5.9,ecc10neg,right,45,0,45,f,0,6.242179099999703,None,0,2,2,2,45,0,45,0,1041.0906799000004,,,,,,,,,,,,1041.0797132999996,1041.0906799000004,1041.0906799000004,1041.9921043000013,1041.0906799000004,1047.3422477000004,f,0,6.242179099999703,None,direct,15,"[14, 15, 13, 15, 14, 15, 14, 15, 14, 15, 14, 15, 14]",13,shifteddirectgaze.png,f,0,3,pilot4,001,2026-04-02_16h28.58.862,mogelijke versie adaptive staircase builder,,2026.1.3,59.97713671594799,2026-04-02 16h28.59.060554 +0200,
5.9,ecc10neg,right,46,0,46,j,0,1.610271700001249,None,0,2,2,2,46,0,46,0,1047.4425815000013,,,,,,,,,,,,1047.4322104000003,1047.4425815000013,1047.4425815000013,1048.3420106000012,1047.4425815000013,1049.0588263999998,j,0,1.610271700001249,None,right,15,"[14, 15, 13, 15, 14, 15, 14, 15, 14, 15, 14, 15, 14]",13,shiftedgaze_R_15.png,j,0,3,pilot4,001,2026-04-02_16h28.58.862,mogelijke versie adaptive staircase builder,,2026.1.3,59.97713671594799,2026-04-02 16h28.59.060554 +0200,
5.9,ecc10neg,right,47,0,47,j,0,9.598972300000241,None,0,2,2,2,47,0,47,0,1049.1579533000004,,,,,,,,,,,,1049.1451538000001,1049.1579533000004,1049.1579533000004,1050.0586760000006,1049.1579533000004,1058.758562000001,j,0,9.598972300000241,None,right,15,"[14, 15, 13, 15, 14, 15, 14, 15, 14, 15, 14, 15, 14]",13,shiftedgaze_R_15.png,j,0,3,pilot4,001,2026-04-02_16h28.58.862,mogelijke versie adaptive staircase builder,,2026.1.3,59.97713671594799,2026-04-02 16h28.59.060554 +0200,
5.9,ecc10neg,right,48,0,48,f,0,8.907587200001217,None,0,2,2,2,48,0,48,0,1058.8577420000001,,,,,,,,,,,,1058.8463239000012,1058.8577420000001,1058.8577420000001,1059.7583611999999,1058.8577420000001,1067.775285900001,f,0,8.907587200001217,None,direct,15,"[14, 15, 13, 15, 14, 15, 14, 15, 14, 15, 14, 15, 14]",13,shifteddirectgaze.png,f,0,3,pilot4,001,2026-04-02_16h28.58.862,mogelijke versie adaptive staircase builder,,2026.1.3,59.97713671594799,2026-04-02 16h28.59.060554 +0200,
5.9,ecc10neg,right,49,0,49,j,1,1.9476436999993894,None,0,2,2,2,49,0,49,0,1067.8730990000004,,,,,,,,,,,,1067.8626713000012,1067.8730990000004,1067.8730990000004,1068.775040300001,1067.8730990000004,1069.8253292000009,j,1,1.9476436999993894,None,direct,15,"[14, 15, 13, 15, 14, 15, 14, 15, 14, 15, 14, 15, 14]",13,shifteddirectgaze.png,j,1,3,pilot4,001,2026-04-02_16h28.58.862,mogelijke versie adaptive staircase builder,,2026.1.3,59.97713671594799,2026-04-02 16h28.59.060554 +0200,
5.9,ecc10neg,right,2,2,0,,,,,0,2,2,2,,,,,,,,,,,,,,,,,,,,,,,,,,,,,,,,,,,pilot4,001,2026-04-02_16h28.58.862,mogelijke versie adaptive staircase builder,,2026.1.3,59.97713671594799,2026-04-02 16h28.59.060554 +0200,
