xPos,stimulusSet,whichImage,thisN,thisTrialN,thisRepN,key_resp.keys,key_resp.corr,key_resp.rt,key_resp.duration,blocks.thisRepN,blocks.thisTrialN,blocks.thisN,blocks.thisIndex,trials.thisRepN,trials.thisTrialN,trials.thisN,trials.thisIndex,thisRow.t,notes,piloting,intro.started,introinstructions.started,intro_key.started,demo_image_left.started,demo_image_middle.started,demo_image_right.started,intro.stopped,intro_key.keys,intro_key.rt,intro_key.duration,block_start.started,block_start.stopped,trial.started,key_resp.started,middle_image.started,right_image.started,left_image.started,trial.stopped,trials.key_resp.keys,trials.key_resp.corr,trials.key_resp.rt,trials.key_resp.duration,direction,angle,reversal_intensities,number_reversals,stimulus,response,correct,blockNumber,participant,session,date,expName,expVersion,psychopyVersion,frameRate,expStart,
,,,,,,,,,,,,,,,,,,,,False,0.05436059999965437,0.06585119999999733,0.06585119999999733,0.06585119999999733,0.06585119999999733,0.06585119999999733,315.9661827,space,315.7249619999998,0.16812669999990248,,,,,,,,,,,,,,,,,,,,,results2,001,2026-04-13_11h00.41.288,mogelijke versie adaptive staircase builder,,2026.1.3,60.04159681829083,2026-04-13 11h00.41.628183 +0200,
4.5,ecc10pos,left,0,0,0,f,1,2.5311401999997543,None,0,0,0,0,0,0,0,0,316.30798579999964,,,,,,,,,,,,,316.19432959999995,316.1943922999999,316.2969097,316.30798579999964,316.30798579999964,316.30798579999964,317.19904759999963,318.84945629999993,f,1,2.5311401999997543,None,right,20,[],0,shiftedgaze_R_20.png,f,1,1,results2,001,2026-04-13_11h00.41.288,mogelijke versie adaptive staircase builder,,2026.1.3,60.04159681829083,2026-04-13 11h00.41.628183 +0200,
4.5,ecc10pos,left,1,0,1,j,0,3.565557699999772,None,0,0,0,0,1,0,1,0,318.9772273999997,,,,,,,,,,,,,,,318.9654416999997,318.9772273999997,318.9772273999997,318.9772273999997,319.8656354999998,322.5491772999999,j,0,3.565557699999772,None,left,19,[19],1,shiftedgaze_L_19.png,j,0,1,results2,001,2026-04-13_11h00.41.288,mogelijke versie adaptive staircase builder,,2026.1.3,60.04159681829083,2026-04-13 11h00.41.628183 +0200,
4.5,ecc10pos,left,2,0,2,f,1,2.370893799999976,None,0,0,0,0,2,0,2,0,322.6600983999997,,,,,,,,,,,,,,,322.6487119999997,322.6600983999997,322.6600983999997,322.6600983999997,323.5488028,325.0325380999998,f,1,2.370893799999976,None,right,20,"[19, 20]",2,shiftedgaze_R_20.png,f,1,1,results2,001,2026-04-13_11h00.41.288,mogelijke versie adaptive staircase builder,,2026.1.3,60.04159681829083,2026-04-13 11h00.41.628183 +0200,
4.5,ecc10pos,left,3,0,3,f,1,3.599931799999922,None,0,0,0,0,3,0,3,0,325.1428544999999,,,,,,,,,,,,,,,325.1326213999996,325.1428544999999,325.1428544999999,325.1428544999999,326.0322406999999,328.74928709999995,f,1,3.599931799999922,None,right,19,"[19, 20]",2,shiftedgaze_R_19.png,f,1,1,results2,001,2026-04-13_11h00.41.288,mogelijke versie adaptive staircase builder,,2026.1.3,60.04159681829083,2026-04-13 11h00.41.628183 +0200,
4.5,ecc10pos,left,4,0,4,j,0,2.5295687000002545,None,0,0,0,0,4,0,4,0,328.8611931999999,,,,,,,,,,,,,,,328.8508827999999,328.8611931999999,328.8611931999999,328.8611931999999,329.74871630000007,331.3989924000002,j,0,2.5295687000002545,None,right,18,"[19, 20, 18]",3,shiftedgaze_R_18.png,j,0,1,results2,001,2026-04-13_11h00.41.288,mogelijke versie adaptive staircase builder,,2026.1.3,60.04159681829083,2026-04-13 11h00.41.628183 +0200,
4.5,ecc10pos,left,5,0,5,f,1,3.1808522000001176,None,0,0,0,0,5,0,5,0,331.5139035999996,,,,,,,,,,,,,,,331.50248169999986,331.5139035999996,331.5139035999996,331.5139035999996,332.39887059999955,334.69913979999956,f,1,3.1808522000001176,None,left,19,"[19, 20, 18, 19]",4,shiftedgaze_L_19.png,f,1,1,results2,001,2026-04-13_11h00.41.288,mogelijke versie adaptive staircase builder,,2026.1.3,60.04159681829083,2026-04-13 11h00.41.628183 +0200,
4.5,ecc10pos,left,6,0,6,j,0,3.026225799999338,None,0,0,0,0,6,0,6,0,334.80465630000026,,,,,,,,,,,,,,,334.7928154999995,334.80465630000026,334.80465630000026,334.80465630000026,335.6988609999994,337.8327721999999,j,0,3.026225799999338,None,left,18,"[19, 20, 18, 19, 18]",5,shiftedgaze_L_18.png,j,0,1,results2,001,2026-04-13_11h00.41.288,mogelijke versie adaptive staircase builder,,2026.1.3,60.04159681829083,2026-04-13 11h00.41.628183 +0200,
4.5,ecc10pos,left,7,0,7,j,0,2.783752999999706,None,0,0,0,0,7,0,7,0,337.9430299999999,,,,,,,,,,,,,,,337.93198129999973,337.9430299999999,337.9430299999999,337.9430299999999,338.83203679999997,340.73238749999973,j,0,2.783752999999706,None,right,19,"[19, 20, 18, 19, 18]",5,shiftedgaze_R_19.png,j,0,1,results2,001,2026-04-13_11h00.41.288,mogelijke versie adaptive staircase builder,,2026.1.3,60.04159681829083,2026-04-13 11h00.41.628183 +0200,
4.5,ecc10pos,left,8,0,8,f,1,1.8221894999996948,None,0,0,0,0,8,0,8,0,340.83348929999966,,,,,,,,,,,,,,,340.82343399999945,340.83348929999966,340.83348929999966,340.83348929999966,341.7318454000001,342.6655335999999,f,1,1.8221894999996948,None,right,20,"[19, 20, 18, 19, 18, 20]",6,shiftedgaze_R_20.png,f,1,1,results2,001,2026-04-13_11h00.41.288,mogelijke versie adaptive staircase builder,,2026.1.3,60.04159681829083,2026-04-13 11h00.41.628183 +0200,
4.5,ecc10pos,left,9,0,9,j,0,2.0627423000005365,None,0,0,0,0,9,0,9,0,342.78411170000027,,,,,,,,,,,,,,,342.7729919999997,342.78411170000027,342.78411170000027,342.78411170000027,343.66524999999956,344.8489273,j,0,2.0627423000005365,None,left,19,"[19, 20, 18, 19, 18, 20, 19]",7,shiftedgaze_L_19.png,j,0,1,results2,001,2026-04-13_11h00.41.288,mogelijke versie adaptive staircase builder,,2026.1.3,60.04159681829083,2026-04-13 11h00.41.628183 +0200,
4.5,ecc10pos,left,10,0,10,j,0,2.8445768999999927,None,0,0,0,0,10,0,10,0,344.9545078999995,,,,,,,,,,,,,,,344.94304749999947,344.9545078999995,344.9545078999995,344.9545078999995,345.8485383000002,347.8157221999995,j,0,2.8445768999999927,None,left,20,"[19, 20, 18, 19, 18, 20, 19]",7,shiftedgaze_L_20.png,j,0,1,results2,001,2026-04-13_11h00.41.288,mogelijke versie adaptive staircase builder,,2026.1.3,60.04159681829083,2026-04-13 11h00.41.628183 +0200,
4.5,ecc10pos,left,11,0,11,f,1,3.102673300000788,None,0,0,0,0,11,0,11,0,347.91261819999954,,,,,,,,,,,,,,,347.9022586999995,347.91261819999954,347.91261819999954,347.91261819999954,348.8152476,351.0320864999999,f,1,3.102673300000788,None,left,20,"[19, 20, 18, 19, 18, 20, 19, 20]",8,shiftedgaze_L_20.png,f,1,1,results2,001,2026-04-13_11h00.41.288,mogelijke versie adaptive staircase builder,,2026.1.3,60.04159681829083,2026-04-13 11h00.41.628183 +0200,
4.5,ecc10pos,left,12,0,12,f,0,2.4006347999993523,None,0,0,0,0,12,0,12,0,351.1503235999994,,,,,,,,,,,,,,,351.13911439999947,351.1503235999994,351.1503235999994,351.1503235999994,352.0318102999995,353.56569999999965,f,0,2.4006347999993523,None,direct,19,"[19, 20, 18, 19, 18, 20, 19, 20, 19]",9,shifteddirectgaze.png,f,0,1,results2,001,2026-04-13_11h00.41.288,mogelijke versie adaptive staircase builder,,2026.1.3,60.04159681829083,2026-04-13 11h00.41.628183 +0200,
4.5,ecc10pos,left,13,0,13,j,0,2.5481205000005502,None,0,0,0,0,13,0,13,0,353.68277960000023,,,,,,,,,,,,,,,353.67104530000006,353.68277960000023,353.68277960000023,353.68277960000023,354.5650703999995,356.2320257999995,j,0,2.5481205000005502,None,left,20,"[19, 20, 18, 19, 18, 20, 19, 20, 19]",9,shiftedgaze_L_20.png,j,0,1,results2,001,2026-04-13_11h00.41.288,mogelijke versie adaptive staircase builder,,2026.1.3,60.04159681829083,2026-04-13 11h00.41.628183 +0200,
4.5,ecc10pos,left,14,0,14,j,0,2.2158962000003157,None,0,0,0,0,14,0,14,0,356.3429366999994,,,,,,,,,,,,,,,356.33118669999976,356.3429366999994,356.3429366999994,356.3429366999994,357.2315099000002,358.5654972999996,j,0,2.2158962000003157,None,right,20,"[19, 20, 18, 19, 18, 20, 19, 20, 19]",9,shiftedgaze_R_20.png,j,0,1,results2,001,2026-04-13_11h00.41.288,mogelijke versie adaptive staircase builder,,2026.1.3,60.04159681829083,2026-04-13 11h00.41.628183 +0200,
4.5,ecc10pos,left,15,0,15,f,1,1.8771610999992845,None,0,0,0,0,15,0,15,0,358.68173609999985,,,,,,,,,,,,,,,358.66998490000014,358.68173609999985,358.68173609999985,358.68173609999985,359.5650327999997,360.5655056999999,f,1,1.8771610999992845,None,left,20,"[19, 20, 18, 19, 18, 20, 19, 20, 19, 20]",10,shiftedgaze_L_20.png,f,1,1,results2,001,2026-04-13_11h00.41.288,mogelijke versie adaptive staircase builder,,2026.1.3,60.04159681829083,2026-04-13 11h00.41.628183 +0200,
4.5,ecc10pos,left,16,0,16,j,0,2.0670686000003116,None,0,0,0,0,16,0,16,0,360.67584469999974,,,,,,,,,,,,,,,360.6644090999994,360.67584469999974,360.67584469999974,360.67584469999974,361.5649886999995,362.74882149999985,j,0,2.0670686000003116,None,right,19,"[19, 20, 18, 19, 18, 20, 19, 20, 19, 20, 19]",11,shiftedgaze_R_19.png,j,0,1,results2,001,2026-04-13_11h00.41.288,mogelijke versie adaptive staircase builder,,2026.1.3,60.04159681829083,2026-04-13 11h00.41.628183 +0200,
4.5,ecc10pos,left,17,0,17,f,0,2.236030799999753,None,0,0,0,0,17,0,17,0,362.85089109999944,,,,,,,,,,,,,,,362.8408700999994,362.85089109999944,362.85089109999944,362.85089109999944,363.7481922000002,365.09863730000006,f,0,2.236030799999753,None,direct,20,"[19, 20, 18, 19, 18, 20, 19, 20, 19, 20, 19]",11,shifteddirectgaze.png,f,0,1,results2,001,2026-04-13_11h00.41.288,mogelijke versie adaptive staircase builder,,2026.1.3,60.04159681829083,2026-04-13 11h00.41.628183 +0200,
4.5,ecc10pos,left,18,0,18,f,1,2.7841121000001294,None,0,0,0,0,18,0,18,0,365.1907371000002,,,,,,,,,,,,,,,365.1799963999997,365.1907371000002,365.1907371000002,365.1907371000002,366.09810139999945,367.9826812999995,f,1,2.7841121000001294,None,right,20,"[19, 20, 18, 19, 18, 20, 19, 20, 19, 20, 19, 20]",12,shiftedgaze_R_20.png,f,1,1,results2,001,2026-04-13_11h00.41.288,mogelijke versie adaptive staircase builder,,2026.1.3,60.04159681829083,2026-04-13 11h00.41.628183 +0200,
4.5,ecc10pos,left,19,0,19,j,1,2.019343299999491,None,0,0,0,0,19,0,19,0,368.07553679999955,,,,,,,,,,,,,,,368.06323120000025,368.07553679999955,368.07553679999955,368.07553679999955,368.99819249999973,370.0984567999999,j,1,2.019343299999491,None,direct,19,"[19, 20, 18, 19, 18, 20, 19, 20, 19, 20, 19, 20]",12,shifteddirectgaze.png,j,1,1,results2,001,2026-04-13_11h00.41.288,mogelijke versie adaptive staircase builder,,2026.1.3,60.04159681829083,2026-04-13 11h00.41.628183 +0200,
4.5,ecc10pos,left,20,0,20,j,0,2.599153600000136,None,0,0,0,0,20,0,20,0,370.2159904999994,,,,,,,,,,,,,,,370.20478140000023,370.2159904999994,370.2159904999994,370.2159904999994,371.0981633999995,372.8316943999994,j,0,2.599153600000136,None,left,18,"[19, 20, 18, 19, 18, 20, 19, 20, 19, 20, 19, 20, 18]",13,shiftedgaze_L_18.png,j,0,1,results2,001,2026-04-13_11h00.41.288,mogelijke versie adaptive staircase builder,,2026.1.3,60.04159681829083,2026-04-13 11h00.41.628183 +0200,
4.5,ecc10pos,left,21,0,21,f,0,2.128777599999921,None,0,0,0,0,21,0,21,0,372.9419911,,,,,,,,,,,,,,,372.93052469999975,372.9419911,372.9419911,372.9419911,373.8314657999995,375.08167170000024,f,0,2.128777599999921,None,direct,19,"[19, 20, 18, 19, 18, 20, 19, 20, 19, 20, 19, 20, 18]",13,shifteddirectgaze.png,f,0,1,results2,001,2026-04-13_11h00.41.288,mogelijke versie adaptive staircase builder,,2026.1.3,60.04159681829083,2026-04-13 11h00.41.628183 +0200,
4.5,ecc10pos,left,22,0,22,j,0,1.8886646000000837,None,0,0,0,0,22,0,22,0,375.1740573000002,,,,,,,,,,,,,,,375.16310659999954,375.1740573000002,375.1740573000002,375.1740573000002,376.0814820999999,377.06515530000024,j,0,1.8886646000000837,None,right,20,"[19, 20, 18, 19, 18, 20, 19, 20, 19, 20, 19, 20, 18]",13,shiftedgaze_R_20.png,j,0,1,results2,001,2026-04-13_11h00.41.288,mogelijke versie adaptive staircase builder,,2026.1.3,60.04159681829083,2026-04-13 11h00.41.628183 +0200,
4.5,ecc10pos,left,23,0,23,j,1,2.223430600000029,None,0,0,0,0,23,0,23,0,377.1593706999997,,,,,,,,,,,,,,,377.1485872999997,377.1593706999997,377.1593706999997,377.1593706999997,378.0647855000002,379.39833919999955,j,1,2.223430600000029,None,direct,20,"[19, 20, 18, 19, 18, 20, 19, 20, 19, 20, 19, 20, 18, 20]",14,shifteddirectgaze.png,j,1,1,results2,001,2026-04-13_11h00.41.288,mogelijke versie adaptive staircase builder,,2026.1.3,60.04159681829083,2026-04-13 11h00.41.628183 +0200,
4.5,ecc10pos,left,24,0,24,f,0,1.8356912999997803,None,0,0,0,0,24,0,24,0,379.49099569999953,,,,,,,,,,,,,,,379.48037449999947,379.49099569999953,379.49099569999953,379.49099569999953,380.39801750000015,381.33174420000023,f,0,1.8356912999997803,None,direct,19,"[19, 20, 18, 19, 18, 20, 19, 20, 19, 20, 19, 20, 18, 20, 19]",15,shifteddirectgaze.png,f,0,1,results2,001,2026-04-13_11h00.41.288,mogelijke versie adaptive staircase builder,,2026.1.3,60.04159681829083,2026-04-13 11h00.41.628183 +0200,
4.5,ecc10pos,left,25,0,25,f,1,2.8846624999996493,None,0,0,0,0,25,0,25,0,381.42609930000026,,,,,,,,,,,,,,,381.41518119999955,381.42609930000026,381.42609930000026,381.42609930000026,382.33125100000007,384.3151407999999,f,1,2.8846624999996493,None,right,20,"[19, 20, 18, 19, 18, 20, 19, 20, 19, 20, 19, 20, 18, 20, 19, 20]",16,shiftedgaze_R_20.png,f,1,1,results2,001,2026-04-13_11h00.41.288,mogelijke versie adaptive staircase builder,,2026.1.3,60.04159681829083,2026-04-13 11h00.41.628183 +0200,
4.5,ecc10pos,left,26,0,26,f,1,2.439403299999867,None,0,0,0,0,26,0,26,0,384.4394385999999,,,,,,,,,,,,,,,384.42789109999967,384.4394385999999,384.4394385999999,384.4394385999999,385.31476669999984,386.8815058999994,f,1,2.439403299999867,None,left,19,"[19, 20, 18, 19, 18, 20, 19, 20, 19, 20, 19, 20, 18, 20, 19, 20]",16,shiftedgaze_L_19.png,f,1,1,results2,001,2026-04-13_11h00.41.288,mogelijke versie adaptive staircase builder,,2026.1.3,60.04159681829083,2026-04-13 11h00.41.628183 +0200,
4.5,ecc10pos,left,27,0,27,j,0,1.663709800000106,None,0,0,0,0,27,0,27,0,386.99160189999975,,,,,,,,,,,,,,,386.98026269999946,386.99160189999975,386.99160189999975,386.99160189999975,387.88108220000004,388.66507499999943,j,0,1.663709800000106,None,right,18,"[19, 20, 18, 19, 18, 20, 19, 20, 19, 20, 19, 20, 18, 20, 19, 20, 18]",17,shiftedgaze_R_18.png,j,0,1,results2,001,2026-04-13_11h00.41.288,mogelijke versie adaptive staircase builder,,2026.1.3,60.04159681829083,2026-04-13 11h00.41.628183 +0200,
4.5,ecc10pos,left,28,0,28,j,0,1.7859082999993916,None,0,0,0,0,28,0,28,0,388.78091799999993,,,,,,,,,,,,,,,388.7694583999996,388.78091799999993,388.78091799999993,388.78091799999993,389.6644682000001,390.58169150000003,j,0,1.7859082999993916,None,left,19,"[19, 20, 18, 19, 18, 20, 19, 20, 19, 20, 19, 20, 18, 20, 19, 20, 18]",17,shiftedgaze_L_19.png,j,0,1,results2,001,2026-04-13_11h00.41.288,mogelijke versie adaptive staircase builder,,2026.1.3,60.04159681829083,2026-04-13 11h00.41.628183 +0200,
4.5,ecc10pos,left,29,0,29,f,0,2.012149099999988,None,0,0,0,0,29,0,29,0,390.6907556000001,,,,,,,,,,,,,,,390.67952790000027,390.6907556000001,390.6907556000001,390.6907556000001,391.58130930000016,392.71559990000014,f,0,2.012149099999988,None,direct,20,"[19, 20, 18, 19, 18, 20, 19, 20, 19, 20, 19, 20, 18, 20, 19, 20, 18]",17,shifteddirectgaze.png,f,0,1,results2,001,2026-04-13_11h00.41.288,mogelijke versie adaptive staircase builder,,2026.1.3,60.04159681829083,2026-04-13 11h00.41.628183 +0200,
4.5,ecc10pos,left,30,0,30,f,1,1.8773574000006192,None,0,0,0,0,30,0,30,0,392.80940450000026,,,,,,,,,,,,,,,392.79814250000027,392.80940450000026,392.80940450000026,392.80940450000026,393.73126550000006,394.6983303000002,f,1,1.8773574000006192,None,right,20,"[19, 20, 18, 19, 18, 20, 19, 20, 19, 20, 19, 20, 18, 20, 19, 20, 18, 20]",18,shiftedgaze_R_20.png,f,1,1,results2,001,2026-04-13_11h00.41.288,mogelijke versie adaptive staircase builder,,2026.1.3,60.04159681829083,2026-04-13 11h00.41.628183 +0200,
4.5,ecc10pos,left,31,0,31,f,0,1.874513400000069,None,0,0,0,0,31,0,31,0,394.78829910000013,,,,,,,,,,,,,,,394.7776366000003,394.78829910000013,394.78829910000013,394.78829910000013,395.6981678999996,396.66480379999985,f,0,1.874513400000069,None,direct,19,"[19, 20, 18, 19, 18, 20, 19, 20, 19, 20, 19, 20, 18, 20, 19, 20, 18, 20, 19]",19,shifteddirectgaze.png,f,0,1,results2,001,2026-04-13_11h00.41.288,mogelijke versie adaptive staircase builder,,2026.1.3,60.04159681829083,2026-04-13 11h00.41.628183 +0200,
4.5,ecc10pos,left,32,0,32,f,1,2.251812399999835,None,0,0,0,0,32,0,32,0,396.7550301999995,,,,,,,,,,,,,,,396.74434359999987,396.7550301999995,396.7550301999995,396.7550301999995,397.66444939999974,399.0148358000001,f,1,2.251812399999835,None,right,20,"[19, 20, 18, 19, 18, 20, 19, 20, 19, 20, 19, 20, 18, 20, 19, 20, 18, 20, 19, 20]",20,shiftedgaze_R_20.png,f,1,1,results2,001,2026-04-13_11h00.41.288,mogelijke versie adaptive staircase builder,,2026.1.3,60.04159681829083,2026-04-13 11h00.41.628183 +0200,
4.5,ecc10pos,left,33,0,33,j,0,1.8023167000001195,None,0,0,0,0,33,0,33,0,399.13246560000016,,,,,,,,,,,,,,,399.1210765000001,399.13246560000016,399.13246560000016,399.13246560000016,400.01426500000025,400.94817589999957,j,0,1.8023167000001195,None,left,19,"[19, 20, 18, 19, 18, 20, 19, 20, 19, 20, 19, 20, 18, 20, 19, 20, 18, 20, 19, 20, 19]",21,shiftedgaze_L_19.png,j,0,1,results2,001,2026-04-13_11h00.41.288,mogelijke versie adaptive staircase builder,,2026.1.3,60.04159681829083,2026-04-13 11h00.41.628183 +0200,
4.5,ecc10pos,left,34,0,34,j,0,2.129402900000059,None,0,0,0,0,34,0,34,0,401.0455135999996,,,,,,,,,,,,,,,401.03444179999997,401.0455135999996,401.0455135999996,401.0455135999996,401.9476015999994,403.18138580000004,j,0,2.129402900000059,None,left,20,"[19, 20, 18, 19, 18, 20, 19, 20, 19, 20, 19, 20, 18, 20, 19, 20, 18, 20, 19, 20, 19]",21,shiftedgaze_L_20.png,j,0,1,results2,001,2026-04-13_11h00.41.288,mogelijke versie adaptive staircase builder,,2026.1.3,60.04159681829083,2026-04-13 11h00.41.628183 +0200,
4.5,ecc10pos,left,35,0,35,f,0,1.7630382000006648,None,0,0,0,0,35,0,35,0,403.2918638999995,,,,,,,,,,,,,,,403.2805309999999,403.2918638999995,403.2918638999995,403.2918638999995,404.1807308000002,405.06459229999973,f,0,1.7630382000006648,None,direct,20,"[19, 20, 18, 19, 18, 20, 19, 20, 19, 20, 19, 20, 18, 20, 19, 20, 18, 20, 19, 20, 19]",21,shifteddirectgaze.png,f,0,1,results2,001,2026-04-13_11h00.41.288,mogelijke versie adaptive staircase builder,,2026.1.3,60.04159681829083,2026-04-13 11h00.41.628183 +0200,
4.5,ecc10pos,left,36,0,36,f,1,2.0569214999995893,None,0,0,0,0,36,0,36,0,405.1819233000001,,,,,,,,,,,,,,,405.17053540000006,405.1819233000001,405.1819233000001,405.1819233000001,406.06420769999977,407.24799889999986,f,1,2.0569214999995893,None,left,20,"[19, 20, 18, 19, 18, 20, 19, 20, 19, 20, 19, 20, 18, 20, 19, 20, 18, 20, 19, 20, 19, 20]",22,shiftedgaze_L_20.png,f,1,1,results2,001,2026-04-13_11h00.41.288,mogelijke versie adaptive staircase builder,,2026.1.3,60.04159681829083,2026-04-13 11h00.41.628183 +0200,
4.5,ecc10pos,left,37,0,37,f,1,2.4677442000001975,None,0,0,0,0,37,0,37,0,407.3471168000001,,,,,,,,,,,,,,,407.3364934999995,407.3471168000001,407.3471168000001,407.3471168000001,408.2476950999994,409.8314353999999,f,1,2.4677442000001975,None,left,19,"[19, 20, 18, 19, 18, 20, 19, 20, 19, 20, 19, 20, 18, 20, 19, 20, 18, 20, 19, 20, 19, 20]",22,shiftedgaze_L_19.png,f,1,1,results2,001,2026-04-13_11h00.41.288,mogelijke versie adaptive staircase builder,,2026.1.3,60.04159681829083,2026-04-13 11h00.41.628183 +0200,
4.5,ecc10pos,left,38,0,38,j,0,1.884678200000053,None,0,0,0,0,38,0,38,0,409.9302487,,,,,,,,,,,,,,,409.9189653999997,409.9302487,409.9302487,409.9302487,410.8313429999994,411.83130140000003,j,0,1.884678200000053,None,left,18,"[19, 20, 18, 19, 18, 20, 19, 20, 19, 20, 19, 20, 18, 20, 19, 20, 18, 20, 19, 20, 19, 20, 18]",23,shiftedgaze_L_18.png,j,0,1,results2,001,2026-04-13_11h00.41.288,mogelijke versie adaptive staircase builder,,2026.1.3,60.04159681829083,2026-04-13 11h00.41.628183 +0200,
4.5,ecc10pos,left,39,0,39,j,0,1.9749222999998892,None,0,0,0,0,39,0,39,0,411.9279469999997,,,,,,,,,,,,,,,411.9165944000001,411.9279469999997,411.9279469999997,411.9279469999997,412.83098610000025,413.9146323,j,0,1.9749222999998892,None,left,19,"[19, 20, 18, 19, 18, 20, 19, 20, 19, 20, 19, 20, 18, 20, 19, 20, 18, 20, 19, 20, 19, 20, 18]",23,shiftedgaze_L_19.png,j,0,1,results2,001,2026-04-13_11h00.41.288,mogelijke versie adaptive staircase builder,,2026.1.3,60.04159681829083,2026-04-13 11h00.41.628183 +0200,
4.5,ecc10pos,left,40,0,40,f,1,2.1688937999997506,None,0,0,0,0,40,0,40,0,414.02191809999977,,,,,,,,,,,,,,,414.0110275000002,414.02191809999977,414.02191809999977,414.02191809999977,414.9139666999995,416.1978094000001,f,1,2.1688937999997506,None,right,20,"[19, 20, 18, 19, 18, 20, 19, 20, 19, 20, 19, 20, 18, 20, 19, 20, 18, 20, 19, 20, 19, 20, 18, 20]",24,shiftedgaze_R_20.png,f,1,1,results2,001,2026-04-13_11h00.41.288,mogelijke versie adaptive staircase builder,,2026.1.3,60.04159681829083,2026-04-13 11h00.41.628183 +0200,
4.5,ecc10pos,left,41,0,41,f,1,2.943658599999253,None,0,0,0,0,41,0,41,0,416.3192623,,,,,,,,,,,,,,,416.30785960000003,416.3192623,416.3192623,416.3192623,417.1974593,419.26452389999986,f,1,2.943658599999253,None,left,19,"[19, 20, 18, 19, 18, 20, 19, 20, 19, 20, 19, 20, 18, 20, 19, 20, 18, 20, 19, 20, 19, 20, 18, 20]",24,shiftedgaze_L_19.png,f,1,1,results2,001,2026-04-13_11h00.41.288,mogelijke versie adaptive staircase builder,,2026.1.3,60.04159681829083,2026-04-13 11h00.41.628183 +0200,
4.5,ecc10pos,left,42,0,42,j,0,3.107081300000573,None,0,0,0,0,42,0,42,0,419.37174579999964,,,,,,,,,,,,,,,419.3605689000001,419.37174579999964,419.37174579999964,419.37174579999964,420.2640798999996,422.4810983000002,j,0,3.107081300000573,None,right,18,"[19, 20, 18, 19, 18, 20, 19, 20, 19, 20, 19, 20, 18, 20, 19, 20, 18, 20, 19, 20, 19, 20, 18, 20, 18]",25,shiftedgaze_R_18.png,j,0,1,results2,001,2026-04-13_11h00.41.288,mogelijke versie adaptive staircase builder,,2026.1.3,60.04159681829083,2026-04-13 11h00.41.628183 +0200,
4.5,ecc10pos,left,43,0,43,j,0,1.649771999999757,None,0,0,0,0,43,0,43,0,422.5975708000001,,,,,,,,,,,,,,,422.5859158999997,422.5975708000001,422.5975708000001,422.5975708000001,423.48153820000016,424.2476491000002,j,0,1.649771999999757,None,left,19,"[19, 20, 18, 19, 18, 20, 19, 20, 19, 20, 19, 20, 18, 20, 19, 20, 18, 20, 19, 20, 19, 20, 18, 20, 18]",25,shiftedgaze_L_19.png,j,0,1,results2,001,2026-04-13_11h00.41.288,mogelijke versie adaptive staircase builder,,2026.1.3,60.04159681829083,2026-04-13 11h00.41.628183 +0200,
4.5,ecc10pos,left,44,0,44,j,0,1.8870544999999765,None,0,0,0,0,44,0,44,0,424.3601655999996,,,,,,,,,,,,,,,424.3485975999997,424.3601655999996,424.3601655999996,424.3601655999996,425.2471780999999,426.2486342999996,j,0,1.8870544999999765,None,right,20,"[19, 20, 18, 19, 18, 20, 19, 20, 19, 20, 19, 20, 18, 20, 19, 20, 18, 20, 19, 20, 19, 20, 18, 20, 18]",25,shiftedgaze_R_20.png,j,0,1,results2,001,2026-04-13_11h00.41.288,mogelijke versie adaptive staircase builder,,2026.1.3,60.04159681829083,2026-04-13 11h00.41.628183 +0200,
4.5,ecc10pos,left,45,0,45,f,0,1.9005764000003182,None,0,0,0,0,45,0,45,0,426.3382265999994,,,,,,,,,,,,,,,426.32736840000007,426.3382265999994,426.3382265999994,426.3382265999994,427.26390390000006,428.2477882999997,f,0,1.9005764000003182,None,direct,20,"[19, 20, 18, 19, 18, 20, 19, 20, 19, 20, 19, 20, 18, 20, 19, 20, 18, 20, 19, 20, 19, 20, 18, 20, 18]",25,shifteddirectgaze.png,f,0,1,results2,001,2026-04-13_11h00.41.288,mogelijke versie adaptive staircase builder,,2026.1.3,60.04159681829083,2026-04-13 11h00.41.628183 +0200,
4.5,ecc10pos,left,46,0,46,j,0,1.563143399999717,None,0,0,0,0,46,0,46,0,428.36359570000013,,,,,,,,,,,,,,,428.35205110000015,428.36359570000013,428.36359570000013,428.36359570000013,429.26392499999974,429.9306955999996,j,0,1.563143399999717,None,left,20,"[19, 20, 18, 19, 18, 20, 19, 20, 19, 20, 19, 20, 18, 20, 19, 20, 18, 20, 19, 20, 19, 20, 18, 20, 18]",25,shiftedgaze_L_20.png,j,0,1,results2,001,2026-04-13_11h00.41.288,mogelijke versie adaptive staircase builder,,2026.1.3,60.04159681829083,2026-04-13 11h00.41.628183 +0200,
4.5,ecc10pos,left,47,0,47,j,0,1.6694680000000517,None,0,0,0,0,47,0,47,0,430.0412841000002,,,,,,,,,,,,,,,430.0299648999994,430.0412841000002,430.0412841000002,430.0412841000002,430.9303382000003,431.71462269999984,j,0,1.6694680000000517,None,right,20,"[19, 20, 18, 19, 18, 20, 19, 20, 19, 20, 19, 20, 18, 20, 19, 20, 18, 20, 19, 20, 19, 20, 18, 20, 18]",25,shiftedgaze_R_20.png,j,0,1,results2,001,2026-04-13_11h00.41.288,mogelijke versie adaptive staircase builder,,2026.1.3,60.04159681829083,2026-04-13 11h00.41.628183 +0200,
4.5,ecc10pos,left,48,0,48,f,1,1.9985563000000184,None,0,0,0,0,48,0,48,0,431.80827780000027,,,,,,,,,,,,,,,431.79739519999976,431.80827780000027,431.80827780000027,431.80827780000027,432.7139739999998,433.8144163000002,f,1,1.9985563000000184,None,right,20,"[19, 20, 18, 19, 18, 20, 19, 20, 19, 20, 19, 20, 18, 20, 19, 20, 18, 20, 19, 20, 19, 20, 18, 20, 18, 20]",26,shiftedgaze_R_20.png,f,1,1,results2,001,2026-04-13_11h00.41.288,mogelijke versie adaptive staircase builder,,2026.1.3,60.04159681829083,2026-04-13 11h00.41.628183 +0200,
4.5,ecc10pos,left,49,0,49,j,0,1.6904060999995636,None,0,0,0,0,49,0,49,0,433.9164268999998,,,,,,,,,,,,,,,433.9062385000002,433.9164268999998,433.9164268999998,433.9164268999998,434.8139335000001,435.61434899999995,j,0,1.6904060999995636,None,right,19,"[19, 20, 18, 19, 18, 20, 19, 20, 19, 20, 19, 20, 18, 20, 19, 20, 18, 20, 19, 20, 19, 20, 18, 20, 18, 20, 19]",27,shiftedgaze_R_19.png,j,0,1,results2,001,2026-04-13_11h00.41.288,mogelijke versie adaptive staircase builder,,2026.1.3,60.04159681829083,2026-04-13 11h00.41.628183 +0200,
4.5,ecc10pos,left,50,0,50,j,0,1.7263843999999153,None,0,0,0,0,50,0,50,0,435.7283924999997,,,,,,,,,,,,,,,435.7171132999997,435.7283924999997,435.7283924999997,435.7283924999997,436.61385139999993,437.4643203999999,j,0,1.7263843999999153,None,left,20,"[19, 20, 18, 19, 18, 20, 19, 20, 19, 20, 19, 20, 18, 20, 19, 20, 18, 20, 19, 20, 19, 20, 18, 20, 18, 20, 19]",27,shiftedgaze_L_20.png,j,0,1,results2,001,2026-04-13_11h00.41.288,mogelijke versie adaptive staircase builder,,2026.1.3,60.04159681829083,2026-04-13 11h00.41.628183 +0200,
4.5,ecc10pos,left,51,0,51,f,1,1.326217199999519,None,0,0,0,0,51,0,51,0,437.5766669999998,,,,,,,,,,,,,,,437.5649392,437.5766669999998,437.5766669999998,437.5766669999998,438.4639413,438.9140818000001,f,1,1.326217199999519,None,right,20,"[19, 20, 18, 19, 18, 20, 19, 20, 19, 20, 19, 20, 18, 20, 19, 20, 18, 20, 19, 20, 19, 20, 18, 20, 18, 20, 19, 20]",28,shiftedgaze_R_20.png,f,1,1,results2,001,2026-04-13_11h00.41.288,mogelijke versie adaptive staircase builder,,2026.1.3,60.04159681829083,2026-04-13 11h00.41.628183 +0200,
4.5,ecc10pos,left,52,0,52,j,0,1.6878608000006352,None,0,0,0,0,52,0,52,0,439.03086310000026,,,,,,,,,,,,,,,439.01935959999946,439.03086310000026,439.03086310000026,439.03086310000026,439.9139676,440.73081049999973,j,0,1.6878608000006352,None,left,19,"[19, 20, 18, 19, 18, 20, 19, 20, 19, 20, 19, 20, 18, 20, 19, 20, 18, 20, 19, 20, 19, 20, 18, 20, 18, 20, 19, 20, 19]",29,shiftedgaze_L_19.png,j,0,1,results2,001,2026-04-13_11h00.41.288,mogelijke versie adaptive staircase builder,,2026.1.3,60.04159681829083,2026-04-13 11h00.41.628183 +0200,
4.5,ecc10pos,left,53,0,53,f,0,1.3003715000004377,None,0,0,0,0,53,0,53,0,440.8424689999997,,,,,,,,,,,,,,,440.83077000000003,440.8424689999997,440.8424689999997,440.8424689999997,441.7305225999994,442.14752569999973,f,0,1.3003715000004377,None,direct,20,"[19, 20, 18, 19, 18, 20, 19, 20, 19, 20, 19, 20, 18, 20, 19, 20, 18, 20, 19, 20, 19, 20, 18, 20, 18, 20, 19, 20, 19]",29,shifteddirectgaze.png,f,0,1,results2,001,2026-04-13_11h00.41.288,mogelijke versie adaptive staircase builder,,2026.1.3,60.04159681829083,2026-04-13 11h00.41.628183 +0200,
4.5,ecc10pos,left,54,0,54,f,1,2.056493899999623,None,0,0,0,0,54,0,54,0,442.23836280000023,,,,,,,,,,,,,,,442.2274195999994,442.23836280000023,442.23836280000023,442.23836280000023,443.14709879999964,444.2975057999997,f,1,2.056493899999623,None,right,20,"[19, 20, 18, 19, 18, 20, 19, 20, 19, 20, 19, 20, 18, 20, 19, 20, 18, 20, 19, 20, 19, 20, 18, 20, 18, 20, 19, 20, 19, 20]",30,shiftedgaze_R_20.png,f,1,1,results2,001,2026-04-13_11h00.41.288,mogelijke versie adaptive staircase builder,,2026.1.3,60.04159681829083,2026-04-13 11h00.41.628183 +0200,
4.5,ecc10pos,left,55,0,55,j,0,2.101171400000567,None,0,0,0,0,55,0,55,0,444.4015844999999,,,,,,,,,,,,,,,444.3911127999995,444.4015844999999,444.4015844999999,444.4015844999999,445.2971275999994,446.51413139999977,j,0,2.101171400000567,None,right,19,"[19, 20, 18, 19, 18, 20, 19, 20, 19, 20, 19, 20, 18, 20, 19, 20, 18, 20, 19, 20, 19, 20, 18, 20, 18, 20, 19, 20, 19, 20, 19]",31,shiftedgaze_R_19.png,j,0,1,results2,001,2026-04-13_11h00.41.288,mogelijke versie adaptive staircase builder,,2026.1.3,60.04159681829083,2026-04-13 11h00.41.628183 +0200,
4.5,ecc10pos,left,56,0,56,j,0,2.3478742000006605,None,0,0,0,0,56,0,56,0,446.61889500000007,,,,,,,,,,,,,,,446.6083346999999,446.61889500000007,446.61889500000007,446.61889500000007,447.51352180000004,448.98089370000025,j,0,2.3478742000006605,None,right,20,"[19, 20, 18, 19, 18, 20, 19, 20, 19, 20, 19, 20, 18, 20, 19, 20, 18, 20, 19, 20, 19, 20, 18, 20, 18, 20, 19, 20, 19, 20, 19]",31,shiftedgaze_R_20.png,j,0,1,results2,001,2026-04-13_11h00.41.288,mogelijke versie adaptive staircase builder,,2026.1.3,60.04159681829083,2026-04-13 11h00.41.628183 +0200,
4.5,ecc10pos,left,57,0,57,j,0,1.9899350000005143,None,0,0,0,0,57,0,57,0,449.0973804999999,,,,,,,,,,,,,,,449.0858483999996,449.0973804999999,449.0973804999999,449.0973804999999,449.9803068999995,451.0973914000001,j,0,1.9899350000005143,None,left,20,"[19, 20, 18, 19, 18, 20, 19, 20, 19, 20, 19, 20, 18, 20, 19, 20, 18, 20, 19, 20, 19, 20, 18, 20, 18, 20, 19, 20, 19, 20, 19]",31,shiftedgaze_L_20.png,j,0,1,results2,001,2026-04-13_11h00.41.288,mogelijke versie adaptive staircase builder,,2026.1.3,60.04159681829083,2026-04-13 11h00.41.628183 +0200,
4.5,ecc10pos,left,58,0,58,f,1,1.934305800000402,None,0,0,0,0,58,0,58,0,451.2085383999997,,,,,,,,,,,,,,,451.19714239999985,451.2085383999997,451.2085383999997,451.2085383999997,452.09709129999965,453.1472404000001,f,1,1.934305800000402,None,right,20,"[19, 20, 18, 19, 18, 20, 19, 20, 19, 20, 19, 20, 18, 20, 19, 20, 18, 20, 19, 20, 19, 20, 18, 20, 18, 20, 19, 20, 19, 20, 19, 20]",32,shiftedgaze_R_20.png,f,1,1,results2,001,2026-04-13_11h00.41.288,mogelijke versie adaptive staircase builder,,2026.1.3,60.04159681829083,2026-04-13 11h00.41.628183 +0200,
4.5,ecc10pos,left,59,0,59,f,0,2.1018177999994805,None,0,0,0,0,59,0,59,0,453.2410189999996,,,,,,,,,,,,,,,453.2302665000002,453.2410189999996,453.2410189999996,453.2410189999996,454.1468897999998,455.3471743999994,f,0,2.1018177999994805,None,direct,19,"[19, 20, 18, 19, 18, 20, 19, 20, 19, 20, 19, 20, 18, 20, 19, 20, 18, 20, 19, 20, 19, 20, 18, 20, 18, 20, 19, 20, 19, 20, 19, 20, 19]",33,shifteddirectgaze.png,f,0,1,results2,001,2026-04-13_11h00.41.288,mogelijke versie adaptive staircase builder,,2026.1.3,60.04159681829083,2026-04-13 11h00.41.628183 +0200,
4.5,ecc10pos,left,0,0,0,,,,,0,0,0,0,,,,,,,,,,,,,,,,,,,,,,,,,,,,,,,,,,,,,,results2,001,2026-04-13_11h00.41.288,mogelijke versie adaptive staircase builder,,2026.1.3,60.04159681829083,2026-04-13 11h00.41.628183 +0200,
12.5,ecc0,mid,0,0,0,j,0,2.021845499999472,None,0,1,1,1,0,0,0,0,455.4489047000002,,,,,,,,,,,,,455.3498346000001,455.3498700999994,455.4376692999999,455.4489047000002,456.3634339999994,455.4489047000002,455.4489047000002,457.48056529999985,j,0,2.021845499999472,None,right,20,[],0,gaze_R_20.png,j,0,2,results2,001,2026-04-13_11h00.41.288,mogelijke versie adaptive staircase builder,,2026.1.3,60.04159681829083,2026-04-13 11h00.41.628183 +0200,
12.5,ecc0,mid,1,0,1,f,1,3.0684935999997833,None,0,1,1,1,1,0,1,0,457.5786788999999,,,,,,,,,,,,,,,457.5682895999994,457.5786788999999,458.48020210000004,457.5786788999999,457.5786788999999,460.6638191999996,f,1,3.0684935999997833,None,left,20,[20],1,gaze_L_20.png,f,1,2,results2,001,2026-04-13_11h00.41.288,mogelijke versie adaptive staircase builder,,2026.1.3,60.04159681829083,2026-04-13 11h00.41.628183 +0200,
12.5,ecc0,mid,2,0,2,j,0,2.1878804999996646,None,0,1,1,1,2,0,2,0,460.76281919999974,,,,,,,,,,,,,,,460.7513116999994,460.76281919999974,461.6633214999997,460.76281919999974,460.76281919999974,462.96391749999975,j,0,2.1878804999996646,None,left,19,"[20, 19]",2,gaze_L_19.png,j,0,2,results2,001,2026-04-13_11h00.41.288,mogelijke versie adaptive staircase builder,,2026.1.3,60.04159681829083,2026-04-13 11h00.41.628183 +0200,
12.5,ecc0,mid,3,0,3,j,1,2.534990199999811,None,0,1,1,1,3,0,3,0,463.06383229999983,,,,,,,,,,,,,,,463.0537008999995,463.06383229999983,463.9635887999998,463.06383229999983,463.06383229999983,465.6137064999998,j,1,2.534990199999811,None,direct,20,"[20, 19, 20]",3,direct_gaze.png,j,1,2,results2,001,2026-04-13_11h00.41.288,mogelijke versie adaptive staircase builder,,2026.1.3,60.04159681829083,2026-04-13 11h00.41.628183 +0200,
12.5,ecc0,mid,4,0,4,f,0,2.031096799999432,None,0,1,1,1,4,0,4,0,465.7037685,,,,,,,,,,,,,,,465.69317529999944,465.7037685,466.6133622000002,465.7037685,465.7037685,467.7471736000002,f,0,2.031096799999432,None,direct,19,"[20, 19, 20, 19]",4,direct_gaze.png,f,0,2,results2,001,2026-04-13_11h00.41.288,mogelijke versie adaptive staircase builder,,2026.1.3,60.04159681829083,2026-04-13 11h00.41.628183 +0200,
12.5,ecc0,mid,5,0,5,f,0,2.313395999999557,None,0,1,1,1,5,0,5,0,467.83744830000023,,,,,,,,,,,,,,,467.8267044999998,467.83744830000023,468.74674490000007,467.83744830000023,467.83744830000023,470.16374640000004,f,0,2.313395999999557,None,direct,20,"[20, 19, 20, 19]",4,direct_gaze.png,f,0,2,results2,001,2026-04-13_11h00.41.288,mogelijke versie adaptive staircase builder,,2026.1.3,60.04159681829083,2026-04-13 11h00.41.628183 +0200,
12.5,ecc0,mid,6,0,6,j,0,1.648341199999777,None,0,1,1,1,6,0,6,0,470.25560649999943,,,,,,,,,,,,,,,470.24537050000026,470.25560649999943,471.1632644999995,470.25560649999943,470.25560649999943,471.91359859999966,j,0,1.648341199999777,None,right,20,"[20, 19, 20, 19]",4,gaze_R_20.png,j,0,2,results2,001,2026-04-13_11h00.41.288,mogelijke versie adaptive staircase builder,,2026.1.3,60.04159681829083,2026-04-13 11h00.41.628183 +0200,
12.5,ecc0,mid,7,0,7,f,1,2.099239999999554,None,0,1,1,1,7,0,7,0,472.0048307000002,,,,,,,,,,,,,,,471.9940623999996,472.0048307000002,472.9133141999996,472.0048307000002,472.0048307000002,474.1134820000002,f,1,2.099239999999554,None,right,20,"[20, 19, 20, 19, 20]",5,gaze_R_20.png,f,1,2,results2,001,2026-04-13_11h00.41.288,mogelijke versie adaptive staircase builder,,2026.1.3,60.04159681829083,2026-04-13 11h00.41.628183 +0200,
12.5,ecc0,mid,8,0,8,f,0,2.071226000000024,None,0,1,1,1,8,0,8,0,474.20772329999954,,,,,,,,,,,,,,,474.1964293999995,474.20772329999954,475.1132702,474.20772329999954,474.20772329999954,476.2804332999999,f,0,2.071226000000024,None,direct,19,"[20, 19, 20, 19, 20, 19]",6,direct_gaze.png,f,0,2,results2,001,2026-04-13_11h00.41.288,mogelijke versie adaptive staircase builder,,2026.1.3,60.04159681829083,2026-04-13 11h00.41.628183 +0200,
12.5,ecc0,mid,9,0,9,j,0,1.7865239000002475,None,0,1,1,1,9,0,9,0,476.37229249999973,,,,,,,,,,,,,,,476.3617342000002,476.37229249999973,477.27988609999966,476.37229249999973,476.37229249999973,478.1636100999999,j,0,1.7865239000002475,None,left,20,"[20, 19, 20, 19, 20, 19]",6,gaze_L_20.png,j,0,2,results2,001,2026-04-13_11h00.41.288,mogelijke versie adaptive staircase builder,,2026.1.3,60.04159681829083,2026-04-13 11h00.41.628183 +0200,
12.5,ecc0,mid,10,0,10,j,0,1.7261891999996806,None,0,1,1,1,10,0,10,0,478.2567833999997,,,,,,,,,,,,,,,478.24352260000023,478.2567833999997,479.16428919999953,478.2567833999997,478.2567833999997,479.9970030999998,j,0,1.7261891999996806,None,left,20,"[20, 19, 20, 19, 20, 19]",6,gaze_L_20.png,j,0,2,results2,001,2026-04-13_11h00.41.288,mogelijke versie adaptive staircase builder,,2026.1.3,60.04159681829083,2026-04-13 11h00.41.628183 +0200,
12.5,ecc0,mid,11,0,11,f,0,1.525320699999611,None,0,1,1,1,11,0,11,0,480.08948139999984,,,,,,,,,,,,,,,480.0788921999997,480.08948139999984,480.9965244,480.08948139999984,480.08948139999984,481.6302589000002,f,0,1.525320699999611,None,direct,20,"[20, 19, 20, 19, 20, 19]",6,direct_gaze.png,f,0,2,results2,001,2026-04-13_11h00.41.288,mogelijke versie adaptive staircase builder,,2026.1.3,60.04159681829083,2026-04-13 11h00.41.628183 +0200,
12.5,ecc0,mid,12,0,12,j,0,2.450478700000531,None,0,1,1,1,12,0,12,0,481.72445130000006,,,,,,,,,,,,,,,481.71336870000005,481.72445130000006,482.6298088999997,481.72445130000006,481.72445130000006,484.1803595999995,j,0,2.450478700000531,None,left,20,"[20, 19, 20, 19, 20, 19]",6,gaze_L_20.png,j,0,2,results2,001,2026-04-13_11h00.41.288,mogelijke versie adaptive staircase builder,,2026.1.3,60.04159681829083,2026-04-13 11h00.41.628183 +0200,
12.5,ecc0,mid,13,0,13,j,0,2.216207499999655,None,0,1,1,1,13,0,13,0,484.2713692000002,,,,,,,,,,,,,,,484.26052200000004,484.2713692000002,485.1797698999994,484.2713692000002,484.2713692000002,486.4967136,j,0,2.216207499999655,None,left,20,"[20, 19, 20, 19, 20, 19]",6,gaze_L_20.png,j,0,2,results2,001,2026-04-13_11h00.41.288,mogelijke versie adaptive staircase builder,,2026.1.3,60.04159681829083,2026-04-13 11h00.41.628183 +0200,
12.5,ecc0,mid,14,0,14,f,1,1.8368016999993415,None,0,1,1,1,14,0,14,0,486.5860797999999,,,,,,,,,,,,,,,486.57499340000004,486.5860797999999,487.49643590000005,486.5860797999999,486.5860797999999,488.43017180000015,f,1,1.8368016999993415,None,left,20,"[20, 19, 20, 19, 20, 19, 20]",7,gaze_L_20.png,f,1,2,results2,001,2026-04-13_11h00.41.288,mogelijke versie adaptive staircase builder,,2026.1.3,60.04159681829083,2026-04-13 11h00.41.628183 +0200,
12.5,ecc0,mid,15,0,15,j,0,2.0615703000003123,None,0,1,1,1,15,0,15,0,488.5212388999994,,,,,,,,,,,,,,,488.51057399999945,488.5212388999994,489.4296970999999,488.5212388999994,488.5212388999994,490.5967440999998,j,0,2.0615703000003123,None,left,19,"[20, 19, 20, 19, 20, 19, 20, 19]",8,gaze_L_19.png,j,0,2,results2,001,2026-04-13_11h00.41.288,mogelijke versie adaptive staircase builder,,2026.1.3,60.04159681829083,2026-04-13 11h00.41.628183 +0200,
12.5,ecc0,mid,16,0,16,j,0,1.7622062999998889,None,0,1,1,1,16,0,16,0,490.6925987999998,,,,,,,,,,,,,,,490.67838660000007,490.6925987999998,491.5962906,490.6925987999998,490.6925987999998,492.4633927,j,0,1.7622062999998889,None,right,20,"[20, 19, 20, 19, 20, 19, 20, 19]",8,gaze_R_20.png,j,0,2,results2,001,2026-04-13_11h00.41.288,mogelijke versie adaptive staircase builder,,2026.1.3,60.04159681829083,2026-04-13 11h00.41.628183 +0200,
12.5,ecc0,mid,17,0,17,f,0,1.9149240999995527,None,0,1,1,1,17,0,17,0,492.5558722999999,,,,,,,,,,,,,,,492.5451116999998,492.5558722999999,493.46289939999997,492.5558722999999,492.5558722999999,494.4800454000001,f,0,1.9149240999995527,None,direct,20,"[20, 19, 20, 19, 20, 19, 20, 19]",8,direct_gaze.png,f,0,2,results2,001,2026-04-13_11h00.41.288,mogelijke versie adaptive staircase builder,,2026.1.3,60.04159681829083,2026-04-13 11h00.41.628183 +0200,
12.5,ecc0,mid,18,0,18,j,1,1.6759768000001714,None,0,1,1,1,18,0,18,0,494.57091059999993,,,,,,,,,,,,,,,494.5600542999996,494.57091059999993,495.4797122999994,494.57091059999993,494.57091059999993,496.2633043000001,j,1,1.6759768000001714,None,direct,20,"[20, 19, 20, 19, 20, 19, 20, 19, 20]",9,direct_gaze.png,j,1,2,results2,001,2026-04-13_11h00.41.288,mogelijke versie adaptive staircase builder,,2026.1.3,60.04159681829083,2026-04-13 11h00.41.628183 +0200,
12.5,ecc0,mid,19,0,19,f,0,2.18274990000009,None,0,1,1,1,19,0,19,0,496.36002099999996,,,,,,,,,,,,,,,496.34910100000025,496.36002099999996,497.26298069999984,496.36002099999996,496.36002099999996,498.54628300000013,f,0,2.18274990000009,None,direct,19,"[20, 19, 20, 19, 20, 19, 20, 19, 20, 19]",10,direct_gaze.png,f,0,2,results2,001,2026-04-13_11h00.41.288,mogelijke versie adaptive staircase builder,,2026.1.3,60.04159681829083,2026-04-13 11h00.41.628183 +0200,
12.5,ecc0,mid,20,0,20,j,0,1.3617857999997796,None,0,1,1,1,20,0,20,0,498.63697099999945,,,,,,,,,,,,,,,498.6263420999999,498.63697099999945,499.5461613000002,498.63697099999945,498.63697099999945,500.0132349999999,j,0,1.3617857999997796,None,left,20,"[20, 19, 20, 19, 20, 19, 20, 19, 20, 19]",10,gaze_L_20.png,j,0,2,results2,001,2026-04-13_11h00.41.288,mogelijke versie adaptive staircase builder,,2026.1.3,60.04159681829083,2026-04-13 11h00.41.628183 +0200,
12.5,ecc0,mid,21,0,21,j,0,2.191356199999973,None,0,1,1,1,21,0,21,0,500.1035501000001,,,,,,,,,,,,,,,500.0923345999995,500.1035501000001,501.01295189999973,500.1035501000001,500.1035501000001,502.2966586999996,j,0,2.191356199999973,None,right,20,"[20, 19, 20, 19, 20, 19, 20, 19, 20, 19]",10,gaze_R_20.png,j,0,2,results2,001,2026-04-13_11h00.41.288,mogelijke versie adaptive staircase builder,,2026.1.3,60.04159681829083,2026-04-13 11h00.41.628183 +0200,
12.5,ecc0,mid,22,0,22,f,0,2.2259210000001985,None,0,1,1,1,22,0,22,0,502.38878329999943,,,,,,,,,,,,,,,502.3785163999996,502.38878329999943,503.29620320000004,502.38878329999943,502.38878329999943,504.6297920000002,f,0,2.2259210000001985,None,direct,20,"[20, 19, 20, 19, 20, 19, 20, 19, 20, 19]",10,direct_gaze.png,f,0,2,results2,001,2026-04-13_11h00.41.288,mogelijke versie adaptive staircase builder,,2026.1.3,60.04159681829083,2026-04-13 11h00.41.628183 +0200,
12.5,ecc0,mid,23,0,23,j,1,1.7970796999998129,None,0,1,1,1,23,0,23,0,504.72159899999997,,,,,,,,,,,,,,,504.7108863999997,504.72159899999997,505.62930259999985,504.72159899999997,504.72159899999997,506.52982159999965,j,1,1.7970796999998129,None,direct,20,"[20, 19, 20, 19, 20, 19, 20, 19, 20, 19, 20]",11,direct_gaze.png,j,1,2,results2,001,2026-04-13_11h00.41.288,mogelijke versie adaptive staircase builder,,2026.1.3,60.04159681829083,2026-04-13 11h00.41.628183 +0200,
12.5,ecc0,mid,24,0,24,j,0,2.000162000000273,None,0,1,1,1,24,0,24,0,506.63046339999937,,,,,,,,,,,,,,,506.6196052,506.63046339999937,507.5291266999998,506.63046339999937,506.63046339999937,508.64649359999976,j,0,2.000162000000273,None,right,19,"[20, 19, 20, 19, 20, 19, 20, 19, 20, 19, 20, 19]",12,gaze_R_19.png,j,0,2,results2,001,2026-04-13_11h00.41.288,mogelijke versie adaptive staircase builder,,2026.1.3,60.04159681829083,2026-04-13 11h00.41.628183 +0200,
12.5,ecc0,mid,25,0,25,f,1,1.9339399000000412,None,0,1,1,1,25,0,25,0,508.7370025999994,,,,,,,,,,,,,,,508.72681349999993,508.7370025999994,509.64600719999953,508.7370025999994,508.7370025999994,510.67982079999956,f,1,1.9339399000000412,None,left,20,"[20, 19, 20, 19, 20, 19, 20, 19, 20, 19, 20, 19, 20]",13,gaze_L_20.png,f,1,2,results2,001,2026-04-13_11h00.41.288,mogelijke versie adaptive staircase builder,,2026.1.3,60.04159681829083,2026-04-13 11h00.41.628183 +0200,
12.5,ecc0,mid,26,0,26,j,0,1.7458354999998846,None,0,1,1,1,26,0,26,0,510.7748078999998,,,,,,,,,,,,,,,510.7638801999997,510.7748078999998,511.67919759999995,510.7748078999998,510.7748078999998,512.5297037999994,j,0,1.7458354999998846,None,left,19,"[20, 19, 20, 19, 20, 19, 20, 19, 20, 19, 20, 19, 20, 19]",14,gaze_L_19.png,j,0,2,results2,001,2026-04-13_11h00.41.288,mogelijke versie adaptive staircase builder,,2026.1.3,60.04159681829083,2026-04-13 11h00.41.628183 +0200,
12.5,ecc0,mid,27,0,27,f,0,1.826586999999563,None,0,1,1,1,27,0,27,0,512.6202032999995,,,,,,,,,,,,,,,512.6097992999998,512.6202032999995,513.5293203999995,512.6202032999995,512.6202032999995,514.4631058999998,f,0,1.826586999999563,None,direct,20,"[20, 19, 20, 19, 20, 19, 20, 19, 20, 19, 20, 19, 20, 19]",14,direct_gaze.png,f,0,2,results2,001,2026-04-13_11h00.41.288,mogelijke versie adaptive staircase builder,,2026.1.3,60.04159681829083,2026-04-13 11h00.41.628183 +0200,
12.5,ecc0,mid,28,0,28,j,0,2.2392632999999478,None,0,1,1,1,28,0,28,0,514.5594361999997,,,,,,,,,,,,,,,514.5485315000001,514.5594361999997,515.4627645999994,514.5594361999997,514.5594361999997,516.8131289999997,j,0,2.2392632999999478,None,left,20,"[20, 19, 20, 19, 20, 19, 20, 19, 20, 19, 20, 19, 20, 19]",14,gaze_L_20.png,j,0,2,results2,001,2026-04-13_11h00.41.288,mogelijke versie adaptive staircase builder,,2026.1.3,60.04159681829083,2026-04-13 11h00.41.628183 +0200,
12.5,ecc0,mid,29,0,29,j,0,1.971525300000394,None,0,1,1,1,29,0,29,0,516.9071941999996,,,,,,,,,,,,,,,516.8963100999995,516.9071941999996,517.8126053000001,516.9071941999996,516.9071941999996,518.8798614000002,j,0,1.971525300000394,None,left,20,"[20, 19, 20, 19, 20, 19, 20, 19, 20, 19, 20, 19, 20, 19]",14,gaze_L_20.png,j,0,2,results2,001,2026-04-13_11h00.41.288,mogelijke versie adaptive staircase builder,,2026.1.3,60.04159681829083,2026-04-13 11h00.41.628183 +0200,
12.5,ecc0,mid,30,0,30,j,1,1.9336056000001918,None,0,1,1,1,30,0,30,0,518.9704582999998,,,,,,,,,,,,,,,518.9601059000001,518.9704582999998,519.8789796999995,518.9704582999998,518.9704582999998,520.9130158000003,j,1,1.9336056000001918,None,direct,20,"[20, 19, 20, 19, 20, 19, 20, 19, 20, 19, 20, 19, 20, 19, 20]",15,direct_gaze.png,j,1,2,results2,001,2026-04-13_11h00.41.288,mogelijke versie adaptive staircase builder,,2026.1.3,60.04159681829083,2026-04-13 11h00.41.628183 +0200,
12.5,ecc0,mid,31,0,31,j,0,1.8587877999998454,None,0,1,1,1,31,0,31,0,521.0043039999996,,,,,,,,,,,,,,,520.9934938000001,521.0043039999996,521.9125171000001,521.0043039999996,521.0043039999996,522.8795654999999,j,0,1.8587877999998454,None,right,19,"[20, 19, 20, 19, 20, 19, 20, 19, 20, 19, 20, 19, 20, 19, 20, 19]",16,gaze_R_19.png,j,0,2,results2,001,2026-04-13_11h00.41.288,mogelijke versie adaptive staircase builder,,2026.1.3,60.04159681829083,2026-04-13 11h00.41.628183 +0200,
12.5,ecc0,mid,32,0,32,j,1,1.8018985999997312,None,0,1,1,1,32,0,32,0,522.9729255999996,,,,,,,,,,,,,,,522.9614709000002,522.9729255999996,523.8790365,522.9729255999996,522.9729255999996,524.7796032000001,j,1,1.8018985999997312,None,direct,20,"[20, 19, 20, 19, 20, 19, 20, 19, 20, 19, 20, 19, 20, 19, 20, 19, 20]",17,direct_gaze.png,j,1,2,results2,001,2026-04-13_11h00.41.288,mogelijke versie adaptive staircase builder,,2026.1.3,60.04159681829083,2026-04-13 11h00.41.628183 +0200,
12.5,ecc0,mid,33,0,33,f,1,2.1039750000009008,None,0,1,1,1,33,0,33,0,524.8709088999999,,,,,,,,,,,,,,,524.8605807999998,524.8709088999999,525.7789980000002,524.8709088999999,524.8709088999999,526.9794539,f,1,2.1039750000009008,None,right,19,"[20, 19, 20, 19, 20, 19, 20, 19, 20, 19, 20, 19, 20, 19, 20, 19, 20]",17,gaze_R_19.png,f,1,2,results2,001,2026-04-13_11h00.41.288,mogelijke versie adaptive staircase builder,,2026.1.3,60.04159681829083,2026-04-13 11h00.41.628183 +0200,
12.5,ecc0,mid,34,0,34,j,0,1.692832599999747,None,0,1,1,1,34,0,34,0,527.0818416999996,,,,,,,,,,,,,,,527.0709492999999,527.0818416999996,527.9790667000002,527.0818416999996,527.0818416999996,528.7793768999995,j,0,1.692832599999747,None,right,18,"[20, 19, 20, 19, 20, 19, 20, 19, 20, 19, 20, 19, 20, 19, 20, 19, 20, 18]",18,gaze_R_18.png,j,0,2,results2,001,2026-04-13_11h00.41.288,mogelijke versie adaptive staircase builder,,2026.1.3,60.04159681829083,2026-04-13 11h00.41.628183 +0200,
12.5,ecc0,mid,35,0,35,f,1,2.031913199999508,None,0,1,1,1,35,0,35,0,528.8723353,,,,,,,,,,,,,,,528.8618831999997,528.8723353,529.7789041000001,528.8723353,528.8723353,530.9126931999995,f,1,2.031913199999508,None,left,19,"[20, 19, 20, 19, 20, 19, 20, 19, 20, 19, 20, 19, 20, 19, 20, 19, 20, 18, 19]",19,gaze_L_19.png,f,1,2,results2,001,2026-04-13_11h00.41.288,mogelijke versie adaptive staircase builder,,2026.1.3,60.04159681829083,2026-04-13 11h00.41.628183 +0200,
12.5,ecc0,mid,36,0,36,j,0,1.8585731000002852,None,0,1,1,1,36,0,36,0,531.0042656999999,,,,,,,,,,,,,,,530.9938993999999,531.0042656999999,531.9120668,531.0042656999999,531.0042656999999,532.8793607000002,j,0,1.8585731000002852,None,right,18,"[20, 19, 20, 19, 20, 19, 20, 19, 20, 19, 20, 19, 20, 19, 20, 19, 20, 18, 19, 18]",20,gaze_R_18.png,j,0,2,results2,001,2026-04-13_11h00.41.288,mogelijke versie adaptive staircase builder,,2026.1.3,60.04159681829083,2026-04-13 11h00.41.628183 +0200,
12.5,ecc0,mid,37,0,37,j,1,1.9390286999996533,None,0,1,1,1,37,0,37,0,532.9717349999996,,,,,,,,,,,,,,,532.9607728999995,532.9717349999996,533.8788250000002,532.9717349999996,532.9717349999996,534.9127548000001,j,1,1.9390286999996533,None,direct,19,"[20, 19, 20, 19, 20, 19, 20, 19, 20, 19, 20, 19, 20, 19, 20, 19, 20, 18, 19, 18, 19]",21,direct_gaze.png,j,1,2,results2,001,2026-04-13_11h00.41.288,mogelijke versie adaptive staircase builder,,2026.1.3,60.04159681829083,2026-04-13 11h00.41.628183 +0200,
12.5,ecc0,mid,38,0,38,f,1,2.5683177000000796,None,0,1,1,1,38,0,38,0,535.0063654,,,,,,,,,,,,,,,534.9949498999999,535.0063654,535.9122354999995,535.0063654,535.0063654,537.5794044999998,f,1,2.5683177000000796,None,right,18,"[20, 19, 20, 19, 20, 19, 20, 19, 20, 19, 20, 19, 20, 19, 20, 19, 20, 18, 19, 18, 19]",21,gaze_R_18.png,f,1,2,results2,001,2026-04-13_11h00.41.288,mogelijke versie adaptive staircase builder,,2026.1.3,60.04159681829083,2026-04-13 11h00.41.628183 +0200,
12.5,ecc0,mid,39,0,39,j,0,2.391412599999967,None,0,1,1,1,39,0,39,0,537.6792960999996,,,,,,,,,,,,,,,537.6688491999998,537.6792960999996,538.5787667999998,537.6792960999996,537.6792960999996,540.0793798,j,0,2.391412599999967,None,right,17,"[20, 19, 20, 19, 20, 19, 20, 19, 20, 19, 20, 19, 20, 19, 20, 19, 20, 18, 19, 18, 19, 17]",22,gaze_R_17.png,j,0,2,results2,001,2026-04-13_11h00.41.288,mogelijke versie adaptive staircase builder,,2026.1.3,60.04159681829083,2026-04-13 11h00.41.628183 +0200,
12.5,ecc0,mid,40,0,40,j,1,2.1492354000001797,None,0,1,1,1,40,0,40,0,540.1702441000002,,,,,,,,,,,,,,,540.1586407999998,540.1702441000002,541.0789118999996,540.1702441000002,540.1702441000002,542.3293018999998,j,1,2.1492354000001797,None,direct,18,"[20, 19, 20, 19, 20, 19, 20, 19, 20, 19, 20, 19, 20, 19, 20, 19, 20, 18, 19, 18, 19, 17, 18]",23,direct_gaze.png,j,1,2,results2,001,2026-04-13_11h00.41.288,mogelijke versie adaptive staircase builder,,2026.1.3,60.04159681829083,2026-04-13 11h00.41.628183 +0200,
12.5,ecc0,mid,41,0,41,f,1,2.889689499999804,None,0,1,1,1,41,0,41,0,542.4210834999999,,,,,,,,,,,,,,,542.4108065999994,542.4210834999999,543.3288736,542.4210834999999,542.4210834999999,545.3123541999998,f,1,2.889689499999804,None,right,17,"[20, 19, 20, 19, 20, 19, 20, 19, 20, 19, 20, 19, 20, 19, 20, 19, 20, 18, 19, 18, 19, 17, 18]",23,gaze_R_17.png,f,1,2,results2,001,2026-04-13_11h00.41.288,mogelijke versie adaptive staircase builder,,2026.1.3,60.04159681829083,2026-04-13 11h00.41.628183 +0200,
12.5,ecc0,mid,42,0,42,j,1,1.8487442000005103,None,0,1,1,1,42,0,42,0,545.4059455000001,,,,,,,,,,,,,,,545.3946872000001,545.4059455000001,546.3121684000002,545.4059455000001,545.4059455000001,547.2625644999994,j,1,1.8487442000005103,None,direct,16,"[20, 19, 20, 19, 20, 19, 20, 19, 20, 19, 20, 19, 20, 19, 20, 19, 20, 18, 19, 18, 19, 17, 18]",23,direct_gaze.png,j,1,2,results2,001,2026-04-13_11h00.41.288,mogelijke versie adaptive staircase builder,,2026.1.3,60.04159681829083,2026-04-13 11h00.41.628183 +0200,
12.5,ecc0,mid,43,0,43,j,0,1.7434524999998757,None,0,1,1,1,43,0,43,0,547.4473118000001,,,,,,,,,,,,,,,547.4371488000002,547.4473118000001,548.2620424000002,547.4473118000001,547.4473118000001,549.1956576999996,j,0,1.7434524999998757,None,right,15,"[20, 19, 20, 19, 20, 19, 20, 19, 20, 19, 20, 19, 20, 19, 20, 19, 20, 18, 19, 18, 19, 17, 18, 15]",24,gaze_R_15.png,j,0,2,results2,001,2026-04-13_11h00.41.288,mogelijke versie adaptive staircase builder,,2026.1.3,60.04159681829083,2026-04-13 11h00.41.628183 +0200,
12.5,ecc0,mid,44,0,44,j,1,2.9371038999997836,None,0,1,1,1,44,0,44,0,549.2855970999994,,,,,,,,,,,,,,,549.2752416999997,549.2855970999994,550.1954088999996,549.2855970999994,549.2855970999994,552.2291309999996,j,1,2.9371038999997836,None,direct,16,"[20, 19, 20, 19, 20, 19, 20, 19, 20, 19, 20, 19, 20, 19, 20, 19, 20, 18, 19, 18, 19, 17, 18, 15, 16]",25,direct_gaze.png,j,1,2,results2,001,2026-04-13_11h00.41.288,mogelijke versie adaptive staircase builder,,2026.1.3,60.04159681829083,2026-04-13 11h00.41.628183 +0200,
12.5,ecc0,mid,45,0,45,j,1,1.9159771000004184,None,0,1,1,1,45,0,45,0,552.3227909000002,,,,,,,,,,,,,,,552.3117448999997,552.3227909000002,553.2285347000002,552.3227909000002,552.3227909000002,554.2464802,j,1,1.9159771000004184,None,direct,15,"[20, 19, 20, 19, 20, 19, 20, 19, 20, 19, 20, 19, 20, 19, 20, 19, 20, 18, 19, 18, 19, 17, 18, 15, 16]",25,direct_gaze.png,j,1,2,results2,001,2026-04-13_11h00.41.288,mogelijke versie adaptive staircase builder,,2026.1.3,60.04159681829083,2026-04-13 11h00.41.628183 +0200,
12.5,ecc0,mid,46,0,46,f,1,1.5895013000008476,None,0,1,1,1,46,0,46,0,554.3452081999999,,,,,,,,,,,,,,,554.3347788999995,554.3452081999999,555.2620459999994,554.3452081999999,554.3452081999999,555.9457940999996,f,1,1.5895013000008476,None,right,14,"[20, 19, 20, 19, 20, 19, 20, 19, 20, 19, 20, 19, 20, 19, 20, 19, 20, 18, 19, 18, 19, 17, 18, 15, 16]",25,gaze_R_14.png,f,1,2,results2,001,2026-04-13_11h00.41.288,mogelijke versie adaptive staircase builder,,2026.1.3,60.04159681829083,2026-04-13 11h00.41.628183 +0200,
12.5,ecc0,mid,47,0,47,f,1,2.2676664999999048,None,0,1,1,1,47,0,47,0,556.0433264999997,,,,,,,,,,,,,,,556.0326769999997,556.0433264999997,556.9453171999999,556.0433264999997,556.0433264999997,558.3122908999999,f,1,2.2676664999999048,None,right,13,"[20, 19, 20, 19, 20, 19, 20, 19, 20, 19, 20, 19, 20, 19, 20, 19, 20, 18, 19, 18, 19, 17, 18, 15, 16]",25,gaze_R_13.png,f,1,2,results2,001,2026-04-13_11h00.41.288,mogelijke versie adaptive staircase builder,,2026.1.3,60.04159681829083,2026-04-13 11h00.41.628183 +0200,
12.5,ecc0,mid,48,0,48,j,0,1.6507174999997005,None,0,1,1,1,48,0,48,0,558.4999124999999,,,,,,,,,,,,,,,558.4884521999998,558.4999124999999,559.3119292999995,558.4999124999999,558.4999124999999,560.1623653000001,j,0,1.6507174999997005,None,right,12,"[20, 19, 20, 19, 20, 19, 20, 19, 20, 19, 20, 19, 20, 19, 20, 19, 20, 18, 19, 18, 19, 17, 18, 15, 16, 12]",26,gaze_R_12.png,j,0,2,results2,001,2026-04-13_11h00.41.288,mogelijke versie adaptive staircase builder,,2026.1.3,60.04159681829083,2026-04-13 11h00.41.628183 +0200,
12.5,ecc0,mid,49,0,49,f,1,1.9587729999993826,None,0,1,1,1,49,0,49,0,560.2559584999995,,,,,,,,,,,,,,,560.24512,560.2559584999995,561.1617868999997,560.2559584999995,560.2559584999995,562.2290969999999,f,1,1.9587729999993826,None,right,13,"[20, 19, 20, 19, 20, 19, 20, 19, 20, 19, 20, 19, 20, 19, 20, 19, 20, 18, 19, 18, 19, 17, 18, 15, 16, 12, 13]",27,gaze_R_13.png,f,1,2,results2,001,2026-04-13_11h00.41.288,mogelijke versie adaptive staircase builder,,2026.1.3,60.04159681829083,2026-04-13 11h00.41.628183 +0200,
12.5,ecc0,mid,50,0,50,j,0,1.5947276999995665,None,0,1,1,1,50,0,50,0,562.3559977,,,,,,,,,,,,,,,562.3453549999999,562.3559977,563.2284182999997,562.3559977,562.3559977,563.9622925999997,j,0,1.5947276999995665,None,left,12,"[20, 19, 20, 19, 20, 19, 20, 19, 20, 19, 20, 19, 20, 19, 20, 19, 20, 18, 19, 18, 19, 17, 18, 15, 16, 12, 13, 12]",28,gaze_L_12.png,j,0,2,results2,001,2026-04-13_11h00.41.288,mogelijke versie adaptive staircase builder,,2026.1.3,60.04159681829083,2026-04-13 11h00.41.628183 +0200,
12.5,ecc0,mid,51,0,51,j,0,1.8435926000001928,None,0,1,1,1,51,0,51,0,564.0606738000001,,,,,,,,,,,,,,,564.0502944999994,564.0606738000001,564.9618356999995,564.0606738000001,564.0606738000001,565.9123843000002,j,0,1.8435926000001928,None,left,13,"[20, 19, 20, 19, 20, 19, 20, 19, 20, 19, 20, 19, 20, 19, 20, 19, 20, 18, 19, 18, 19, 17, 18, 15, 16, 12, 13, 12]",28,gaze_L_13.png,j,0,2,results2,001,2026-04-13_11h00.41.288,mogelijke versie adaptive staircase builder,,2026.1.3,60.04159681829083,2026-04-13 11h00.41.628183 +0200,
12.5,ecc0,mid,52,0,52,f,0,1.5921504999996614,None,0,1,1,1,52,0,52,0,566.0066184000002,,,,,,,,,,,,,,,565.9963541000002,566.0066184000002,566.9117237999994,566.0066184000002,566.0066184000002,567.6123360999995,f,0,1.5921504999996614,None,direct,14,"[20, 19, 20, 19, 20, 19, 20, 19, 20, 19, 20, 19, 20, 19, 20, 19, 20, 18, 19, 18, 19, 17, 18, 15, 16, 12, 13, 12]",28,direct_gaze.png,f,0,2,results2,001,2026-04-13_11h00.41.288,mogelijke versie adaptive staircase builder,,2026.1.3,60.04159681829083,2026-04-13 11h00.41.628183 +0200,
12.5,ecc0,mid,53,0,53,f,0,2.7513145000002623,None,0,1,1,1,53,0,53,0,567.7033951999997,,,,,,,,,,,,,,,567.6928355999994,567.7033951999997,568.6118626000002,567.7033951999997,567.7033951999997,570.4618866999995,f,0,2.7513145000002623,None,direct,15,"[20, 19, 20, 19, 20, 19, 20, 19, 20, 19, 20, 19, 20, 19, 20, 19, 20, 18, 19, 18, 19, 17, 18, 15, 16, 12, 13, 12]",28,direct_gaze.png,f,0,2,results2,001,2026-04-13_11h00.41.288,mogelijke versie adaptive staircase builder,,2026.1.3,60.04159681829083,2026-04-13 11h00.41.628183 +0200,
12.5,ecc0,mid,54,0,54,j,0,2.032115099999828,None,0,1,1,1,54,0,54,0,570.5585756999994,,,,,,,,,,,,,,,570.5482815999999,570.5585756999994,571.4614651999996,570.5585756999994,570.5585756999994,572.5954055999996,j,0,2.032115099999828,None,left,16,"[20, 19, 20, 19, 20, 19, 20, 19, 20, 19, 20, 19, 20, 19, 20, 19, 20, 18, 19, 18, 19, 17, 18, 15, 16, 12, 13, 12]",28,gaze_L_16.png,j,0,2,results2,001,2026-04-13_11h00.41.288,mogelijke versie adaptive staircase builder,,2026.1.3,60.04159681829083,2026-04-13 11h00.41.628183 +0200,
12.5,ecc0,mid,55,0,55,f,0,1.6458357999999862,None,0,1,1,1,55,0,55,0,572.6891730000002,,,,,,,,,,,,,,,572.6780844,572.6891730000002,573.5950802000002,572.6891730000002,572.6891730000002,574.3456224999995,f,0,1.6458357999999862,None,direct,17,"[20, 19, 20, 19, 20, 19, 20, 19, 20, 19, 20, 19, 20, 19, 20, 19, 20, 18, 19, 18, 19, 17, 18, 15, 16, 12, 13, 12]",28,direct_gaze.png,f,0,2,results2,001,2026-04-13_11h00.41.288,mogelijke versie adaptive staircase builder,,2026.1.3,60.04159681829083,2026-04-13 11h00.41.628183 +0200,
12.5,ecc0,mid,56,0,56,j,0,2.3136333000002196,None,0,1,1,1,56,0,56,0,574.4451104999994,,,,,,,,,,,,,,,574.4338684999998,574.4451104999994,575.3449747,574.4451104999994,574.4451104999994,576.7621475999999,j,0,2.3136333000002196,None,left,18,"[20, 19, 20, 19, 20, 19, 20, 19, 20, 19, 20, 19, 20, 19, 20, 19, 20, 18, 19, 18, 19, 17, 18, 15, 16, 12, 13, 12]",28,gaze_L_18.png,j,0,2,results2,001,2026-04-13_11h00.41.288,mogelijke versie adaptive staircase builder,,2026.1.3,60.04159681829083,2026-04-13 11h00.41.628183 +0200,
12.5,ecc0,mid,57,0,57,f,1,2.178577800000312,None,0,1,1,1,57,0,57,0,576.8521088000002,,,,,,,,,,,,,,,576.8421094999999,576.8521088000002,577.7613780999995,576.8521088000002,576.8521088000002,579.0461241999997,f,1,2.178577800000312,None,right,19,"[20, 19, 20, 19, 20, 19, 20, 19, 20, 19, 20, 19, 20, 19, 20, 19, 20, 18, 19, 18, 19, 17, 18, 15, 16, 12, 13, 12, 19]",29,gaze_R_19.png,f,1,2,results2,001,2026-04-13_11h00.41.288,mogelijke versie adaptive staircase builder,,2026.1.3,60.04159681829083,2026-04-13 11h00.41.628183 +0200,
12.5,ecc0,mid,58,0,58,j,1,1.8355238000003737,None,0,1,1,1,58,0,58,0,579.1392356000001,,,,,,,,,,,,,,,579.1282233999996,579.1392356000001,580.0614541999998,579.1392356000001,579.1392356000001,580.9787040999995,j,1,1.8355238000003737,None,direct,18,"[20, 19, 20, 19, 20, 19, 20, 19, 20, 19, 20, 19, 20, 19, 20, 19, 20, 18, 19, 18, 19, 17, 18, 15, 16, 12, 13, 12, 19]",29,direct_gaze.png,j,1,2,results2,001,2026-04-13_11h00.41.288,mogelijke versie adaptive staircase builder,,2026.1.3,60.04159681829083,2026-04-13 11h00.41.628183 +0200,
12.5,ecc0,mid,59,0,59,j,1,1.9998088000002099,None,0,1,1,1,59,0,59,0,581.0708671999996,,,,,,,,,,,,,,,581.0601869999996,581.0708671999996,581.9780721000002,581.0708671999996,581.0708671999996,583.0785759999994,j,1,1.9998088000002099,None,direct,17,"[20, 19, 20, 19, 20, 19, 20, 19, 20, 19, 20, 19, 20, 19, 20, 19, 20, 18, 19, 18, 19, 17, 18, 15, 16, 12, 13, 12, 19]",29,direct_gaze.png,j,1,2,results2,001,2026-04-13_11h00.41.288,mogelijke versie adaptive staircase builder,,2026.1.3,60.04159681829083,2026-04-13 11h00.41.628183 +0200,
12.5,ecc0,mid,1,1,0,,,,,0,1,1,1,,,,,,,,,,,,,,,,,,,,,,,,,,,,,,,,,,,,,,results2,001,2026-04-13_11h00.41.288,mogelijke versie adaptive staircase builder,,2026.1.3,60.04159681829083,2026-04-13 11h00.41.628183 +0200,
20.5,ecc10neg,right,0,0,0,j,0,1.9462001000001692,None,0,2,2,2,0,0,0,0,583.1805886999996,,,,,,,,,,,,,583.0810055999996,583.0810430999995,583.1695690000001,583.1805886999996,583.1805886999996,584.0948446999996,583.1805886999996,585.1287177999998,j,0,1.9462001000001692,None,left,20,[],0,shiftedgaze_L_20.png,j,0,3,results2,001,2026-04-13_11h00.41.288,mogelijke versie adaptive staircase builder,,2026.1.3,60.04159681829083,2026-04-13 11h00.41.628183 +0200,
20.5,ecc10neg,right,1,0,1,f,0,2.0201645000006465,None,0,2,2,2,1,0,1,0,585.2266169999998,,,,,,,,,,,,,,,585.2156540000001,585.2266169999998,585.2266169999998,586.1280960999998,585.2266169999998,587.2619369999998,f,0,2.0201645000006465,None,direct,20,[],0,shifteddirectgaze.png,f,0,3,results2,001,2026-04-13_11h00.41.288,mogelijke versie adaptive staircase builder,,2026.1.3,60.04159681829083,2026-04-13 11h00.41.628183 +0200,
20.5,ecc10neg,right,2,0,2,j,0,2.694771600000422,None,0,2,2,2,2,0,2,0,587.3519208000002,,,,,,,,,,,,,,,587.3412287999995,587.3519208000002,587.3519208000002,588.2613551,587.3519208000002,590.0615334999998,j,0,2.694771600000422,None,left,20,[],0,shiftedgaze_L_20.png,j,0,3,results2,001,2026-04-13_11h00.41.288,mogelijke versie adaptive staircase builder,,2026.1.3,60.04159681829083,2026-04-13 11h00.41.628183 +0200,
20.5,ecc10neg,right,3,0,3,j,0,1.8229000000001179,None,0,2,2,2,3,0,3,0,590.1518982000002,,,,,,,,,,,,,,,590.1409999000002,590.1518982000002,590.1518982000002,591.0612574000002,590.1518982000002,591.9785623000002,j,0,1.8229000000001179,None,left,20,[],0,shiftedgaze_L_20.png,j,0,3,results2,001,2026-04-13_11h00.41.288,mogelijke versie adaptive staircase builder,,2026.1.3,60.04159681829083,2026-04-13 11h00.41.628183 +0200,
20.5,ecc10neg,right,4,0,4,j,0,1.6563366999998834,None,0,2,2,2,4,0,4,0,592.1025711999996,,,,,,,,,,,,,,,592.0898172000002,592.1025711999996,592.1025711999996,592.9780086999995,592.1025711999996,593.7616674999995,j,0,1.6563366999998834,None,right,20,[],0,shiftedgaze_R_20.png,j,0,3,results2,001,2026-04-13_11h00.41.288,mogelijke versie adaptive staircase builder,,2026.1.3,60.04159681829083,2026-04-13 11h00.41.628183 +0200,
20.5,ecc10neg,right,5,0,5,j,0,1.6020011000000522,None,0,2,2,2,5,0,5,0,593.8606047999997,,,,,,,,,,,,,,,593.8475401999999,593.8606047999997,593.8606047999997,594.7613964999996,593.8606047999997,595.4784796999998,j,0,1.6020011000000522,None,right,20,[],0,shiftedgaze_R_20.png,j,0,3,results2,001,2026-04-13_11h00.41.288,mogelijke versie adaptive staircase builder,,2026.1.3,60.04159681829083,2026-04-13 11h00.41.628183 +0200,
20.5,ecc10neg,right,6,0,6,f,1,2.2510652999999365,None,0,2,2,2,6,0,6,0,595.5876937999997,,,,,,,,,,,,,,,595.5764125999999,595.5876937999997,595.5876937999997,596.4779969999995,595.5876937999997,597.8450882000002,f,1,2.2510652999999365,None,left,20,[20],1,shiftedgaze_L_20.png,f,1,3,results2,001,2026-04-13_11h00.41.288,mogelijke versie adaptive staircase builder,,2026.1.3,60.04159681829083,2026-04-13 11h00.41.628183 +0200,
20.5,ecc10neg,right,7,0,7,f,1,3.2407837000000654,None,0,2,2,2,7,0,7,0,597.9419844999998,,,,,,,,,,,,,,,597.931102,597.9419844999998,597.9419844999998,598.8447411000002,597.9419844999998,601.1951637999996,f,1,3.2407837000000654,None,left,19,[20],1,shiftedgaze_L_19.png,f,1,3,results2,001,2026-04-13_11h00.41.288,mogelijke versie adaptive staircase builder,,2026.1.3,60.04159681829083,2026-04-13 11h00.41.628183 +0200,
20.5,ecc10neg,right,8,0,8,j,0,1.8644490999995469,None,0,2,2,2,8,0,8,0,601.2943869999995,,,,,,,,,,,,,,,601.2834681999998,601.2943869999995,601.2943869999995,602.2112377999997,601.2943869999995,603.1615152999998,j,0,1.8644490999995469,None,left,18,"[20, 18]",2,shiftedgaze_L_18.png,j,0,3,results2,001,2026-04-13_11h00.41.288,mogelijke versie adaptive staircase builder,,2026.1.3,60.04159681829083,2026-04-13 11h00.41.628183 +0200,
20.5,ecc10neg,right,9,0,9,f,1,1.9849345999991783,None,0,2,2,2,9,0,9,0,603.2858271999999,,,,,,,,,,,,,,,603.2740892999996,603.2858271999999,603.2858271999999,604.1611713999996,603.2858271999999,605.2782588999994,f,1,1.9849345999991783,None,right,19,"[20, 18, 19]",3,shiftedgaze_R_19.png,f,1,3,results2,001,2026-04-13_11h00.41.288,mogelijke versie adaptive staircase builder,,2026.1.3,60.04159681829083,2026-04-13 11h00.41.628183 +0200,
20.5,ecc10neg,right,10,0,10,f,1,2.2556336999996347,None,0,2,2,2,10,0,10,0,605.3910930999996,,,,,,,,,,,,,,,605.3790690999999,605.3910930999996,605.3910930999996,606.2777304999995,605.3910930999996,607.661689,f,1,2.2556336999996347,None,left,18,"[20, 18, 19]",3,shiftedgaze_L_18.png,f,1,3,results2,001,2026-04-13_11h00.41.288,mogelijke versie adaptive staircase builder,,2026.1.3,60.04159681829083,2026-04-13 11h00.41.628183 +0200,
20.5,ecc10neg,right,11,0,11,f,1,1.9834318000002895,None,0,2,2,2,11,0,11,0,607.7833415,,,,,,,,,,,,,,,607.7713000999997,607.7833415,607.7833415,608.6611541999996,607.7833415,609.7783807999999,f,1,1.9834318000002895,None,right,17,"[20, 18, 19]",3,shiftedgaze_R_17.png,f,1,3,results2,001,2026-04-13_11h00.41.288,mogelijke versie adaptive staircase builder,,2026.1.3,60.04159681829083,2026-04-13 11h00.41.628183 +0200,
20.5,ecc10neg,right,12,0,12,f,0,1.7521492999994734,None,0,2,2,2,12,0,12,0,609.8866099000002,,,,,,,,,,,,,,,609.8751735000001,609.8866099000002,609.8866099000002,610.7777332000001,609.8866099000002,611.6446776999996,f,0,1.7521492999994734,None,direct,16,"[20, 18, 19, 16]",4,shifteddirectgaze.png,f,0,3,results2,001,2026-04-13_11h00.41.288,mogelijke versie adaptive staircase builder,,2026.1.3,60.04159681829083,2026-04-13 11h00.41.628183 +0200,
20.5,ecc10neg,right,13,0,13,j,1,1.712053499999456,None,0,2,2,2,13,0,13,0,611.7347206,,,,,,,,,,,,,,,611.7233087999998,611.7347206,611.7347206,612.6442765999996,611.7347206,613.4614667000001,j,1,1.712053499999456,None,direct,17,"[20, 18, 19, 16, 17]",5,shifteddirectgaze.png,j,1,3,results2,001,2026-04-13_11h00.41.288,mogelijke versie adaptive staircase builder,,2026.1.3,60.04159681829083,2026-04-13 11h00.41.628183 +0200,
20.5,ecc10neg,right,14,0,14,j,1,1.5345869000002494,None,0,2,2,2,14,0,14,0,613.5521266000001,,,,,,,,,,,,,,,613.5416737,613.5521266000001,613.5521266000001,614.4609948000002,613.5521266000001,615.0950345999995,j,1,1.5345869000002494,None,direct,16,"[20, 18, 19, 16, 17]",5,shifteddirectgaze.png,j,1,3,results2,001,2026-04-13_11h00.41.288,mogelijke versie adaptive staircase builder,,2026.1.3,60.04159681829083,2026-04-13 11h00.41.628183 +0200,
20.5,ecc10neg,right,15,0,15,j,0,1.5330863999997746,None,0,2,2,2,15,0,15,0,615.1937720000001,,,,,,,,,,,,,,,615.1829446999996,615.1937720000001,615.1937720000001,616.0944353,615.1937720000001,616.7281748,j,0,1.5330863999997746,None,right,15,"[20, 18, 19, 16, 17, 15]",6,shiftedgaze_R_15.png,j,0,3,results2,001,2026-04-13_11h00.41.288,mogelijke versie adaptive staircase builder,,2026.1.3,60.04159681829083,2026-04-13 11h00.41.628183 +0200,
20.5,ecc10neg,right,16,0,16,f,1,1.5494493000005605,None,0,2,2,2,16,0,16,0,616.8252914999998,,,,,,,,,,,,,,,616.8146100999998,616.8252914999998,616.8252914999998,617.7276877999998,616.8252914999998,618.3781830000003,f,1,1.5494493000005605,None,left,16,"[20, 18, 19, 16, 17, 15, 16]",7,shiftedgaze_L_16.png,f,1,3,results2,001,2026-04-13_11h00.41.288,mogelijke versie adaptive staircase builder,,2026.1.3,60.04159681829083,2026-04-13 11h00.41.628183 +0200,
20.5,ecc10neg,right,17,0,17,f,1,2.7266718000000765,None,0,2,2,2,17,0,17,0,618.4720351000001,,,,,,,,,,,,,,,618.4606579999995,618.4720351000001,618.4720351000001,619.3777421999998,618.4720351000001,621.2113285,f,1,2.7266718000000765,None,right,15,"[20, 18, 19, 16, 17, 15, 16]",7,shiftedgaze_R_15.png,f,1,3,results2,001,2026-04-13_11h00.41.288,mogelijke versie adaptive staircase builder,,2026.1.3,60.04159681829083,2026-04-13 11h00.41.628183 +0200,
20.5,ecc10neg,right,18,0,18,j,0,2.4076053999997384,None,0,2,2,2,18,0,18,0,621.3110339,,,,,,,,,,,,,,,621.3001964999999,621.3110339,621.3110339,622.2109669999995,621.3110339,623.7280289999994,j,0,2.4076053999997384,None,right,14,"[20, 18, 19, 16, 17, 15, 16, 14]",8,shiftedgaze_R_14.png,j,0,3,results2,001,2026-04-13_11h00.41.288,mogelijke versie adaptive staircase builder,,2026.1.3,60.04159681829083,2026-04-13 11h00.41.628183 +0200,
20.5,ecc10neg,right,19,0,19,j,1,2.525547000000188,None,0,2,2,2,19,0,19,0,623.8171192999994,,,,,,,,,,,,,,,623.8069226000002,623.8171192999994,623.8171192999994,624.7276752000002,623.8171192999994,626.3446850999994,j,1,2.525547000000188,None,direct,15,"[20, 18, 19, 16, 17, 15, 16, 14, 15]",9,shifteddirectgaze.png,j,1,3,results2,001,2026-04-13_11h00.41.288,mogelijke versie adaptive staircase builder,,2026.1.3,60.04159681829083,2026-04-13 11h00.41.628183 +0200,
20.5,ecc10neg,right,20,0,20,j,1,1.6599536999992779,None,0,2,2,2,20,0,20,0,626.4348691,,,,,,,,,,,,,,,626.4244684999999,626.4348691,626.4348691,627.3441671999994,626.4348691,628.1114062000001,j,1,1.6599536999992779,None,direct,14,"[20, 18, 19, 16, 17, 15, 16, 14, 15]",9,shifteddirectgaze.png,j,1,3,results2,001,2026-04-13_11h00.41.288,mogelijke versie adaptive staircase builder,,2026.1.3,60.04159681829083,2026-04-13 11h00.41.628183 +0200,
20.5,ecc10neg,right,21,0,21,f,1,1.8448883999999452,None,0,2,2,2,21,0,21,0,628.2097233999998,,,,,,,,,,,,,,,628.1983932999997,628.2097233999998,628.2097233999998,629.1109869999996,628.2097233999998,630.0610820999996,f,1,1.8448883999999452,None,left,13,"[20, 18, 19, 16, 17, 15, 16, 14, 15]",9,shiftedgaze_L_13.png,f,1,3,results2,001,2026-04-13_11h00.41.288,mogelijke versie adaptive staircase builder,,2026.1.3,60.04159681829083,2026-04-13 11h00.41.628183 +0200,
20.5,ecc10neg,right,22,0,22,j,0,1.7265698999999586,None,0,2,2,2,22,0,22,0,630.1600797999995,,,,,,,,,,,,,,,630.1494001999995,630.1600797999995,630.1600797999995,631.0609871000001,630.1600797999995,631.8945090000002,j,0,1.7265698999999586,None,left,12,"[20, 18, 19, 16, 17, 15, 16, 14, 15, 12]",10,shiftedgaze_L_12.png,j,0,3,results2,001,2026-04-13_11h00.41.288,mogelijke versie adaptive staircase builder,,2026.1.3,60.04159681829083,2026-04-13 11h00.41.628183 +0200,
20.5,ecc10neg,right,23,0,23,j,1,1.7659456999999747,None,0,2,2,2,23,0,23,0,631.9851384999997,,,,,,,,,,,,,,,631.9742378999995,631.9851384999997,631.9851384999997,632.8943388000002,631.9851384999997,633.7613275999997,j,1,1.7659456999999747,None,direct,13,"[20, 18, 19, 16, 17, 15, 16, 14, 15, 12, 13]",11,shifteddirectgaze.png,j,1,3,results2,001,2026-04-13_11h00.41.288,mogelijke versie adaptive staircase builder,,2026.1.3,60.04159681829083,2026-04-13 11h00.41.628183 +0200,
20.5,ecc10neg,right,24,0,24,j,1,2.043353600000046,None,0,2,2,2,24,0,24,0,633.8513726999995,,,,,,,,,,,,,,,633.840976,633.8513726999995,633.8513726999995,634.7608924000001,633.8513726999995,635.9112263000002,j,1,2.043353600000046,None,direct,12,"[20, 18, 19, 16, 17, 15, 16, 14, 15, 12, 13]",11,shifteddirectgaze.png,j,1,3,results2,001,2026-04-13_11h00.41.288,mogelijke versie adaptive staircase builder,,2026.1.3,60.04159681829083,2026-04-13 11h00.41.628183 +0200,
20.5,ecc10neg,right,25,0,25,j,0,1.813142599999992,None,0,2,2,2,25,0,25,0,636.0095938,,,,,,,,,,,,,,,635.9989278999997,636.0095938,636.0095938,636.9107933,636.0095938,637.8278525999999,j,0,1.813142599999992,None,left,11,"[20, 18, 19, 16, 17, 15, 16, 14, 15, 12, 13, 11]",12,shiftedgaze_L_11.png,j,0,3,results2,001,2026-04-13_11h00.41.288,mogelijke versie adaptive staircase builder,,2026.1.3,60.04159681829083,2026-04-13 11h00.41.628183 +0200,
20.5,ecc10neg,right,26,0,26,f,1,1.4882647000004,None,0,2,2,2,26,0,26,0,637.9424137999999,,,,,,,,,,,,,,,637.9323652999997,637.9424137999999,637.9424137999999,638.8274295999995,637.9424137999999,639.4444643000002,f,1,1.4882647000004,None,right,12,"[20, 18, 19, 16, 17, 15, 16, 14, 15, 12, 13, 11, 12]",13,shiftedgaze_R_12.png,f,1,3,results2,001,2026-04-13_11h00.41.288,mogelijke versie adaptive staircase builder,,2026.1.3,60.04159681829083,2026-04-13 11h00.41.628183 +0200,
20.5,ecc10neg,right,27,0,27,j,1,1.8300647000005483,None,0,2,2,2,27,0,27,0,639.5526249,,,,,,,,,,,,,,,639.5423994999996,639.5526249,639.5526249,640.4439435999998,639.5526249,641.3944996999994,j,1,1.8300647000005483,None,direct,11,"[20, 18, 19, 16, 17, 15, 16, 14, 15, 12, 13, 11, 12]",13,shifteddirectgaze.png,j,1,3,results2,001,2026-04-13_11h00.41.288,mogelijke versie adaptive staircase builder,,2026.1.3,60.04159681829083,2026-04-13 11h00.41.628183 +0200,
20.5,ecc10neg,right,28,0,28,f,1,1.428533499999503,None,0,2,2,2,28,0,28,0,642.1461505000002,,,,,,,,,,,,,,,642.1348071999996,642.1461505000002,642.1461505000002,642.3940638999998,642.1461505000002,643.5775569000002,f,1,1.428533499999503,None,right,10,"[20, 18, 19, 16, 17, 15, 16, 14, 15, 12, 13, 11, 12]",13,shiftedgaze_R_10.png,f,1,3,results2,001,2026-04-13_11h00.41.288,mogelijke versie adaptive staircase builder,,2026.1.3,60.04159681829083,2026-04-13 11h00.41.628183 +0200,
20.5,ecc10neg,right,29,0,29,j,1,2.1478961999991952,None,0,2,2,2,29,0,29,0,643.6667603999999,,,,,,,,,,,,,,,643.6562585999995,643.6667603999999,643.6667603999999,644.5773334999999,643.6667603999999,645.8277406000002,j,1,2.1478961999991952,None,direct,9,"[20, 18, 19, 16, 17, 15, 16, 14, 15, 12, 13, 11, 12]",13,shifteddirectgaze.png,j,1,3,results2,001,2026-04-13_11h00.41.288,mogelijke versie adaptive staircase builder,,2026.1.3,60.04159681829083,2026-04-13 11h00.41.628183 +0200,
20.5,ecc10neg,right,30,0,30,j,1,2.744331599999896,None,0,2,2,2,30,0,30,0,645.9183389999994,,,,,,,,,,,,,,,645.9079914999998,645.9183389999994,645.9183389999994,646.8273168999999,645.9183389999994,648.6777287999998,j,1,2.744331599999896,None,direct,8,"[20, 18, 19, 16, 17, 15, 16, 14, 15, 12, 13, 11, 12]",13,shifteddirectgaze.png,j,1,3,results2,001,2026-04-13_11h00.41.288,mogelijke versie adaptive staircase builder,,2026.1.3,60.04159681829083,2026-04-13 11h00.41.628183 +0200,
20.5,ecc10neg,right,31,0,31,j,1,2.7008325000006153,None,0,2,2,2,31,0,31,0,648.7699379999999,,,,,,,,,,,,,,,648.7587718999998,648.7699379999999,648.7699379999999,649.6773625999999,648.7699379999999,651.4779246000003,j,1,2.7008325000006153,None,direct,7,"[20, 18, 19, 16, 17, 15, 16, 14, 15, 12, 13, 11, 12]",13,shifteddirectgaze.png,j,1,3,results2,001,2026-04-13_11h00.41.288,mogelijke versie adaptive staircase builder,,2026.1.3,60.04159681829083,2026-04-13 11h00.41.628183 +0200,
20.5,ecc10neg,right,32,0,32,f,0,2.5073735999994824,None,0,2,2,2,32,0,32,0,651.5713062999998,,,,,,,,,,,,,,,651.5606113999997,651.5713062999998,651.5713062999998,652.4937374999995,651.5713062999998,654.0942484000002,f,0,2.5073735999994824,None,direct,6,"[20, 18, 19, 16, 17, 15, 16, 14, 15, 12, 13, 11, 12, 6]",14,shifteddirectgaze.png,f,0,3,results2,001,2026-04-13_11h00.41.288,mogelijke versie adaptive staircase builder,,2026.1.3,60.04159681829083,2026-04-13 11h00.41.628183 +0200,
20.5,ecc10neg,right,33,0,33,j,1,1.958105699999578,None,0,2,2,2,33,0,33,0,654.1849427000002,,,,,,,,,,,,,,,654.1738209,654.1849427000002,654.1849427000002,655.0936182,654.1849427000002,656.1442661999995,j,1,1.958105699999578,None,direct,7,"[20, 18, 19, 16, 17, 15, 16, 14, 15, 12, 13, 11, 12, 6, 7]",15,shifteddirectgaze.png,j,1,3,results2,001,2026-04-13_11h00.41.288,mogelijke versie adaptive staircase builder,,2026.1.3,60.04159681829083,2026-04-13 11h00.41.628183 +0200,
20.5,ecc10neg,right,34,0,34,j,1,1.8734386000005543,None,0,2,2,2,34,0,34,0,656.2376300000001,,,,,,,,,,,,,,,656.226881,656.2376300000001,656.2376300000001,657.1439159999995,656.2376300000001,658.1276053999995,j,1,1.8734386000005543,None,direct,6,"[20, 18, 19, 16, 17, 15, 16, 14, 15, 12, 13, 11, 12, 6, 7]",15,shifteddirectgaze.png,j,1,3,results2,001,2026-04-13_11h00.41.288,mogelijke versie adaptive staircase builder,,2026.1.3,60.04159681829083,2026-04-13 11h00.41.628183 +0200,
20.5,ecc10neg,right,35,0,35,f,0,1.4768482999998014,None,0,2,2,2,35,0,35,0,658.2179303999997,,,,,,,,,,,,,,,658.2072364999999,658.2179303999997,658.2179303999997,659.1272410999995,658.2179303999997,659.7108573999999,f,0,1.4768482999998014,None,direct,5,"[20, 18, 19, 16, 17, 15, 16, 14, 15, 12, 13, 11, 12, 6, 7, 5]",16,shifteddirectgaze.png,f,0,3,results2,001,2026-04-13_11h00.41.288,mogelijke versie adaptive staircase builder,,2026.1.3,60.04159681829083,2026-04-13 11h00.41.628183 +0200,
20.5,ecc10neg,right,36,0,36,j,0,2.125093499999821,None,0,2,2,2,36,0,36,0,659.8895433000002,,,,,,,,,,,,,,,659.8786169,659.8895433000002,659.8895433000002,660.7103802999995,659.8895433000002,662.0274975999996,j,0,2.125093499999821,None,left,6,"[20, 18, 19, 16, 17, 15, 16, 14, 15, 12, 13, 11, 12, 6, 7, 5]",16,shiftedgaze_L_6.png,j,0,3,results2,001,2026-04-13_11h00.41.288,mogelijke versie adaptive staircase builder,,2026.1.3,60.04159681829083,2026-04-13 11h00.41.628183 +0200,
20.5,ecc10neg,right,37,0,37,j,0,0.12067529999967519,None,0,2,2,2,37,0,37,0,663.7740784000002,,,,,,,,,,,,,,,663.7626796999998,663.7740784000002,663.7740784000002,663.7740784000002,663.7740784000002,663.9107913000003,j,0,0.12067529999967519,None,left,7,"[20, 18, 19, 16, 17, 15, 16, 14, 15, 12, 13, 11, 12, 6, 7, 5]",16,shiftedgaze_L_7.png,j,0,3,results2,001,2026-04-13_11h00.41.288,mogelijke versie adaptive staircase builder,,2026.1.3,60.04159681829083,2026-04-13 11h00.41.628183 +0200,
20.5,ecc10neg,right,38,0,38,f,1,3.0669363999995767,None,0,2,2,2,38,0,38,0,664.5877482999999,,,,,,,,,,,,,,,664.5770619,664.5877482999999,664.5877482999999,664.9103388999997,664.5877482999999,667.6608001,f,1,3.0669363999995767,None,right,8,"[20, 18, 19, 16, 17, 15, 16, 14, 15, 12, 13, 11, 12, 6, 7, 5, 8]",17,shiftedgaze_R_8.png,f,1,3,results2,001,2026-04-13_11h00.41.288,mogelijke versie adaptive staircase builder,,2026.1.3,60.04159681829083,2026-04-13 11h00.41.628183 +0200,
20.5,ecc10neg,right,39,0,39,j,0,4.773371400000542,None,0,2,2,2,39,0,39,0,667.8413705999997,,,,,,,,,,,,,,,667.8299279999997,667.8413705999997,667.8413705999997,668.6602229999994,667.8413705999997,672.6270320999997,j,0,4.773371400000542,None,right,7,"[20, 18, 19, 16, 17, 15, 16, 14, 15, 12, 13, 11, 12, 6, 7, 5, 8, 7]",18,shiftedgaze_R_7.png,j,0,3,results2,001,2026-04-13_11h00.41.288,mogelijke versie adaptive staircase builder,,2026.1.3,60.04159681829083,2026-04-13 11h00.41.628183 +0200,
20.5,ecc10neg,right,40,0,40,f,1,2.2710109999998167,None,0,2,2,2,40,0,40,0,672.7196597999996,,,,,,,,,,,,,,,672.7087817999995,672.7196597999996,672.7196597999996,673.6267751,672.7196597999996,674.9936873000001,f,1,2.2710109999998167,None,right,8,"[20, 18, 19, 16, 17, 15, 16, 14, 15, 12, 13, 11, 12, 6, 7, 5, 8, 7, 8]",19,shiftedgaze_R_8.png,f,1,3,results2,001,2026-04-13_11h00.41.288,mogelijke versie adaptive staircase builder,,2026.1.3,60.04159681829083,2026-04-13 11h00.41.628183 +0200,
20.5,ecc10neg,right,41,0,41,j,0,2.7689027999995233,None,0,2,2,2,41,0,41,0,675.0858102999996,,,,,,,,,,,,,,,675.0747856000003,675.0858102999996,675.0858102999996,675.9935172,675.0858102999996,677.8606984000003,j,0,2.7689027999995233,None,left,7,"[20, 18, 19, 16, 17, 15, 16, 14, 15, 12, 13, 11, 12, 6, 7, 5, 8, 7, 8, 7]",20,shiftedgaze_L_7.png,j,0,3,results2,001,2026-04-13_11h00.41.288,mogelijke versie adaptive staircase builder,,2026.1.3,60.04159681829083,2026-04-13 11h00.41.628183 +0200,
20.5,ecc10neg,right,42,0,42,f,0,2.9398865000002843,None,0,2,2,2,42,0,42,0,677.9871161999995,,,,,,,,,,,,,,,677.9764516999999,677.9871161999995,677.9871161999995,678.8602434,677.9871161999995,680.9436807999996,f,0,2.9398865000002843,None,direct,8,"[20, 18, 19, 16, 17, 15, 16, 14, 15, 12, 13, 11, 12, 6, 7, 5, 8, 7, 8, 7]",20,shifteddirectgaze.png,f,0,3,results2,001,2026-04-13_11h00.41.288,mogelijke versie adaptive staircase builder,,2026.1.3,60.04159681829083,2026-04-13 11h00.41.628183 +0200,
20.5,ecc10neg,right,43,0,43,f,1,2.0100952000002508,None,0,2,2,2,43,0,43,0,681.1168569999995,,,,,,,,,,,,,,,681.1064800999998,681.1168569999995,681.1168569999995,681.9433918,681.1168569999995,683.1437844999996,f,1,2.0100952000002508,None,right,9,"[20, 18, 19, 16, 17, 15, 16, 14, 15, 12, 13, 11, 12, 6, 7, 5, 8, 7, 8, 7, 9]",21,shiftedgaze_R_9.png,f,1,3,results2,001,2026-04-13_11h00.41.288,mogelijke versie adaptive staircase builder,,2026.1.3,60.04159681829083,2026-04-13 11h00.41.628183 +0200,
20.5,ecc10neg,right,44,0,44,f,1,1.8571753000005629,None,0,2,2,2,44,0,44,0,683.2374912999999,,,,,,,,,,,,,,,683.2258627999995,683.2374912999999,683.2374912999999,684.1432278999996,683.2374912999999,685.1104168999996,f,1,1.8571753000005629,None,right,8,"[20, 18, 19, 16, 17, 15, 16, 14, 15, 12, 13, 11, 12, 6, 7, 5, 8, 7, 8, 7, 9]",21,shiftedgaze_R_8.png,f,1,3,results2,001,2026-04-13_11h00.41.288,mogelijke versie adaptive staircase builder,,2026.1.3,60.04159681829083,2026-04-13 11h00.41.628183 +0200,
20.5,ecc10neg,right,45,0,45,j,0,1.7428822000001674,None,0,2,2,2,45,0,45,0,685.1998768999997,,,,,,,,,,,,,,,685.1892553000002,685.1998768999997,685.1998768999997,686.1099963000001,685.1998768999997,686.9435778000002,j,0,1.7428822000001674,None,right,7,"[20, 18, 19, 16, 17, 15, 16, 14, 15, 12, 13, 11, 12, 6, 7, 5, 8, 7, 8, 7, 9, 7]",22,shiftedgaze_R_7.png,j,0,3,results2,001,2026-04-13_11h00.41.288,mogelijke versie adaptive staircase builder,,2026.1.3,60.04159681829083,2026-04-13 11h00.41.628183 +0200,
20.5,ecc10neg,right,46,0,46,j,1,1.6626430999995137,None,0,2,2,2,46,0,46,0,687.0400974999998,,,,,,,,,,,,,,,687.0292060999996,687.0400974999998,687.0400974999998,687.9433035999996,687.0400974999998,688.7104781000003,j,1,1.6626430999995137,None,direct,8,"[20, 18, 19, 16, 17, 15, 16, 14, 15, 12, 13, 11, 12, 6, 7, 5, 8, 7, 8, 7, 9, 7, 8]",23,shifteddirectgaze.png,j,1,3,results2,001,2026-04-13_11h00.41.288,mogelijke versie adaptive staircase builder,,2026.1.3,60.04159681829083,2026-04-13 11h00.41.628183 +0200,
20.5,ecc10neg,right,47,0,47,f,1,1.7423352000005252,None,0,2,2,2,47,0,47,0,688.8084593999997,,,,,,,,,,,,,,,688.7971123000002,688.8084593999997,688.8084593999997,689.7100471999997,688.8084593999997,690.5606427999996,f,1,1.7423352000005252,None,right,7,"[20, 18, 19, 16, 17, 15, 16, 14, 15, 12, 13, 11, 12, 6, 7, 5, 8, 7, 8, 7, 9, 7, 8]",23,shiftedgaze_R_7.png,f,1,3,results2,001,2026-04-13_11h00.41.288,mogelijke versie adaptive staircase builder,,2026.1.3,60.04159681829083,2026-04-13 11h00.41.628183 +0200,
20.5,ecc10neg,right,48,0,48,j,1,1.8999563999996099,None,0,2,2,2,48,0,48,0,690.6587600999997,,,,,,,,,,,,,,,690.6481699000001,690.6587600999997,690.6587600999997,691.5598860999994,690.6587600999997,692.5604595,j,1,1.8999563999996099,None,direct,6,"[20, 18, 19, 16, 17, 15, 16, 14, 15, 12, 13, 11, 12, 6, 7, 5, 8, 7, 8, 7, 9, 7, 8]",23,shifteddirectgaze.png,j,1,3,results2,001,2026-04-13_11h00.41.288,mogelijke versie adaptive staircase builder,,2026.1.3,60.04159681829083,2026-04-13 11h00.41.628183 +0200,
20.5,ecc10neg,right,49,0,49,f,1,1.502545100000134,None,0,2,2,2,49,0,49,0,692.7362207000001,,,,,,,,,,,,,,,692.7250443999997,692.7362207000001,692.7362207000001,693.5599333999994,692.7362207000001,694.2436089999997,f,1,1.502545100000134,None,right,5,"[20, 18, 19, 16, 17, 15, 16, 14, 15, 12, 13, 11, 12, 6, 7, 5, 8, 7, 8, 7, 9, 7, 8]",23,shiftedgaze_R_5.png,f,1,3,results2,001,2026-04-13_11h00.41.288,mogelijke versie adaptive staircase builder,,2026.1.3,60.04159681829083,2026-04-13 11h00.41.628183 +0200,
20.5,ecc10neg,right,50,0,50,j,0,2.2369190999997954,None,0,2,2,2,50,0,50,0,694.4257967999997,,,,,,,,,,,,,,,694.4149050999999,694.4257967999997,694.4257967999997,695.2432990000002,694.4257967999997,696.6768749999997,j,0,2.2369190999997954,None,right,4,"[20, 18, 19, 16, 17, 15, 16, 14, 15, 12, 13, 11, 12, 6, 7, 5, 8, 7, 8, 7, 9, 7, 8, 4]",24,shiftedgaze_R_4.png,j,0,3,results2,001,2026-04-13_11h00.41.288,mogelijke versie adaptive staircase builder,,2026.1.3,60.04159681829083,2026-04-13 11h00.41.628183 +0200,
20.5,ecc10neg,right,51,0,51,j,0,2.9990222000005815,None,0,2,2,2,51,0,51,0,696.7756594999996,,,,,,,,,,,,,,,696.7651461999999,696.7756594999996,696.7756594999996,697.6930407999994,696.7756594999996,699.7769496999995,j,0,2.9990222000005815,None,right,5,"[20, 18, 19, 16, 17, 15, 16, 14, 15, 12, 13, 11, 12, 6, 7, 5, 8, 7, 8, 7, 9, 7, 8, 4]",24,shiftedgaze_R_5.png,j,0,3,results2,001,2026-04-13_11h00.41.288,mogelijke versie adaptive staircase builder,,2026.1.3,60.04159681829083,2026-04-13 11h00.41.628183 +0200,
20.5,ecc10neg,right,52,0,52,f,1,1.9188059000007343,None,0,2,2,2,52,0,52,0,699.9038582999997,,,,,,,,,,,,,,,699.8929261999997,699.9038582999997,699.9038582999997,700.7764953999999,699.9038582999997,701.8269553999994,f,1,1.9188059000007343,None,right,6,"[20, 18, 19, 16, 17, 15, 16, 14, 15, 12, 13, 11, 12, 6, 7, 5, 8, 7, 8, 7, 9, 7, 8, 4, 6]",25,shiftedgaze_R_6.png,f,1,3,results2,001,2026-04-13_11h00.41.288,mogelijke versie adaptive staircase builder,,2026.1.3,60.04159681829083,2026-04-13 11h00.41.628183 +0200,
20.5,ecc10neg,right,53,0,53,j,0,2.23718800000006,None,0,2,2,2,53,0,53,0,702.0097449,,,,,,,,,,,,,,,701.9992423999997,702.0097449,702.0097449,702.8428620999998,702.0097449,704.2601652999997,j,0,2.23718800000006,None,left,5,"[20, 18, 19, 16, 17, 15, 16, 14, 15, 12, 13, 11, 12, 6, 7, 5, 8, 7, 8, 7, 9, 7, 8, 4, 6, 5]",26,shiftedgaze_L_5.png,j,0,3,results2,001,2026-04-13_11h00.41.288,mogelijke versie adaptive staircase builder,,2026.1.3,60.04159681829083,2026-04-13 11h00.41.628183 +0200,
20.5,ecc10neg,right,54,0,54,j,1,1.8469535000003816,None,0,2,2,2,54,0,54,0,704.3518887999994,,,,,,,,,,,,,,,704.3409164999998,704.3518887999994,704.3518887999994,705.2597308999998,704.3518887999994,706.2101848999996,j,1,1.8469535000003816,None,direct,6,"[20, 18, 19, 16, 17, 15, 16, 14, 15, 12, 13, 11, 12, 6, 7, 5, 8, 7, 8, 7, 9, 7, 8, 4, 6, 5, 6]",27,shifteddirectgaze.png,j,1,3,results2,001,2026-04-13_11h00.41.288,mogelijke versie adaptive staircase builder,,2026.1.3,60.04159681829083,2026-04-13 11h00.41.628183 +0200,
20.5,ecc10neg,right,55,0,55,f,1,1.9049956999997448,None,0,2,2,2,55,0,55,0,706.3018073999997,,,,,,,,,,,,,,,706.2904661999996,706.3018073999997,706.3018073999997,707.2097012999998,706.3018073999997,708.2101622999994,f,1,1.9049956999997448,None,right,5,"[20, 18, 19, 16, 17, 15, 16, 14, 15, 12, 13, 11, 12, 6, 7, 5, 8, 7, 8, 7, 9, 7, 8, 4, 6, 5, 6]",27,shiftedgaze_R_5.png,f,1,3,results2,001,2026-04-13_11h00.41.288,mogelijke versie adaptive staircase builder,,2026.1.3,60.04159681829083,2026-04-13 11h00.41.628183 +0200,
20.5,ecc10neg,right,56,0,56,j,0,1.7152743999995437,None,0,2,2,2,56,0,56,0,708.8116974999998,,,,,,,,,,,,,,,708.8012635999999,708.8116974999998,708.8116974999998,709.2096726999994,708.8116974999998,710.5431945999994,j,0,1.7152743999995437,None,left,4,"[20, 18, 19, 16, 17, 15, 16, 14, 15, 12, 13, 11, 12, 6, 7, 5, 8, 7, 8, 7, 9, 7, 8, 4, 6, 5, 6, 4]",28,shiftedgaze_L_4.png,j,0,3,results2,001,2026-04-13_11h00.41.288,mogelijke versie adaptive staircase builder,,2026.1.3,60.04159681829083,2026-04-13 11h00.41.628183 +0200,
20.5,ecc10neg,right,57,0,57,f,0,3.2111669999994774,None,0,2,2,2,57,0,57,0,710.6355707999996,,,,,,,,,,,,,,,710.6244385999994,710.6355707999996,710.6355707999996,711.5430326999999,710.6355707999996,713.8601027,f,0,3.2111669999994774,None,direct,5,"[20, 18, 19, 16, 17, 15, 16, 14, 15, 12, 13, 11, 12, 6, 7, 5, 8, 7, 8, 7, 9, 7, 8, 4, 6, 5, 6, 4]",28,shifteddirectgaze.png,f,0,3,results2,001,2026-04-13_11h00.41.288,mogelijke versie adaptive staircase builder,,2026.1.3,60.04159681829083,2026-04-13 11h00.41.628183 +0200,
20.5,ecc10neg,right,58,0,58,f,1,2.278828700000304,None,0,2,2,2,58,0,58,0,713.9519016999998,,,,,,,,,,,,,,,713.9416188999999,713.9519016999998,713.9519016999998,714.8596241999999,713.9519016999998,716.2433569,f,1,2.278828700000304,None,right,6,"[20, 18, 19, 16, 17, 15, 16, 14, 15, 12, 13, 11, 12, 6, 7, 5, 8, 7, 8, 7, 9, 7, 8, 4, 6, 5, 6, 4, 6]",29,shiftedgaze_R_6.png,f,1,3,results2,001,2026-04-13_11h00.41.288,mogelijke versie adaptive staircase builder,,2026.1.3,60.04159681829083,2026-04-13 11h00.41.628183 +0200,
20.5,ecc10neg,right,59,0,59,j,0,2.0007691000000705,None,0,2,2,2,59,0,59,0,716.3339813999996,,,,,,,,,,,,,,,716.3237493000001,716.3339813999996,716.3339813999996,717.2428875999999,716.3339813999996,718.3432014999994,j,0,2.0007691000000705,None,right,5,"[20, 18, 19, 16, 17, 15, 16, 14, 15, 12, 13, 11, 12, 6, 7, 5, 8, 7, 8, 7, 9, 7, 8, 4, 6, 5, 6, 4, 6, 5]",30,shiftedgaze_R_5.png,j,0,3,results2,001,2026-04-13_11h00.41.288,mogelijke versie adaptive staircase builder,,2026.1.3,60.04159681829083,2026-04-13 11h00.41.628183 +0200,
20.5,ecc10neg,right,2,2,0,,,,,0,2,2,2,,,,,,,,,,,,,,,,,,,,,,,,,,,,,,,,,,,,,,results2,001,2026-04-13_11h00.41.288,mogelijke versie adaptive staircase builder,,2026.1.3,60.04159681829083,2026-04-13 11h00.41.628183 +0200,
