xPos,stimulusSet,whichImage,thisN,thisTrialN,thisRepN,key_resp.keys,key_resp.corr,key_resp.rt,key_resp.duration,blocks.thisRepN,blocks.thisTrialN,blocks.thisN,blocks.thisIndex,trials.thisRepN,trials.thisTrialN,trials.thisN,trials.thisIndex,thisRow.t,notes,piloting,intro.started,introinstructions.started,intro_key.started,demo_image_left.started,demo_image_middle.started,demo_image_right.started,intro.stopped,intro_key.keys,intro_key.rt,intro_key.duration,block_start.started,block_start.stopped,trial.started,key_resp.started,middle_image.started,right_image.started,left_image.started,trial.stopped,trials.key_resp.keys,trials.key_resp.corr,trials.key_resp.rt,trials.key_resp.duration,direction,angle,reversal_intensities,number_reversals,stimulus,response,correct,blockNumber,participant,session,date,expName,expVersion,psychopyVersion,frameRate,expStart,
,,,,,,,,,,,,,,,,,,,,False,0.05402239999966696,0.06382200000007288,0.06382200000007288,0.06382200000007288,0.06382200000007288,0.06382200000007288,967.5697400999998,space,967.3296254000006,0.16705459999957384,,,,,,,,,,,,,,,,,,,,,results26,001,2026-04-20_11h45.55.959,mogelijke versie adaptive staircase builder,,2026.1.3,60.006540713078124,2026-04-20 11h45.56.366936 +0200,
4.5,ecc10pos,left,0,0,0,j,0,6.636769700000514,None,0,0,0,0,0,0,0,0,967.8999718000005,,,,,,,,,,,,,967.7884065999997,967.7884636999997,967.8890794999998,967.8999718000005,967.8999718000005,967.8999718000005,968.8026459000002,974.5530107000004,j,0,6.636769700000514,None,left,20,[],0,shiftedgaze_L_20.png,j,0,1,results26,001,2026-04-20_11h45.55.959,mogelijke versie adaptive staircase builder,,2026.1.3,60.006540713078124,2026-04-20 11h45.56.366936 +0200,
4.5,ecc10pos,left,1,0,1,f,1,5.31702469999982,None,0,0,0,0,1,0,1,0,974.6518144000001,,,,,,,,,,,,,,,974.6404406000001,974.6518144000001,974.6518144000001,974.6518144000001,975.5525527999998,979.9694417000001,f,1,5.31702469999982,None,left,20,[20],1,shiftedgaze_L_20.png,f,1,1,results26,001,2026-04-20_11h45.55.959,mogelijke versie adaptive staircase builder,,2026.1.3,60.006540713078124,2026-04-20 11h45.56.366936 +0200,
4.5,ecc10pos,left,2,0,2,f,1,7.165938299999652,None,0,0,0,0,2,0,2,0,980.0826615000005,,,,,,,,,,,,,,,980.0711425,980.0826615000005,980.0826615000005,980.0826615000005,980.9692966000002,987.2535028000002,f,1,7.165938299999652,None,right,19,[20],1,shiftedgaze_R_19.png,f,1,1,results26,001,2026-04-20_11h45.55.959,mogelijke versie adaptive staircase builder,,2026.1.3,60.006540713078124,2026-04-20 11h45.56.366936 +0200,
4.5,ecc10pos,left,3,0,3,f,1,7.296388999999181,None,0,0,0,0,3,0,3,0,987.3761716999998,,,,,,,,,,,,,,,987.3642374000001,987.3761716999998,987.3761716999998,987.3761716999998,988.2690007000001,994.6860047,f,1,7.296388999999181,None,left,18,[20],1,shiftedgaze_L_18.png,f,1,1,results26,001,2026-04-20_11h45.55.959,mogelijke versie adaptive staircase builder,,2026.1.3,60.006540713078124,2026-04-20 11h45.56.366936 +0200,
4.5,ecc10pos,left,4,0,4,f,1,5.731724199999917,None,0,0,0,0,4,0,4,0,994.8047753000001,,,,,,,,,,,,,,,994.7912337999996,994.8047753000001,994.8047753000001,994.8047753000001,995.6854916000002,1000.5527103000004,f,1,5.731724199999917,None,right,17,[20],1,shiftedgaze_R_17.png,f,1,1,results26,001,2026-04-20_11h45.55.959,mogelijke versie adaptive staircase builder,,2026.1.3,60.006540713078124,2026-04-20 11h45.56.366936 +0200,
4.5,ecc10pos,left,5,0,5,j,1,4.730538400000114,None,0,0,0,0,5,0,5,0,1000.6465085999998,,,,,,,,,,,,,,,1000.6363959,1000.6465085999998,1000.6465085999998,1000.6465085999998,1001.5521054999999,1005.3859316999997,j,1,4.730538400000114,None,direct,16,[20],1,shifteddirectgaze.png,j,1,1,results26,001,2026-04-20_11h45.55.959,mogelijke versie adaptive staircase builder,,2026.1.3,60.006540713078124,2026-04-20 11h45.56.366936 +0200,
4.5,ecc10pos,left,6,0,6,j,1,5.209367899999961,None,0,0,0,0,6,0,6,0,1005.4791814999999,,,,,,,,,,,,,,,1005.4677520000005,1005.4791814999999,1005.4791814999999,1005.4791814999999,1006.3854504999999,1010.7023416000002,j,1,5.209367899999961,None,direct,15,[20],1,shifteddirectgaze.png,j,1,1,results26,001,2026-04-20_11h45.55.959,mogelijke versie adaptive staircase builder,,2026.1.3,60.006540713078124,2026-04-20 11h45.56.366936 +0200,
4.5,ecc10pos,left,7,0,7,f,1,3.7568129999999655,None,0,0,0,0,7,0,7,0,1010.8040203,,,,,,,,,,,,,,,1010.7930981,1010.8040203,1010.8040203,1010.8040203,1011.7019735000003,1014.5699795,f,1,3.7568129999999655,None,right,14,[20],1,shiftedgaze_R_14.png,f,1,1,results26,001,2026-04-20_11h45.55.959,mogelijke versie adaptive staircase builder,,2026.1.3,60.006540713078124,2026-04-20 11h45.56.366936 +0200,
4.5,ecc10pos,left,8,0,8,f,1,3.146080299999994,None,0,0,0,0,8,0,8,0,1014.6704890000001,,,,,,,,,,,,,,,1014.6603722999998,1014.6704890000001,1014.6704890000001,1014.6704890000001,1015.585145,1017.8190636999998,f,1,3.146080299999994,None,right,13,[20],1,shiftedgaze_R_13.png,f,1,1,results26,001,2026-04-20_11h45.55.959,mogelijke versie adaptive staircase builder,,2026.1.3,60.006540713078124,2026-04-20 11h45.56.366936 +0200,
4.5,ecc10pos,left,9,0,9,j,0,5.834509599999365,None,0,0,0,0,9,0,9,0,1018.2860313000001,,,,,,,,,,,,,,,1018.2748656000003,1018.2860313000001,1018.2860313000001,1018.2860313000001,1018.8185263000005,1024.1358182000004,j,0,5.834509599999365,None,left,12,"[20, 12]",2,shiftedgaze_L_12.png,j,0,1,results26,001,2026-04-20_11h45.55.959,mogelijke versie adaptive staircase builder,,2026.1.3,60.006540713078124,2026-04-20 11h45.56.366936 +0200,
4.5,ecc10pos,left,10,0,10,j,1,6.523116299999856,None,0,0,0,0,10,0,10,0,1024.2294291999997,,,,,,,,,,,,,,,1024.2192062000004,1024.2294291999997,1024.2294291999997,1024.2294291999997,1025.1351626000005,1030.7688064000004,j,1,6.523116299999856,None,direct,13,"[20, 12, 13]",3,shifteddirectgaze.png,j,1,1,results26,001,2026-04-20_11h45.55.959,mogelijke versie adaptive staircase builder,,2026.1.3,60.006540713078124,2026-04-20 11h45.56.366936 +0200,
4.5,ecc10pos,left,11,0,11,j,0,6.506195999999363,None,0,0,0,0,11,0,11,0,1030.8703008000002,,,,,,,,,,,,,,,1030.8596683000005,1030.8703008000002,1030.8703008000002,1030.8703008000002,1031.7682806000003,1037.3854786000002,j,0,6.506195999999363,None,right,12,"[20, 12, 13, 12]",4,shiftedgaze_R_12.png,j,0,1,results26,001,2026-04-20_11h45.55.959,mogelijke versie adaptive staircase builder,,2026.1.3,60.006540713078124,2026-04-20 11h45.56.366936 +0200,
4.5,ecc10pos,left,12,0,12,f,1,3.2730947000000015,None,0,0,0,0,12,0,12,0,1037.4793795000005,,,,,,,,,,,,,,,1037.4682895000005,1037.4793795000005,1037.4793795000005,1037.4793795000005,1038.3849009000005,1040.7687674,f,1,3.2730947000000015,None,right,13,"[20, 12, 13, 12, 13]",5,shiftedgaze_R_13.png,f,1,1,results26,001,2026-04-20_11h45.55.959,mogelijke versie adaptive staircase builder,,2026.1.3,60.006540713078124,2026-04-20 11h45.56.366936 +0200,
4.5,ecc10pos,left,13,0,13,j,0,7.779807799999617,None,0,0,0,0,13,0,13,0,1040.8608298999998,,,,,,,,,,,,,,,1040.8507318000002,1040.8608298999998,1040.8608298999998,1040.8608298999998,1041.7682482,1048.6519219000002,j,0,7.779807799999617,None,left,12,"[20, 12, 13, 12, 13, 12]",6,shiftedgaze_L_12.png,j,0,1,results26,001,2026-04-20_11h45.55.959,mogelijke versie adaptive staircase builder,,2026.1.3,60.006540713078124,2026-04-20 11h45.56.366936 +0200,
4.5,ecc10pos,left,14,0,14,f,1,3.255334999999832,None,0,0,0,0,14,0,14,0,1048.7535747000002,,,,,,,,,,,,,,,1048.7425774000003,1048.7535747000002,1048.7535747000002,1048.7535747000002,1049.6514468000005,1052.0185868999997,f,1,3.255334999999832,None,left,13,"[20, 12, 13, 12, 13, 12, 13]",7,shiftedgaze_L_13.png,f,1,1,results26,001,2026-04-20_11h45.55.959,mogelijke versie adaptive staircase builder,,2026.1.3,60.006540713078124,2026-04-20 11h45.56.366936 +0200,
4.5,ecc10pos,left,15,0,15,j,0,4.559625200000482,None,0,0,0,0,15,0,15,0,1052.1129167999998,,,,,,,,,,,,,,,1052.1016980000004,1052.1129167999998,1052.1129167999998,1052.1129167999998,1053.0180904,1056.6850989000004,j,0,4.559625200000482,None,right,12,"[20, 12, 13, 12, 13, 12, 13, 12]",8,shiftedgaze_R_12.png,j,0,1,results26,001,2026-04-20_11h45.55.959,mogelijke versie adaptive staircase builder,,2026.1.3,60.006540713078124,2026-04-20 11h45.56.366936 +0200,
4.5,ecc10pos,left,16,0,16,j,0,6.734335799999826,None,0,0,0,0,16,0,16,0,1056.7782765000002,,,,,,,,,,,,,,,1056.7681971000002,1056.7782765000002,1056.7782765000002,1056.7782765000002,1057.6846750000004,1063.5185090000004,j,0,6.734335799999826,None,left,13,"[20, 12, 13, 12, 13, 12, 13, 12]",8,shiftedgaze_L_13.png,j,0,1,results26,001,2026-04-20_11h45.55.959,mogelijke versie adaptive staircase builder,,2026.1.3,60.006540713078124,2026-04-20 11h45.56.366936 +0200,
4.5,ecc10pos,left,17,0,17,f,0,5.955034399999931,None,0,0,0,0,17,0,17,0,1063.6136071,,,,,,,,,,,,,,,1063.6022463,1063.6136071,1063.6136071,1063.6136071,1064.5181506999998,1069.5858524000005,f,0,5.955034399999931,None,direct,14,"[20, 12, 13, 12, 13, 12, 13, 12]",8,shifteddirectgaze.png,f,0,1,results26,001,2026-04-20_11h45.55.959,mogelijke versie adaptive staircase builder,,2026.1.3,60.006540713078124,2026-04-20 11h45.56.366936 +0200,
4.5,ecc10pos,left,18,0,18,f,0,7.529681300000448,None,0,0,0,0,18,0,18,0,1069.6790081,,,,,,,,,,,,,,,1069.6687339999999,1069.6790081,1069.6790081,1069.6790081,1070.6011663999998,1077.2179943,f,0,7.529681300000448,None,direct,15,"[20, 12, 13, 12, 13, 12, 13, 12]",8,shifteddirectgaze.png,f,0,1,results26,001,2026-04-20_11h45.55.959,mogelijke versie adaptive staircase builder,,2026.1.3,60.006540713078124,2026-04-20 11h45.56.366936 +0200,
4.5,ecc10pos,left,19,0,19,j,0,5.459496500000569,None,0,0,0,0,19,0,19,0,1077.3414543999997,,,,,,,,,,,,,,,1077.3293217,1077.3414543999997,1077.3414543999997,1077.3414543999997,1078.2177500999996,1082.8015258000005,j,0,5.459496500000569,None,left,16,"[20, 12, 13, 12, 13, 12, 13, 12]",8,shiftedgaze_L_16.png,j,0,1,results26,001,2026-04-20_11h45.55.959,mogelijke versie adaptive staircase builder,,2026.1.3,60.006540713078124,2026-04-20 11h45.56.366936 +0200,
4.5,ecc10pos,left,20,0,20,f,1,8.638266900000417,None,0,0,0,0,20,0,20,0,1082.9064094000005,,,,,,,,,,,,,,,1082.8945328,1082.9064094000005,1082.9064094000005,1082.9064094000005,1083.8009718000003,1091.5513859000002,f,1,8.638266900000417,None,left,17,"[20, 12, 13, 12, 13, 12, 13, 12, 17]",9,shiftedgaze_L_17.png,f,1,1,results26,001,2026-04-20_11h45.55.959,mogelijke versie adaptive staircase builder,,2026.1.3,60.006540713078124,2026-04-20 11h45.56.366936 +0200,
4.5,ecc10pos,left,21,0,21,f,0,7.36955080000007,None,0,0,0,0,21,0,21,0,1091.6631735,,,,,,,,,,,,,,,1091.6514932999999,1091.6631735,1091.6631735,1091.6631735,1092.5509546000003,1099.0346250000002,f,0,7.36955080000007,None,direct,16,"[20, 12, 13, 12, 13, 12, 13, 12, 17, 16]",10,shifteddirectgaze.png,f,0,1,results26,001,2026-04-20_11h45.55.959,mogelijke versie adaptive staircase builder,,2026.1.3,60.006540713078124,2026-04-20 11h45.56.366936 +0200,
4.5,ecc10pos,left,22,0,22,j,0,4.066432300000088,None,0,0,0,0,22,0,22,0,1099.1501800000005,,,,,,,,,,,,,,,1099.1378354999997,1099.1501800000005,1099.1501800000005,1099.1501800000005,1100.0343518999998,1103.2180398,j,0,4.066432300000088,None,left,17,"[20, 12, 13, 12, 13, 12, 13, 12, 17, 16]",10,shiftedgaze_L_17.png,j,0,1,results26,001,2026-04-20_11h45.55.959,mogelijke versie adaptive staircase builder,,2026.1.3,60.006540713078124,2026-04-20 11h45.56.366936 +0200,
4.5,ecc10pos,left,23,0,23,f,0,5.6988819000007425,None,0,0,0,0,23,0,23,0,1103.3258464,,,,,,,,,,,,,,,1103.3140567,1103.3258464,1103.3258464,1103.3258464,1104.2173973,1109.0352671,f,0,5.6988819000007425,None,direct,18,"[20, 12, 13, 12, 13, 12, 13, 12, 17, 16]",10,shifteddirectgaze.png,f,0,1,results26,001,2026-04-20_11h45.55.959,mogelijke versie adaptive staircase builder,,2026.1.3,60.006540713078124,2026-04-20 11h45.56.366936 +0200,
4.5,ecc10pos,left,24,0,24,j,1,5.713990000000194,None,0,0,0,0,24,0,24,0,1109.1273256000004,,,,,,,,,,,,,,,1109.1164903999997,1109.1273256000004,1109.1273256000004,1109.1273256000004,1110.0339499000002,1114.8511214999999,j,1,5.713990000000194,None,direct,19,"[20, 12, 13, 12, 13, 12, 13, 12, 17, 16, 19]",11,shifteddirectgaze.png,j,1,1,results26,001,2026-04-20_11h45.55.959,mogelijke versie adaptive staircase builder,,2026.1.3,60.006540713078124,2026-04-20 11h45.56.366936 +0200,
4.5,ecc10pos,left,25,0,25,j,1,4.728910400000132,None,0,0,0,0,25,0,25,0,1114.9437581000002,,,,,,,,,,,,,,,1114.9325959999996,1114.9437581000002,1114.9437581000002,1114.9437581000002,1115.8506180000004,1119.6844253999998,j,1,4.728910400000132,None,direct,18,"[20, 12, 13, 12, 13, 12, 13, 12, 17, 16, 19]",11,shifteddirectgaze.png,j,1,1,results26,001,2026-04-20_11h45.55.959,mogelijke versie adaptive staircase builder,,2026.1.3,60.006540713078124,2026-04-20 11h45.56.366936 +0200,
4.5,ecc10pos,left,26,0,26,j,0,5.070884100000512,None,0,0,0,0,26,0,26,0,1119.8017913000003,,,,,,,,,,,,,,,1119.7898028,1119.8017913000003,1119.8017913000003,1119.8017913000003,1120.6838435,1124.8844178,j,0,5.070884100000512,None,left,17,"[20, 12, 13, 12, 13, 12, 13, 12, 17, 16, 19, 17]",12,shiftedgaze_L_17.png,j,0,1,results26,001,2026-04-20_11h45.55.959,mogelijke versie adaptive staircase builder,,2026.1.3,60.006540713078124,2026-04-20 11h45.56.366936 +0200,
4.5,ecc10pos,left,27,0,27,f,0,7.142777500000193,None,0,0,0,0,27,0,27,0,1124.9938123000002,,,,,,,,,,,,,,,1124.9821911,1124.9938123000002,1124.9938123000002,1124.9938123000002,1125.8837522000003,1132.1509299999998,f,0,7.142777500000193,None,direct,18,"[20, 12, 13, 12, 13, 12, 13, 12, 17, 16, 19, 17]",12,shifteddirectgaze.png,f,0,1,results26,001,2026-04-20_11h45.55.959,mogelijke versie adaptive staircase builder,,2026.1.3,60.006540713078124,2026-04-20 11h45.56.366936 +0200,
4.5,ecc10pos,left,28,0,28,f,1,4.0353839999997945,None,0,0,0,0,28,0,28,0,1132.2692835999997,,,,,,,,,,,,,,,1132.2579935000003,1132.2692835999997,1132.2692835999997,1132.2692835999997,1133.1502828000002,1136.3175177000003,f,1,4.0353839999997945,None,left,19,"[20, 12, 13, 12, 13, 12, 13, 12, 17, 16, 19, 17, 19]",13,shiftedgaze_L_19.png,f,1,1,results26,001,2026-04-20_11h45.55.959,mogelijke versie adaptive staircase builder,,2026.1.3,60.006540713078124,2026-04-20 11h45.56.366936 +0200,
4.5,ecc10pos,left,29,0,29,f,1,7.209784099999524,None,0,0,0,0,29,0,29,0,1136.4148470999999,,,,,,,,,,,,,,,1136.4033363999997,1136.4148470999999,1136.4148470999999,1136.4148470999999,1137.3170919000004,1143.6339806000005,f,1,7.209784099999524,None,left,18,"[20, 12, 13, 12, 13, 12, 13, 12, 17, 16, 19, 17, 19]",13,shiftedgaze_L_18.png,f,1,1,results26,001,2026-04-20_11h45.55.959,mogelijke versie adaptive staircase builder,,2026.1.3,60.006540713078124,2026-04-20 11h45.56.366936 +0200,
4.5,ecc10pos,left,30,0,30,j,0,6.292542700000013,None,0,0,0,0,30,0,30,0,1143.7321185,,,,,,,,,,,,,,,1143.7211188,1143.7321185,1143.7321185,1143.7321185,1144.6337312000005,1150.0340668,j,0,6.292542700000013,None,left,17,"[20, 12, 13, 12, 13, 12, 13, 12, 17, 16, 19, 17, 19, 17]",14,shiftedgaze_L_17.png,j,0,1,results26,001,2026-04-20_11h45.55.959,mogelijke versie adaptive staircase builder,,2026.1.3,60.006540713078124,2026-04-20 11h45.56.366936 +0200,
4.5,ecc10pos,left,31,0,31,j,1,4.66487589999997,None,0,0,0,0,31,0,31,0,1150.1436966,,,,,,,,,,,,,,,1150.1332285999997,1150.1436966,1150.1436966,1150.1436966,1151.0336112000005,1154.8170673000004,j,1,4.66487589999997,None,direct,18,"[20, 12, 13, 12, 13, 12, 13, 12, 17, 16, 19, 17, 19, 17, 18]",15,shifteddirectgaze.png,j,1,1,results26,001,2026-04-20_11h45.55.959,mogelijke versie adaptive staircase builder,,2026.1.3,60.006540713078124,2026-04-20 11h45.56.366936 +0200,
4.5,ecc10pos,left,32,0,32,f,0,6.802561900000001,None,0,0,0,0,32,0,32,0,1154.9101155999997,,,,,,,,,,,,,,,1154.8992122999998,1154.9101155999997,1154.9101155999997,1154.9101155999997,1155.8167254,1161.7171096000002,f,0,6.802561900000001,None,direct,17,"[20, 12, 13, 12, 13, 12, 13, 12, 17, 16, 19, 17, 19, 17, 18, 17]",16,shifteddirectgaze.png,f,0,1,results26,001,2026-04-20_11h45.55.959,mogelijke versie adaptive staircase builder,,2026.1.3,60.006540713078124,2026-04-20 11h45.56.366936 +0200,
4.5,ecc10pos,left,33,0,33,j,0,2.494620699999359,None,0,0,0,0,33,0,33,0,1161.8099594000005,,,,,,,,,,,,,,,1161.7993941000004,1161.8099594000005,1161.8099594000005,1161.8099594000005,1162.7166015000003,1164.3170026999996,j,0,2.494620699999359,None,right,18,"[20, 12, 13, 12, 13, 12, 13, 12, 17, 16, 19, 17, 19, 17, 18, 17]",16,shiftedgaze_R_18.png,j,0,1,results26,001,2026-04-20_11h45.55.959,mogelijke versie adaptive staircase builder,,2026.1.3,60.006540713078124,2026-04-20 11h45.56.366936 +0200,
4.5,ecc10pos,left,34,0,34,j,0,5.9910939000001235,None,0,0,0,0,34,0,34,0,1164.4335522000001,,,,,,,,,,,,,,,1164.4217385000002,1164.4335522000001,1164.4335522000001,1164.4335522000001,1165.3166124,1170.4338359000003,j,0,5.9910939000001235,None,left,19,"[20, 12, 13, 12, 13, 12, 13, 12, 17, 16, 19, 17, 19, 17, 18, 17]",16,shiftedgaze_L_19.png,j,0,1,results26,001,2026-04-20_11h45.55.959,mogelijke versie adaptive staircase builder,,2026.1.3,60.006540713078124,2026-04-20 11h45.56.366936 +0200,
4.5,ecc10pos,left,35,0,35,j,1,3.922767600000043,None,0,0,0,0,35,0,35,0,1170.5738587000005,,,,,,,,,,,,,,,1170.5609556,1170.5738587000005,1170.5738587000005,1170.5738587000005,1171.4335819999997,1174.5001256000005,j,1,3.922767600000043,None,direct,20,"[20, 12, 13, 12, 13, 12, 13, 12, 17, 16, 19, 17, 19, 17, 18, 17, 20]",17,shifteddirectgaze.png,j,1,1,results26,001,2026-04-20_11h45.55.959,mogelijke versie adaptive staircase builder,,2026.1.3,60.006540713078124,2026-04-20 11h45.56.366936 +0200,
4.5,ecc10pos,left,36,0,36,j,0,4.71357480000006,None,0,0,0,0,36,0,36,0,1174.6070379000003,,,,,,,,,,,,,,,1174.5970869000002,1174.6070379000003,1174.6070379000003,1174.6070379000003,1175.499777,1179.3335158999998,j,0,4.71357480000006,None,right,19,"[20, 12, 13, 12, 13, 12, 13, 12, 17, 16, 19, 17, 19, 17, 18, 17, 20, 19]",18,shiftedgaze_R_19.png,j,0,1,results26,001,2026-04-20_11h45.55.959,mogelijke versie adaptive staircase builder,,2026.1.3,60.006540713078124,2026-04-20 11h45.56.366936 +0200,
4.5,ecc10pos,left,37,0,37,f,1,3.167047900000398,None,0,0,0,0,37,0,37,0,1179.4576384000002,,,,,,,,,,,,,,,1179.4465749,1179.4576384000002,1179.4576384000002,1179.4576384000002,1180.3329914000005,1182.6335503,f,1,3.167047900000398,None,left,20,"[20, 12, 13, 12, 13, 12, 13, 12, 17, 16, 19, 17, 19, 17, 18, 17, 20, 19, 20]",19,shiftedgaze_L_20.png,f,1,1,results26,001,2026-04-20_11h45.55.959,mogelijke versie adaptive staircase builder,,2026.1.3,60.006540713078124,2026-04-20 11h45.56.366936 +0200,
4.5,ecc10pos,left,38,0,38,f,1,7.539143399999375,None,0,0,0,0,38,0,38,0,1182.7495037999997,,,,,,,,,,,,,,,1182.7381971000004,1182.7495037999997,1182.7495037999997,1182.7495037999997,1183.6332357000001,1190.3000825999998,f,1,7.539143399999375,None,right,19,"[20, 12, 13, 12, 13, 12, 13, 12, 17, 16, 19, 17, 19, 17, 18, 17, 20, 19, 20]",19,shiftedgaze_R_19.png,f,1,1,results26,001,2026-04-20_11h45.55.959,mogelijke versie adaptive staircase builder,,2026.1.3,60.006540713078124,2026-04-20 11h45.56.366936 +0200,
4.5,ecc10pos,left,39,0,39,j,1,8.202169899999717,None,0,0,0,0,39,0,39,0,1190.4066432999998,,,,,,,,,,,,,,,1190.3953600000004,1190.4066432999998,1190.4066432999998,1190.4066432999998,1191.2995970000002,1198.6166260999998,j,1,8.202169899999717,None,direct,18,"[20, 12, 13, 12, 13, 12, 13, 12, 17, 16, 19, 17, 19, 17, 18, 17, 20, 19, 20]",19,shifteddirectgaze.png,j,1,1,results26,001,2026-04-20_11h45.55.959,mogelijke versie adaptive staircase builder,,2026.1.3,60.006540713078124,2026-04-20 11h45.56.366936 +0200,
4.5,ecc10pos,left,40,0,40,f,0,6.516755999999987,None,0,0,0,0,40,0,40,0,1198.7162488000004,,,,,,,,,,,,,,,1198.7056638000004,1198.7162488000004,1198.7162488000004,1198.7162488000004,1199.6161348000005,1205.2495860999998,f,0,6.516755999999987,None,direct,17,"[20, 12, 13, 12, 13, 12, 13, 12, 17, 16, 19, 17, 19, 17, 18, 17, 20, 19, 20, 17]",20,shifteddirectgaze.png,f,0,1,results26,001,2026-04-20_11h45.55.959,mogelijke versie adaptive staircase builder,,2026.1.3,60.006540713078124,2026-04-20 11h45.56.366936 +0200,
4.5,ecc10pos,left,41,0,41,f,1,7.9531897999995635,None,0,0,0,0,41,0,41,0,1205.3755292000005,,,,,,,,,,,,,,,1205.3642565999999,1205.3755292000005,1205.3755292000005,1205.3755292000005,1206.2493408999999,1213.3330772999998,f,1,7.9531897999995635,None,left,18,"[20, 12, 13, 12, 13, 12, 13, 12, 17, 16, 19, 17, 19, 17, 18, 17, 20, 19, 20, 17, 18]",21,shiftedgaze_L_18.png,f,1,1,results26,001,2026-04-20_11h45.55.959,mogelijke versie adaptive staircase builder,,2026.1.3,60.006540713078124,2026-04-20 11h45.56.366936 +0200,
4.5,ecc10pos,left,42,0,42,f,1,8.13033009999981,None,0,0,0,0,42,0,42,0,1213.4385026,,,,,,,,,,,,,,,1213.4266115,1213.4385026,1213.4385026,1213.4385026,1214.3326588,1221.5839987999998,f,1,8.13033009999981,None,left,17,"[20, 12, 13, 12, 13, 12, 13, 12, 17, 16, 19, 17, 19, 17, 18, 17, 20, 19, 20, 17, 18]",21,shiftedgaze_L_17.png,f,1,1,results26,001,2026-04-20_11h45.55.959,mogelijke versie adaptive staircase builder,,2026.1.3,60.006540713078124,2026-04-20 11h45.56.366936 +0200,
4.5,ecc10pos,left,43,0,43,j,1,5.516066299999693,None,0,0,0,0,43,0,43,0,1221.7007648999997,,,,,,,,,,,,,,,1221.6897826000004,1221.7007648999997,1221.7007648999997,1221.7007648999997,1222.5992543000002,1227.2331562,j,1,5.516066299999693,None,direct,16,"[20, 12, 13, 12, 13, 12, 13, 12, 17, 16, 19, 17, 19, 17, 18, 17, 20, 19, 20, 17, 18]",21,shifteddirectgaze.png,j,1,1,results26,001,2026-04-20_11h45.55.959,mogelijke versie adaptive staircase builder,,2026.1.3,60.006540713078124,2026-04-20 11h45.56.366936 +0200,
4.5,ecc10pos,left,44,0,44,j,0,3.989530000000741,None,0,0,0,0,44,0,44,0,1227.3471749,,,,,,,,,,,,,,,1227.3367024,1227.3471749,1227.3471749,1227.3471749,1228.2325093,1231.3494117999999,j,0,3.989530000000741,None,left,15,"[20, 12, 13, 12, 13, 12, 13, 12, 17, 16, 19, 17, 19, 17, 18, 17, 20, 19, 20, 17, 18, 15]",22,shiftedgaze_L_15.png,j,0,1,results26,001,2026-04-20_11h45.55.959,mogelijke versie adaptive staircase builder,,2026.1.3,60.006540713078124,2026-04-20 11h45.56.366936 +0200,
4.5,ecc10pos,left,45,0,45,f,0,5.72920780000004,None,0,0,0,0,45,0,45,0,1231.4555351,,,,,,,,,,,,,,,1231.4458173000003,1231.4555351,1231.4555351,1231.4555351,1232.3490404000004,1237.1992799999998,f,0,5.72920780000004,None,direct,16,"[20, 12, 13, 12, 13, 12, 13, 12, 17, 16, 19, 17, 19, 17, 18, 17, 20, 19, 20, 17, 18, 15]",22,shifteddirectgaze.png,f,0,1,results26,001,2026-04-20_11h45.55.959,mogelijke versie adaptive staircase builder,,2026.1.3,60.006540713078124,2026-04-20 11h45.56.366936 +0200,
4.5,ecc10pos,left,46,0,46,f,1,6.911472400000093,None,0,0,0,0,46,0,46,0,1237.3214593000002,,,,,,,,,,,,,,,1237.3093461999997,1237.3214593000002,1237.3214593000002,1237.3214593000002,1238.1989019000002,1244.2493555,f,1,6.911472400000093,None,left,17,"[20, 12, 13, 12, 13, 12, 13, 12, 17, 16, 19, 17, 19, 17, 18, 17, 20, 19, 20, 17, 18, 15, 17]",23,shiftedgaze_L_17.png,f,1,1,results26,001,2026-04-20_11h45.55.959,mogelijke versie adaptive staircase builder,,2026.1.3,60.006540713078124,2026-04-20 11h45.56.366936 +0200,
4.5,ecc10pos,left,47,0,47,j,1,3.0847433000008095,None,0,0,0,0,47,0,47,0,1244.3641079999998,,,,,,,,,,,,,,,1244.3526988000003,1244.3641079999998,1244.3641079999998,1244.3641079999998,1245.2488464999997,1247.465959,j,1,3.0847433000008095,None,direct,16,"[20, 12, 13, 12, 13, 12, 13, 12, 17, 16, 19, 17, 19, 17, 18, 17, 20, 19, 20, 17, 18, 15, 17]",23,shifteddirectgaze.png,j,1,1,results26,001,2026-04-20_11h45.55.959,mogelijke versie adaptive staircase builder,,2026.1.3,60.006540713078124,2026-04-20 11h45.56.366936 +0200,
4.5,ecc10pos,left,48,0,48,j,0,8.768108100000063,None,0,0,0,0,48,0,48,0,1247.9212763000005,,,,,,,,,,,,,,,1247.9102338000002,1247.9212763000005,1247.9212763000005,1247.9212763000005,1248.4655377,1256.6991288999998,j,0,8.768108100000063,None,right,15,"[20, 12, 13, 12, 13, 12, 13, 12, 17, 16, 19, 17, 19, 17, 18, 17, 20, 19, 20, 17, 18, 15, 17, 15]",24,shiftedgaze_R_15.png,j,0,1,results26,001,2026-04-20_11h45.55.959,mogelijke versie adaptive staircase builder,,2026.1.3,60.006540713078124,2026-04-20 11h45.56.366936 +0200,
4.5,ecc10pos,left,49,0,49,f,0,3.5568584000002375,None,0,0,0,0,49,0,49,0,1256.7958023,,,,,,,,,,,,,,,1256.7847413,1256.7958023,1256.7958023,1256.7958023,1257.6991162000004,1260.3657543,f,0,3.5568584000002375,None,direct,16,"[20, 12, 13, 12, 13, 12, 13, 12, 17, 16, 19, 17, 19, 17, 18, 17, 20, 19, 20, 17, 18, 15, 17, 15]",24,shifteddirectgaze.png,f,0,1,results26,001,2026-04-20_11h45.55.959,mogelijke versie adaptive staircase builder,,2026.1.3,60.006540713078124,2026-04-20 11h45.56.366936 +0200,
4.5,ecc10pos,left,50,0,50,f,1,4.369658000000527,None,0,0,0,0,50,0,50,0,1260.4710797999996,,,,,,,,,,,,,,,1260.457918,1260.4710797999996,1260.4710797999996,1260.4710797999996,1261.3653348999997,1264.8490434000005,f,1,4.369658000000527,None,right,17,"[20, 12, 13, 12, 13, 12, 13, 12, 17, 16, 19, 17, 19, 17, 18, 17, 20, 19, 20, 17, 18, 15, 17, 15, 17]",25,shiftedgaze_R_17.png,f,1,1,results26,001,2026-04-20_11h45.55.959,mogelijke versie adaptive staircase builder,,2026.1.3,60.006540713078124,2026-04-20 11h45.56.366936 +0200,
4.5,ecc10pos,left,51,0,51,f,1,6.018234199999824,None,0,0,0,0,51,0,51,0,1264.9504637999999,,,,,,,,,,,,,,,1264.9400869,1264.9504637999999,1264.9504637999999,1264.9504637999999,1265.8485896000002,1270.9821989000002,f,1,6.018234199999824,None,right,16,"[20, 12, 13, 12, 13, 12, 13, 12, 17, 16, 19, 17, 19, 17, 18, 17, 20, 19, 20, 17, 18, 15, 17, 15, 17]",25,shiftedgaze_R_16.png,f,1,1,results26,001,2026-04-20_11h45.55.959,mogelijke versie adaptive staircase builder,,2026.1.3,60.006540713078124,2026-04-20 11h45.56.366936 +0200,
4.5,ecc10pos,left,52,0,52,f,0,3.6840336000004754,None,0,0,0,0,52,0,52,0,1271.0847174,,,,,,,,,,,,,,,1271.0738140000003,1271.0847174,1271.0847174,1271.0847174,1271.9819230000003,1274.7823111999996,f,0,3.6840336000004754,None,direct,15,"[20, 12, 13, 12, 13, 12, 13, 12, 17, 16, 19, 17, 19, 17, 18, 17, 20, 19, 20, 17, 18, 15, 17, 15, 17, 15]",26,shifteddirectgaze.png,f,0,1,results26,001,2026-04-20_11h45.55.959,mogelijke versie adaptive staircase builder,,2026.1.3,60.006540713078124,2026-04-20 11h45.56.366936 +0200,
4.5,ecc10pos,left,53,0,53,j,0,2.7187505000001693,None,0,0,0,0,53,0,53,0,1274.9139832,,,,,,,,,,,,,,,1274.9022470999998,1274.9139832,1274.9139832,1274.9139832,1275.7818151000001,1277.648905,j,0,2.7187505000001693,None,left,16,"[20, 12, 13, 12, 13, 12, 13, 12, 17, 16, 19, 17, 19, 17, 18, 17, 20, 19, 20, 17, 18, 15, 17, 15, 17, 15]",26,shiftedgaze_L_16.png,j,0,1,results26,001,2026-04-20_11h45.55.959,mogelijke versie adaptive staircase builder,,2026.1.3,60.006540713078124,2026-04-20 11h45.56.366936 +0200,
4.5,ecc10pos,left,54,0,54,f,0,4.588078499999938,None,0,0,0,0,54,0,54,0,1277.7647112000004,,,,,,,,,,,,,,,1277.7540078000002,1277.7647112000004,1277.7647112000004,1277.7647112000004,1278.6483838000004,1282.3655158000001,f,0,4.588078499999938,None,direct,17,"[20, 12, 13, 12, 13, 12, 13, 12, 17, 16, 19, 17, 19, 17, 18, 17, 20, 19, 20, 17, 18, 15, 17, 15, 17, 15]",26,shifteddirectgaze.png,f,0,1,results26,001,2026-04-20_11h45.55.959,mogelijke versie adaptive staircase builder,,2026.1.3,60.006540713078124,2026-04-20 11h45.56.366936 +0200,
4.5,ecc10pos,left,55,0,55,f,0,3.292555199999697,None,0,0,0,0,55,0,55,0,1282.4602068000004,,,,,,,,,,,,,,,1282.4494928000004,1282.4602068000004,1282.4602068000004,1282.4602068000004,1283.3650653000004,1285.7654389999998,f,0,3.292555199999697,None,direct,18,"[20, 12, 13, 12, 13, 12, 13, 12, 17, 16, 19, 17, 19, 17, 18, 17, 20, 19, 20, 17, 18, 15, 17, 15, 17, 15]",26,shifteddirectgaze.png,f,0,1,results26,001,2026-04-20_11h45.55.959,mogelijke versie adaptive staircase builder,,2026.1.3,60.006540713078124,2026-04-20 11h45.56.366936 +0200,
4.5,ecc10pos,left,56,0,56,j,0,2.2753961999997045,None,0,0,0,0,56,0,56,0,1285.8773788999997,,,,,,,,,,,,,,,1285.8674142,1285.8773788999997,1285.8773788999997,1285.8773788999997,1286.7649954999997,1288.1655701999998,j,0,2.2753961999997045,None,right,19,"[20, 12, 13, 12, 13, 12, 13, 12, 17, 16, 19, 17, 19, 17, 18, 17, 20, 19, 20, 17, 18, 15, 17, 15, 17, 15]",26,shiftedgaze_R_19.png,j,0,1,results26,001,2026-04-20_11h45.55.959,mogelijke versie adaptive staircase builder,,2026.1.3,60.006540713078124,2026-04-20 11h45.56.366936 +0200,
4.5,ecc10pos,left,57,0,57,j,1,5.401399399999718,None,0,0,0,0,57,0,57,0,1288.2713409999997,,,,,,,,,,,,,,,1288.2604118,1288.2713409999997,1288.2713409999997,1288.2713409999997,1289.1649783000003,1293.6819403,j,1,5.401399399999718,None,direct,20,"[20, 12, 13, 12, 13, 12, 13, 12, 17, 16, 19, 17, 19, 17, 18, 17, 20, 19, 20, 17, 18, 15, 17, 15, 17, 15, 20]",27,shifteddirectgaze.png,j,1,1,results26,001,2026-04-20_11h45.55.959,mogelijke versie adaptive staircase builder,,2026.1.3,60.006540713078124,2026-04-20 11h45.56.366936 +0200,
4.5,ecc10pos,left,58,0,58,f,0,3.059715700000197,None,0,0,0,0,58,0,58,0,1293.7809852999999,,,,,,,,,,,,,,,1293.7686223,1293.7809852999999,1293.7809852999999,1293.7809852999999,1294.6815644999997,1296.8485327999997,f,0,3.059715700000197,None,direct,19,"[20, 12, 13, 12, 13, 12, 13, 12, 17, 16, 19, 17, 19, 17, 18, 17, 20, 19, 20, 17, 18, 15, 17, 15, 17, 15, 20, 19]",28,shifteddirectgaze.png,f,0,1,results26,001,2026-04-20_11h45.55.959,mogelijke versie adaptive staircase builder,,2026.1.3,60.006540713078124,2026-04-20 11h45.56.366936 +0200,
4.5,ecc10pos,left,59,0,59,f,0,3.5272702000002027,None,0,0,0,0,59,0,59,0,1296.9454210000004,,,,,,,,,,,,,,,1296.9350407000002,1296.9454210000004,1296.9454210000004,1296.9454210000004,1297.8481995000002,1300.4817932000005,f,0,3.5272702000002027,None,direct,20,"[20, 12, 13, 12, 13, 12, 13, 12, 17, 16, 19, 17, 19, 17, 18, 17, 20, 19, 20, 17, 18, 15, 17, 15, 17, 15, 20, 19]",28,shifteddirectgaze.png,f,0,1,results26,001,2026-04-20_11h45.55.959,mogelijke versie adaptive staircase builder,,2026.1.3,60.006540713078124,2026-04-20 11h45.56.366936 +0200,
4.5,ecc10pos,left,0,0,0,,,,,0,0,0,0,,,,,,,,,,,,,,,,,,,,,,,,,,,,,,,,,,,,,,results26,001,2026-04-20_11h45.55.959,mogelijke versie adaptive staircase builder,,2026.1.3,60.006540713078124,2026-04-20 11h45.56.366936 +0200,
12.5,ecc0,mid,0,0,0,j,1,3.2685071000005337,None,0,1,1,1,0,0,0,0,1300.6042370000005,,,,,,,,,,,,,1300.5033780000003,1300.5035306999998,1300.5930883,1300.6042370000005,1301.5148197999997,1300.6042370000005,1300.6042370000005,1303.8821184999997,j,1,3.2685071000005337,None,direct,20,[],0,direct_gaze.png,j,1,2,results26,001,2026-04-20_11h45.55.959,mogelijke versie adaptive staircase builder,,2026.1.3,60.006540713078124,2026-04-20 11h45.56.366936 +0200,
12.5,ecc0,mid,1,0,1,j,0,3.3973494000001665,None,0,1,1,1,1,0,1,0,1303.9874152000002,,,,,,,,,,,,,,,1303.9758103000004,1303.9874152000002,1304.8813676999998,1303.9874152000002,1303.9874152000002,1307.3984394999998,j,0,3.3973494000001665,None,right,19,[19],1,gaze_R_19.png,j,0,2,results26,001,2026-04-20_11h45.55.959,mogelijke versie adaptive staircase builder,,2026.1.3,60.006540713078124,2026-04-20 11h45.56.366936 +0200,
12.5,ecc0,mid,2,0,2,f,1,2.739901599999939,None,0,1,1,1,2,0,2,0,1307.5009271999998,,,,,,,,,,,,,,,1307.4899800000003,1307.5009271999998,1308.3980816000003,1307.5009271999998,1307.5009271999998,1310.2484279999999,f,1,2.739901599999939,None,left,20,"[19, 20]",2,gaze_L_20.png,f,1,2,results26,001,2026-04-20_11h45.55.959,mogelijke versie adaptive staircase builder,,2026.1.3,60.006540713078124,2026-04-20 11h45.56.366936 +0200,
12.5,ecc0,mid,3,0,3,j,0,3.2484601999994993,None,0,1,1,1,3,0,3,0,1310.34425,,,,,,,,,,,,,,,1310.3332197999998,1310.34425,1311.2480130000004,1310.34425,1310.34425,1313.59847,j,0,3.2484601999994993,None,right,19,"[19, 20, 19]",3,gaze_R_19.png,j,0,2,results26,001,2026-04-20_11h45.55.959,mogelijke versie adaptive staircase builder,,2026.1.3,60.006540713078124,2026-04-20 11h45.56.366936 +0200,
12.5,ecc0,mid,4,0,4,f,1,4.363321400000132,None,0,1,1,1,4,0,4,0,1313.6934198,,,,,,,,,,,,,,,1313.6835096000004,1313.6934198,1314.5979689000005,1313.6934198,1313.6934198,1318.0650944999998,f,1,4.363321400000132,None,left,20,"[19, 20, 19, 20]",4,gaze_L_20.png,f,1,2,results26,001,2026-04-20_11h45.55.959,mogelijke versie adaptive staircase builder,,2026.1.3,60.006540713078124,2026-04-20 11h45.56.366936 +0200,
12.5,ecc0,mid,5,0,5,j,0,2.3282007999996495,None,0,1,1,1,5,0,5,0,1318.1605356999999,,,,,,,,,,,,,,,1318.1495193,1318.1605356999999,1319.0653072000005,1318.1605356999999,1318.1605356999999,1320.4982449999998,j,0,2.3282007999996495,None,right,19,"[19, 20, 19, 20, 19]",5,gaze_R_19.png,j,0,2,results26,001,2026-04-20_11h45.55.959,mogelijke versie adaptive staircase builder,,2026.1.3,60.006540713078124,2026-04-20 11h45.56.366936 +0200,
12.5,ecc0,mid,6,0,6,j,1,2.7030822999995507,None,0,1,1,1,6,0,6,0,1320.5936890000003,,,,,,,,,,,,,,,1320.5823423000002,1320.5936890000003,1321.4977546,1320.5936890000003,1320.5936890000003,1323.298347,j,1,2.7030822999995507,None,direct,20,"[19, 20, 19, 20, 19, 20]",6,direct_gaze.png,j,1,2,results26,001,2026-04-20_11h45.55.959,mogelijke versie adaptive staircase builder,,2026.1.3,60.006540713078124,2026-04-20 11h45.56.366936 +0200,
12.5,ecc0,mid,7,0,7,f,1,1.9679009999999835,None,0,1,1,1,7,0,7,0,1323.3928649,,,,,,,,,,,,,,,1323.3828260999999,1323.3928649,1324.2978635999998,1323.3928649,1323.3928649,1325.3648883000005,f,1,1.9679009999999835,None,right,19,"[19, 20, 19, 20, 19, 20]",6,gaze_R_19.png,f,1,2,results26,001,2026-04-20_11h45.55.959,mogelijke versie adaptive staircase builder,,2026.1.3,60.006540713078124,2026-04-20 11h45.56.366936 +0200,
12.5,ecc0,mid,8,0,8,f,0,4.209659300000567,None,0,1,1,1,8,0,8,0,1325.463127,,,,,,,,,,,,,,,1325.4520921000003,1325.463127,1326.3644176999996,1325.463127,1325.463127,1329.6815084,f,0,4.209659300000567,None,direct,18,"[19, 20, 19, 20, 19, 20, 18]",7,direct_gaze.png,f,0,2,results26,001,2026-04-20_11h45.55.959,mogelijke versie adaptive staircase builder,,2026.1.3,60.006540713078124,2026-04-20 11h45.56.366936 +0200,
12.5,ecc0,mid,9,0,9,j,0,3.366776199999549,None,0,1,1,1,9,0,9,0,1329.7860271999998,,,,,,,,,,,,,,,1329.7749233000004,1329.7860271999998,1330.6812345999997,1329.7860271999998,1329.7860271999998,1333.1655053000004,j,0,3.366776199999549,None,left,19,"[19, 20, 19, 20, 19, 20, 18]",7,gaze_L_19.png,j,0,2,results26,001,2026-04-20_11h45.55.959,mogelijke versie adaptive staircase builder,,2026.1.3,60.006540713078124,2026-04-20 11h45.56.366936 +0200,
12.5,ecc0,mid,10,0,10,f,1,4.524394899999606,None,0,1,1,1,10,0,10,0,1333.2683557999999,,,,,,,,,,,,,,,1333.2580660000003,1333.2683557999999,1334.1813499999998,1333.2683557999999,1333.2683557999999,1337.7979887000001,f,1,4.524394899999606,None,right,20,"[19, 20, 19, 20, 19, 20, 18, 20]",8,gaze_R_20.png,f,1,2,results26,001,2026-04-20_11h45.55.959,mogelijke versie adaptive staircase builder,,2026.1.3,60.006540713078124,2026-04-20 11h45.56.366936 +0200,
12.5,ecc0,mid,11,0,11,f,0,3.1310133000006317,None,0,1,1,1,11,0,11,0,1337.8937359000001,,,,,,,,,,,,,,,1337.8820465,1337.8937359000001,1338.7975443000005,1337.8937359000001,1337.8937359000001,1341.0312155000001,f,0,3.1310133000006317,None,direct,19,"[19, 20, 19, 20, 19, 20, 18, 20, 19]",9,direct_gaze.png,f,0,2,results26,001,2026-04-20_11h45.55.959,mogelijke versie adaptive staircase builder,,2026.1.3,60.006540713078124,2026-04-20 11h45.56.366936 +0200,
12.5,ecc0,mid,12,0,12,j,0,2.4192282000003615,None,0,1,1,1,12,0,12,0,1341.1256285,,,,,,,,,,,,,,,1341.1153117000003,1341.1256285,1342.0310092999998,1341.1256285,1341.1256285,1343.5479991000002,j,0,2.4192282000003615,None,right,20,"[19, 20, 19, 20, 19, 20, 18, 20, 19]",9,gaze_R_20.png,j,0,2,results26,001,2026-04-20_11h45.55.959,mogelijke versie adaptive staircase builder,,2026.1.3,60.006540713078124,2026-04-20 11h45.56.366936 +0200,
12.5,ecc0,mid,13,0,13,j,1,4.16581479999968,None,0,1,1,1,13,0,13,0,1343.6429101000003,,,,,,,,,,,,,,,1343.631727,1343.6429101000003,1344.5475853999997,1343.6429101000003,1343.6429101000003,1347.8144895000005,j,1,4.16581479999968,None,direct,20,"[19, 20, 19, 20, 19, 20, 18, 20, 19, 20]",10,direct_gaze.png,j,1,2,results26,001,2026-04-20_11h45.55.959,mogelijke versie adaptive staircase builder,,2026.1.3,60.006540713078124,2026-04-20 11h45.56.366936 +0200,
12.5,ecc0,mid,14,0,14,f,1,2.3289388999992298,None,0,1,1,1,14,0,14,0,1347.9118545000001,,,,,,,,,,,,,,,1347.9006249000004,1347.9118545000001,1348.8141112000003,1347.9118545000001,1347.9118545000001,1350.2479247,f,1,2.3289388999992298,None,right,19,"[19, 20, 19, 20, 19, 20, 18, 20, 19, 20]",10,gaze_R_19.png,f,1,2,results26,001,2026-04-20_11h45.55.959,mogelijke versie adaptive staircase builder,,2026.1.3,60.006540713078124,2026-04-20 11h45.56.366936 +0200,
12.5,ecc0,mid,15,0,15,f,0,5.241785400000481,None,0,1,1,1,15,0,15,0,1350.3429764000002,,,,,,,,,,,,,,,1350.3328737000002,1350.3429764000002,1351.2474985999997,1350.3429764000002,1350.3429764000002,1355.5977376,f,0,5.241785400000481,None,direct,18,"[19, 20, 19, 20, 19, 20, 18, 20, 19, 20, 18]",11,direct_gaze.png,f,0,2,results26,001,2026-04-20_11h45.55.959,mogelijke versie adaptive staircase builder,,2026.1.3,60.006540713078124,2026-04-20 11h45.56.366936 +0200,
12.5,ecc0,mid,16,0,16,j,0,2.659878999999819,None,0,1,1,1,16,0,16,0,1355.6930918999997,,,,,,,,,,,,,,,1355.6822875999997,1355.6930918999997,1356.5972935999998,1355.6930918999997,1355.6930918999997,1358.3644047999996,j,0,2.659878999999819,None,right,19,"[19, 20, 19, 20, 19, 20, 18, 20, 19, 20, 18]",11,gaze_R_19.png,j,0,2,results26,001,2026-04-20_11h45.55.959,mogelijke versie adaptive staircase builder,,2026.1.3,60.006540713078124,2026-04-20 11h45.56.366936 +0200,
12.5,ecc0,mid,17,0,17,j,0,2.4517697999999655,None,0,1,1,1,17,0,17,0,1358.4609357,,,,,,,,,,,,,,,1358.4503314000003,1358.4609357,1359.3640060999996,1358.4609357,1358.4609357,1360.9144951999997,j,0,2.4517697999999655,None,left,20,"[19, 20, 19, 20, 19, 20, 18, 20, 19, 20, 18]",11,gaze_L_20.png,j,0,2,results26,001,2026-04-20_11h45.55.959,mogelijke versie adaptive staircase builder,,2026.1.3,60.006540713078124,2026-04-20 11h45.56.366936 +0200,
12.5,ecc0,mid,18,0,18,j,0,3.9105024000000412,None,0,1,1,1,18,0,18,0,1361.0103867999997,,,,,,,,,,,,,,,1360.9997934000003,1361.0103867999997,1361.9139088000002,1361.0103867999997,1361.0103867999997,1364.9308271999998,j,0,3.9105024000000412,None,left,20,"[19, 20, 19, 20, 19, 20, 18, 20, 19, 20, 18]",11,gaze_L_20.png,j,0,2,results26,001,2026-04-20_11h45.55.959,mogelijke versie adaptive staircase builder,,2026.1.3,60.006540713078124,2026-04-20 11h45.56.366936 +0200,
12.5,ecc0,mid,19,0,19,j,0,5.860898800000541,None,0,1,1,1,19,0,19,0,1365.027857,,,,,,,,,,,,,,,1365.0165027000003,1365.027857,1365.9306555000003,1365.027857,1365.027857,1370.8975665999997,j,0,5.860898800000541,None,left,20,"[19, 20, 19, 20, 19, 20, 18, 20, 19, 20, 18]",11,gaze_L_20.png,j,0,2,results26,001,2026-04-20_11h45.55.959,mogelijke versie adaptive staircase builder,,2026.1.3,60.006540713078124,2026-04-20 11h45.56.366936 +0200,
12.5,ecc0,mid,20,0,20,f,1,2.526676999999836,None,0,1,1,1,20,0,20,0,1370.9942943000005,,,,,,,,,,,,,,,1370.9840857999998,1370.9942943000005,1371.8971877000004,1370.9942943000005,1370.9942943000005,1373.5308797999996,f,1,2.526676999999836,None,left,20,"[19, 20, 19, 20, 19, 20, 18, 20, 19, 20, 18, 20]",12,gaze_L_20.png,f,1,2,results26,001,2026-04-20_11h45.55.959,mogelijke versie adaptive staircase builder,,2026.1.3,60.006540713078124,2026-04-20 11h45.56.366936 +0200,
12.5,ecc0,mid,21,0,21,f,1,5.862298699999883,None,0,1,1,1,21,0,21,0,1373.6266339000003,,,,,,,,,,,,,,,1373.6159571999997,1373.6266339000003,1374.530581,1373.6266339000003,1373.6266339000003,1379.4976718999997,f,1,5.862298699999883,None,right,19,"[19, 20, 19, 20, 19, 20, 18, 20, 19, 20, 18, 20]",12,gaze_R_19.png,f,1,2,results26,001,2026-04-20_11h45.55.959,mogelijke versie adaptive staircase builder,,2026.1.3,60.006540713078124,2026-04-20 11h45.56.366936 +0200,
12.5,ecc0,mid,22,0,22,j,1,5.6736995999999635,None,0,1,1,1,22,0,22,0,1379.6150771000002,,,,,,,,,,,,,,,1379.6035419,1379.6150771000002,1380.5136579,1379.6150771000002,1379.6150771000002,1385.2974202000005,j,1,5.6736995999999635,None,direct,18,"[19, 20, 19, 20, 19, 20, 18, 20, 19, 20, 18, 20]",12,direct_gaze.png,j,1,2,results26,001,2026-04-20_11h45.55.959,mogelijke versie adaptive staircase builder,,2026.1.3,60.006540713078124,2026-04-20 11h45.56.366936 +0200,
12.5,ecc0,mid,23,0,23,f,0,4.894829399999253,None,0,1,1,1,23,0,23,0,1385.3939928,,,,,,,,,,,,,,,1385.3839370000005,1385.3939928,1386.2969322,1385.3939928,1385.3939928,1390.2973060000004,f,0,4.894829399999253,None,direct,17,"[19, 20, 19, 20, 19, 20, 18, 20, 19, 20, 18, 20, 17]",13,direct_gaze.png,f,0,2,results26,001,2026-04-20_11h45.55.959,mogelijke versie adaptive staircase builder,,2026.1.3,60.006540713078124,2026-04-20 11h45.56.366936 +0200,
12.5,ecc0,mid,24,0,24,j,0,2.901849300000322,None,0,1,1,1,24,0,24,0,1390.4029707,,,,,,,,,,,,,,,1390.3922510000002,1390.4029707,1391.2972748000002,1390.4029707,1390.4029707,1393.3139939000002,j,0,2.901849300000322,None,left,18,"[19, 20, 19, 20, 19, 20, 18, 20, 19, 20, 18, 20, 17]",13,gaze_L_18.png,j,0,2,results26,001,2026-04-20_11h45.55.959,mogelijke versie adaptive staircase builder,,2026.1.3,60.006540713078124,2026-04-20 11h45.56.366936 +0200,
12.5,ecc0,mid,25,0,25,j,0,3.230003399999987,None,0,1,1,1,25,0,25,0,1393.4108094000003,,,,,,,,,,,,,,,1393.4000261,1393.4108094000003,1394.3134980000004,1393.4108094000003,1393.4108094000003,1396.6472162999999,j,0,3.230003399999987,None,left,19,"[19, 20, 19, 20, 19, 20, 18, 20, 19, 20, 18, 20, 17]",13,gaze_L_19.png,j,0,2,results26,001,2026-04-20_11h45.55.959,mogelijke versie adaptive staircase builder,,2026.1.3,60.006540713078124,2026-04-20 11h45.56.366936 +0200,
12.5,ecc0,mid,26,0,26,j,1,3.0819202000002406,None,0,1,1,1,26,0,26,0,1396.742894,,,,,,,,,,,,,,,1396.7328296000005,1396.742894,1397.6467862999998,1396.742894,1396.742894,1399.8305797000003,j,1,3.0819202000002406,None,direct,20,"[19, 20, 19, 20, 19, 20, 18, 20, 19, 20, 18, 20, 17, 20]",14,direct_gaze.png,j,1,2,results26,001,2026-04-20_11h45.55.959,mogelijke versie adaptive staircase builder,,2026.1.3,60.006540713078124,2026-04-20 11h45.56.366936 +0200,
12.5,ecc0,mid,27,0,27,f,1,4.073386299999584,None,0,1,1,1,27,0,27,0,1399.9273928000002,,,,,,,,,,,,,,,1399.9163810999999,1399.9273928000002,1400.8303131000002,1399.9273928000002,1399.9273928000002,1404.0138060999998,f,1,4.073386299999584,None,left,19,"[19, 20, 19, 20, 19, 20, 18, 20, 19, 20, 18, 20, 17, 20]",14,gaze_L_19.png,f,1,2,results26,001,2026-04-20_11h45.55.959,mogelijke versie adaptive staircase builder,,2026.1.3,60.006540713078124,2026-04-20 11h45.56.366936 +0200,
12.5,ecc0,mid,28,0,28,f,0,4.730835000000297,None,0,1,1,1,28,0,28,0,1404.1099826999998,,,,,,,,,,,,,,,1404.0994717000003,1404.1099826999998,1405.0132954,1404.1099826999998,1404.1099826999998,1408.8470803,f,0,4.730835000000297,None,direct,18,"[19, 20, 19, 20, 19, 20, 18, 20, 19, 20, 18, 20, 17, 20, 18]",15,direct_gaze.png,f,0,2,results26,001,2026-04-20_11h45.55.959,mogelijke versie adaptive staircase builder,,2026.1.3,60.006540713078124,2026-04-20 11h45.56.366936 +0200,
12.5,ecc0,mid,29,0,29,j,0,2.4092185000008612,None,0,1,1,1,29,0,29,0,1408.9435949999997,,,,,,,,,,,,,,,1408.9323572000003,1408.9435949999997,1409.8466859999999,1408.9435949999997,1408.9435949999997,1411.3637090000002,j,0,2.4092185000008612,None,left,19,"[19, 20, 19, 20, 19, 20, 18, 20, 19, 20, 18, 20, 17, 20, 18]",15,gaze_L_19.png,j,0,2,results26,001,2026-04-20_11h45.55.959,mogelijke versie adaptive staircase builder,,2026.1.3,60.006540713078124,2026-04-20 11h45.56.366936 +0200,
12.5,ecc0,mid,30,0,30,j,0,6.2934949999998935,None,0,1,1,1,30,0,30,0,1411.4601144999997,,,,,,,,,,,,,,,1411.4494498000004,1411.4601144999997,1412.3634074000001,1411.4601144999997,1411.4601144999997,1417.7636258000002,j,0,6.2934949999998935,None,left,20,"[19, 20, 19, 20, 19, 20, 18, 20, 19, 20, 18, 20, 17, 20, 18]",15,gaze_L_20.png,j,0,2,results26,001,2026-04-20_11h45.55.959,mogelijke versie adaptive staircase builder,,2026.1.3,60.006540713078124,2026-04-20 11h45.56.366936 +0200,
12.5,ecc0,mid,31,0,31,j,0,4.196641499999714,None,0,1,1,1,31,0,31,0,1417.8601847,,,,,,,,,,,,,,,1417.8498424999998,1417.8601847,1418.7632018000004,1417.8601847,1417.8601847,1422.0635410000004,j,0,4.196641499999714,None,right,20,"[19, 20, 19, 20, 19, 20, 18, 20, 19, 20, 18, 20, 17, 20, 18]",15,gaze_R_20.png,j,0,2,results26,001,2026-04-20_11h45.55.959,mogelijke versie adaptive staircase builder,,2026.1.3,60.006540713078124,2026-04-20 11h45.56.366936 +0200,
12.5,ecc0,mid,32,0,32,f,0,2.0418458999993163,None,0,1,1,1,32,0,32,0,1422.1591194000002,,,,,,,,,,,,,,,1422.1487317,1422.1591194000002,1423.0630862999997,1422.1591194000002,1422.1591194000002,1424.2135496,f,0,2.0418458999993163,None,direct,20,"[19, 20, 19, 20, 19, 20, 18, 20, 19, 20, 18, 20, 17, 20, 18]",15,direct_gaze.png,f,0,2,results26,001,2026-04-20_11h45.55.959,mogelijke versie adaptive staircase builder,,2026.1.3,60.006540713078124,2026-04-20 11h45.56.366936 +0200,
12.5,ecc0,mid,33,0,33,j,1,2.7391781999995146,None,0,1,1,1,33,0,33,0,1424.3096686999997,,,,,,,,,,,,,,,1424.2993231,1424.3096686999997,1425.2130594999999,1424.3096686999997,1424.3096686999997,1427.0633897999996,j,1,2.7391781999995146,None,direct,20,"[19, 20, 19, 20, 19, 20, 18, 20, 19, 20, 18, 20, 17, 20, 18, 20]",16,direct_gaze.png,j,1,2,results26,001,2026-04-20_11h45.55.959,mogelijke versie adaptive staircase builder,,2026.1.3,60.006540713078124,2026-04-20 11h45.56.366936 +0200,
12.5,ecc0,mid,34,0,34,f,0,3.4889718000003995,None,0,1,1,1,34,0,34,0,1427.1598782,,,,,,,,,,,,,,,1427.1494714,1427.1598782,1428.0630331000002,1427.1598782,1427.1598782,1430.6634429000005,f,0,3.4889718000003995,None,direct,19,"[19, 20, 19, 20, 19, 20, 18, 20, 19, 20, 18, 20, 17, 20, 18, 20, 19]",17,direct_gaze.png,f,0,2,results26,001,2026-04-20_11h45.55.959,mogelijke versie adaptive staircase builder,,2026.1.3,60.006540713078124,2026-04-20 11h45.56.366936 +0200,
12.5,ecc0,mid,35,0,35,j,0,2.4724332000005234,None,0,1,1,1,35,0,35,0,1430.7604663000002,,,,,,,,,,,,,,,1430.7497561,1430.7604663000002,1431.6629734999997,1430.7604663000002,1430.7604663000002,1433.2467490999998,j,0,2.4724332000005234,None,left,20,"[19, 20, 19, 20, 19, 20, 18, 20, 19, 20, 18, 20, 17, 20, 18, 20, 19]",17,gaze_L_20.png,j,0,2,results26,001,2026-04-20_11h45.55.959,mogelijke versie adaptive staircase builder,,2026.1.3,60.006540713078124,2026-04-20 11h45.56.366936 +0200,
12.5,ecc0,mid,36,0,36,j,0,2.6258749999997235,None,0,1,1,1,36,0,36,0,1433.3350661000004,,,,,,,,,,,,,,,1433.3241037999996,1433.3350661000004,1434.2463618000002,1433.3350661000004,1433.3350661000004,1435.9633030000005,j,0,2.6258749999997235,None,left,20,"[19, 20, 19, 20, 19, 20, 18, 20, 19, 20, 18, 20, 17, 20, 18, 20, 19]",17,gaze_L_20.png,j,0,2,results26,001,2026-04-20_11h45.55.959,mogelijke versie adaptive staircase builder,,2026.1.3,60.006540713078124,2026-04-20 11h45.56.366936 +0200,
12.5,ecc0,mid,37,0,37,j,0,4.10109089999969,None,0,1,1,1,37,0,37,0,1436.0524108,,,,,,,,,,,,,,,1436.0418232000002,1436.0524108,1436.9637706000003,1436.0524108,1436.0524108,1440.1632445000005,j,0,4.10109089999969,None,left,20,"[19, 20, 19, 20, 19, 20, 18, 20, 19, 20, 18, 20, 17, 20, 18, 20, 19]",17,gaze_L_20.png,j,0,2,results26,001,2026-04-20_11h45.55.959,mogelijke versie adaptive staircase builder,,2026.1.3,60.006540713078124,2026-04-20 11h45.56.366936 +0200,
12.5,ecc0,mid,38,0,38,f,1,2.1233579999998256,None,0,1,1,1,38,0,38,0,1440.2534727000002,,,,,,,,,,,,,,,1440.2419004000003,1440.2534727000002,1441.1628797000003,1440.2534727000002,1440.2534727000002,1442.3799909,f,1,2.1233579999998256,None,right,20,"[19, 20, 19, 20, 19, 20, 18, 20, 19, 20, 18, 20, 17, 20, 18, 20, 19, 20]",18,gaze_R_20.png,f,1,2,results26,001,2026-04-20_11h45.55.959,mogelijke versie adaptive staircase builder,,2026.1.3,60.006540713078124,2026-04-20 11h45.56.366936 +0200,
12.5,ecc0,mid,39,0,39,j,0,5.796114700000544,None,0,1,1,1,39,0,39,0,1442.4686775999999,,,,,,,,,,,,,,,1442.4584309000002,1442.4686775999999,1443.3795424999998,1442.4686775999999,1442.4686775999999,1448.2798094,j,0,5.796114700000544,None,right,19,"[19, 20, 19, 20, 19, 20, 18, 20, 19, 20, 18, 20, 17, 20, 18, 20, 19, 20, 19]",19,gaze_R_19.png,j,0,2,results26,001,2026-04-20_11h45.55.959,mogelijke versie adaptive staircase builder,,2026.1.3,60.006540713078124,2026-04-20 11h45.56.366936 +0200,
12.5,ecc0,mid,40,0,40,j,0,2.4211119000001418,None,0,1,1,1,40,0,40,0,1448.3717235000004,,,,,,,,,,,,,,,1448.3605309000004,1448.3717235000004,1449.2794669000004,1448.3717235000004,1448.3717235000004,1450.7964313000002,j,0,2.4211119000001418,None,right,20,"[19, 20, 19, 20, 19, 20, 18, 20, 19, 20, 18, 20, 17, 20, 18, 20, 19, 20, 19]",19,gaze_R_20.png,j,0,2,results26,001,2026-04-20_11h45.55.959,mogelijke versie adaptive staircase builder,,2026.1.3,60.006540713078124,2026-04-20 11h45.56.366936 +0200,
12.5,ecc0,mid,41,0,41,f,0,3.498991499999647,None,0,1,1,1,41,0,41,0,1450.8857876000002,,,,,,,,,,,,,,,1450.8746959999999,1450.8857876000002,1451.7960933000004,1450.8857876000002,1450.8857876000002,1454.3964219999998,f,0,3.498991499999647,None,direct,20,"[19, 20, 19, 20, 19, 20, 18, 20, 19, 20, 18, 20, 17, 20, 18, 20, 19, 20, 19]",19,direct_gaze.png,f,0,2,results26,001,2026-04-20_11h45.55.959,mogelijke versie adaptive staircase builder,,2026.1.3,60.006540713078124,2026-04-20 11h45.56.366936 +0200,
12.5,ecc0,mid,42,0,42,j,1,3.922918100000061,None,0,1,1,1,42,0,42,0,1454.4862242,,,,,,,,,,,,,,,1454.4755696000002,1454.4862242,1455.3959744000003,1454.4862242,1454.4862242,1458.4131035,j,1,3.922918100000061,None,direct,20,"[19, 20, 19, 20, 19, 20, 18, 20, 19, 20, 18, 20, 17, 20, 18, 20, 19, 20, 19, 20]",20,direct_gaze.png,j,1,2,results26,001,2026-04-20_11h45.55.959,mogelijke versie adaptive staircase builder,,2026.1.3,60.006540713078124,2026-04-20 11h45.56.366936 +0200,
12.5,ecc0,mid,43,0,43,f,0,2.5754471000000194,None,0,1,1,1,43,0,43,0,1458.5054460000001,,,,,,,,,,,,,,,1458.4941749,1458.5054460000001,1459.4126341,1458.5054460000001,1458.5054460000001,1461.0963160000001,f,0,2.5754471000000194,None,direct,19,"[19, 20, 19, 20, 19, 20, 18, 20, 19, 20, 18, 20, 17, 20, 18, 20, 19, 20, 19, 20, 19]",21,direct_gaze.png,f,0,2,results26,001,2026-04-20_11h45.55.959,mogelijke versie adaptive staircase builder,,2026.1.3,60.006540713078124,2026-04-20 11h45.56.366936 +0200,
12.5,ecc0,mid,44,0,44,f,1,2.9440881000000445,None,0,1,1,1,44,0,44,0,1461.1848896000001,,,,,,,,,,,,,,,1461.174008,1461.1848896000001,1462.096246,1461.1848896000001,1461.1848896000001,1464.1295411,f,1,2.9440881000000445,None,right,20,"[19, 20, 19, 20, 19, 20, 18, 20, 19, 20, 18, 20, 17, 20, 18, 20, 19, 20, 19, 20, 19, 20]",22,gaze_R_20.png,f,1,2,results26,001,2026-04-20_11h45.55.959,mogelijke versie adaptive staircase builder,,2026.1.3,60.006540713078124,2026-04-20 11h45.56.366936 +0200,
12.5,ecc0,mid,45,0,45,j,1,1.9416700000001583,None,0,1,1,1,45,0,45,0,1464.2193038000005,,,,,,,,,,,,,,,1464.2080112000003,1464.2193038000005,1465.1294073,1464.2193038000005,1464.2193038000005,1466.1631018999997,j,1,1.9416700000001583,None,direct,19,"[19, 20, 19, 20, 19, 20, 18, 20, 19, 20, 18, 20, 17, 20, 18, 20, 19, 20, 19, 20, 19, 20]",22,direct_gaze.png,j,1,2,results26,001,2026-04-20_11h45.55.959,mogelijke versie adaptive staircase builder,,2026.1.3,60.006540713078124,2026-04-20 11h45.56.366936 +0200,
12.5,ecc0,mid,46,0,46,j,1,2.1149131000001944,None,0,1,1,1,46,0,46,0,1466.2547954000001,,,,,,,,,,,,,,,1466.2430466000005,1466.2547954000001,1467.1624855999999,1466.2547954000001,1466.2547954000001,1468.3796450999998,j,1,2.1149131000001944,None,direct,18,"[19, 20, 19, 20, 19, 20, 18, 20, 19, 20, 18, 20, 17, 20, 18, 20, 19, 20, 19, 20, 19, 20]",22,direct_gaze.png,j,1,2,results26,001,2026-04-20_11h45.55.959,mogelijke versie adaptive staircase builder,,2026.1.3,60.006540713078124,2026-04-20 11h45.56.366936 +0200,
12.5,ecc0,mid,47,0,47,f,1,2.360487899999498,None,0,1,1,1,47,0,47,0,1468.4803989000002,,,,,,,,,,,,,,,1468.4686191,1468.4803989000002,1469.3791615,1468.4803989000002,1468.4803989000002,1470.8467455,f,1,2.360487899999498,None,left,17,"[19, 20, 19, 20, 19, 20, 18, 20, 19, 20, 18, 20, 17, 20, 18, 20, 19, 20, 19, 20, 19, 20]",22,gaze_L_17.png,f,1,2,results26,001,2026-04-20_11h45.55.959,mogelijke versie adaptive staircase builder,,2026.1.3,60.006540713078124,2026-04-20 11h45.56.366936 +0200,
12.5,ecc0,mid,48,0,48,j,0,4.489490699999806,None,0,1,1,1,48,0,48,0,1470.9434443999999,,,,,,,,,,,,,,,1470.9321657,1470.9434443999999,1471.8624099999997,1470.9434443999999,1470.9434443999999,1475.4461626000002,j,0,4.489490699999806,None,right,16,"[19, 20, 19, 20, 19, 20, 18, 20, 19, 20, 18, 20, 17, 20, 18, 20, 19, 20, 19, 20, 19, 20, 16]",23,gaze_R_16.png,j,0,2,results26,001,2026-04-20_11h45.55.959,mogelijke versie adaptive staircase builder,,2026.1.3,60.006540713078124,2026-04-20 11h45.56.366936 +0200,
12.5,ecc0,mid,49,0,49,f,1,3.8403695000006337,None,0,1,1,1,49,0,49,0,1475.5448102999999,,,,,,,,,,,,,,,1475.5338171000003,1475.5448102999999,1476.4457834000004,1475.5448102999999,1475.5448102999999,1479.3961099999997,f,1,3.8403695000006337,None,right,17,"[19, 20, 19, 20, 19, 20, 18, 20, 19, 20, 18, 20, 17, 20, 18, 20, 19, 20, 19, 20, 19, 20, 16, 17]",24,gaze_R_17.png,f,1,2,results26,001,2026-04-20_11h45.55.959,mogelijke versie adaptive staircase builder,,2026.1.3,60.006540713078124,2026-04-20 11h45.56.366936 +0200,
12.5,ecc0,mid,50,0,50,j,0,2.2023816000000807,None,0,1,1,1,50,0,50,0,1479.4945091999998,,,,,,,,,,,,,,,1479.4840649999996,1479.4945091999998,1480.3956441999999,1479.4945091999998,1479.4945091999998,1481.7128321,j,0,2.2023816000000807,None,left,16,"[19, 20, 19, 20, 19, 20, 18, 20, 19, 20, 18, 20, 17, 20, 18, 20, 19, 20, 19, 20, 19, 20, 16, 17, 16]",25,gaze_L_16.png,j,0,2,results26,001,2026-04-20_11h45.55.959,mogelijke versie adaptive staircase builder,,2026.1.3,60.006540713078124,2026-04-20 11h45.56.366936 +0200,
12.5,ecc0,mid,51,0,51,f,1,5.572325699999965,None,0,1,1,1,51,0,51,0,1481.8046089,,,,,,,,,,,,,,,1481.7933841000004,1481.8046089,1482.7124560000002,1481.8046089,1481.8046089,1487.3792148000002,f,1,5.572325699999965,None,left,17,"[19, 20, 19, 20, 19, 20, 18, 20, 19, 20, 18, 20, 17, 20, 18, 20, 19, 20, 19, 20, 19, 20, 16, 17, 16, 17]",26,gaze_L_17.png,f,1,2,results26,001,2026-04-20_11h45.55.959,mogelijke versie adaptive staircase builder,,2026.1.3,60.006540713078124,2026-04-20 11h45.56.366936 +0200,
12.5,ecc0,mid,52,0,52,f,0,3.2505621000000247,None,0,1,1,1,52,0,52,0,1487.4702727000004,,,,,,,,,,,,,,,1487.4597736000005,1487.4702727000004,1488.3788892000002,1487.4702727000004,1487.4702727000004,1490.7292087000005,f,0,3.2505621000000247,None,direct,16,"[19, 20, 19, 20, 19, 20, 18, 20, 19, 20, 18, 20, 17, 20, 18, 20, 19, 20, 19, 20, 19, 20, 16, 17, 16, 17, 16]",27,direct_gaze.png,f,0,2,results26,001,2026-04-20_11h45.55.959,mogelijke versie adaptive staircase builder,,2026.1.3,60.006540713078124,2026-04-20 11h45.56.366936 +0200,
12.5,ecc0,mid,53,0,53,j,1,2.185997199999292,None,0,1,1,1,53,0,53,0,1490.8227945999997,,,,,,,,,,,,,,,1490.8120131000005,1490.8227945999997,1491.7289276000001,1490.8227945999997,1490.8227945999997,1493.0124852999998,j,1,2.185997199999292,None,direct,17,"[19, 20, 19, 20, 19, 20, 18, 20, 19, 20, 18, 20, 17, 20, 18, 20, 19, 20, 19, 20, 19, 20, 16, 17, 16, 17, 16, 17]",28,direct_gaze.png,j,1,2,results26,001,2026-04-20_11h45.55.959,mogelijke versie adaptive staircase builder,,2026.1.3,60.006540713078124,2026-04-20 11h45.56.366936 +0200,
12.5,ecc0,mid,54,0,54,f,0,3.2788940999998886,None,0,1,1,1,54,0,54,0,1493.1062041000005,,,,,,,,,,,,,,,1493.0947272000003,1493.1062041000005,1494.0120828999998,1493.1062041000005,1493.1062041000005,1496.3958687000004,f,0,3.2788940999998886,None,direct,16,"[19, 20, 19, 20, 19, 20, 18, 20, 19, 20, 18, 20, 17, 20, 18, 20, 19, 20, 19, 20, 19, 20, 16, 17, 16, 17, 16, 17, 16]",29,direct_gaze.png,f,0,2,results26,001,2026-04-20_11h45.55.959,mogelijke versie adaptive staircase builder,,2026.1.3,60.006540713078124,2026-04-20 11h45.56.366936 +0200,
12.5,ecc0,mid,55,0,55,f,0,3.0233471000001373,None,0,1,1,1,55,0,55,0,1496.4894965000003,,,,,,,,,,,,,,,1496.4791987999997,1496.4894965000003,1497.3955054999997,1496.4894965000003,1496.4894965000003,1499.5293410000004,f,0,3.0233471000001373,None,direct,17,"[19, 20, 19, 20, 19, 20, 18, 20, 19, 20, 18, 20, 17, 20, 18, 20, 19, 20, 19, 20, 19, 20, 16, 17, 16, 17, 16, 17, 16]",29,direct_gaze.png,f,0,2,results26,001,2026-04-20_11h45.55.959,mogelijke versie adaptive staircase builder,,2026.1.3,60.006540713078124,2026-04-20 11h45.56.366936 +0200,
12.5,ecc0,mid,56,0,56,j,1,3.8496907999997347,None,0,1,1,1,56,0,56,0,1499.6232161999997,,,,,,,,,,,,,,,1499.6123939999998,1499.6232161999997,1500.5288159000002,1499.6232161999997,1499.6232161999997,1503.4791379999997,j,1,3.8496907999997347,None,direct,18,"[19, 20, 19, 20, 19, 20, 18, 20, 19, 20, 18, 20, 17, 20, 18, 20, 19, 20, 19, 20, 19, 20, 16, 17, 16, 17, 16, 17, 16, 18]",30,direct_gaze.png,j,1,2,results26,001,2026-04-20_11h45.55.959,mogelijke versie adaptive staircase builder,,2026.1.3,60.006540713078124,2026-04-20 11h45.56.366936 +0200,
12.5,ecc0,mid,57,0,57,j,0,2.9949224000001777,None,0,1,1,1,57,0,57,0,1503.5743510000002,,,,,,,,,,,,,,,1503.5640887999998,1503.5743510000002,1504.4786421999997,1503.5743510000002,1503.5743510000002,1506.5790877,j,0,2.9949224000001777,None,left,17,"[19, 20, 19, 20, 19, 20, 18, 20, 19, 20, 18, 20, 17, 20, 18, 20, 19, 20, 19, 20, 19, 20, 16, 17, 16, 17, 16, 17, 16, 18, 17]",31,gaze_L_17.png,j,0,2,results26,001,2026-04-20_11h45.55.959,mogelijke versie adaptive staircase builder,,2026.1.3,60.006540713078124,2026-04-20 11h45.56.366936 +0200,
12.5,ecc0,mid,58,0,58,f,1,3.4479352000007566,None,0,1,1,1,58,0,58,0,1506.6728979999998,,,,,,,,,,,,,,,1506.6619605000005,1506.6728979999998,1507.5787034000004,1506.6728979999998,1506.6728979999998,1510.1289549000003,f,1,3.4479352000007566,None,left,18,"[19, 20, 19, 20, 19, 20, 18, 20, 19, 20, 18, 20, 17, 20, 18, 20, 19, 20, 19, 20, 19, 20, 16, 17, 16, 17, 16, 17, 16, 18, 17, 18]",32,gaze_L_18.png,f,1,2,results26,001,2026-04-20_11h45.55.959,mogelijke versie adaptive staircase builder,,2026.1.3,60.006540713078124,2026-04-20 11h45.56.366936 +0200,
12.5,ecc0,mid,59,0,59,f,0,4.520435800000087,None,0,1,1,1,59,0,59,0,1510.2245113,,,,,,,,,,,,,,,1510.2130324,1510.2245113,1511.1285819000004,1510.2245113,1510.2245113,1514.7457916000003,f,0,4.520435800000087,None,direct,17,"[19, 20, 19, 20, 19, 20, 18, 20, 19, 20, 18, 20, 17, 20, 18, 20, 19, 20, 19, 20, 19, 20, 16, 17, 16, 17, 16, 17, 16, 18, 17, 18, 17]",33,direct_gaze.png,f,0,2,results26,001,2026-04-20_11h45.55.959,mogelijke versie adaptive staircase builder,,2026.1.3,60.006540713078124,2026-04-20 11h45.56.366936 +0200,
12.5,ecc0,mid,1,1,0,,,,,0,1,1,1,,,,,,,,,,,,,,,,,,,,,,,,,,,,,,,,,,,,,,results26,001,2026-04-20_11h45.55.959,mogelijke versie adaptive staircase builder,,2026.1.3,60.006540713078124,2026-04-20 11h45.56.366936 +0200,
20.5,ecc10neg,right,0,0,0,f,1,4.514732599999661,None,0,2,2,2,0,0,0,0,1514.8862043,,,,,,,,,,,,,1514.7485370000004,1514.7485775000005,1514.8740975,1514.8862043,1514.8862043,1515.7619799000004,1514.8862043,1519.4121772999997,f,1,4.514732599999661,None,right,20,[],0,shiftedgaze_R_20.png,f,1,3,results26,001,2026-04-20_11h45.55.959,mogelijke versie adaptive staircase builder,,2026.1.3,60.006540713078124,2026-04-20 11h45.56.366936 +0200,
20.5,ecc10neg,right,1,0,1,j,0,1.9340305999994598,None,0,2,2,2,1,0,1,0,1519.5309138000002,,,,,,,,,,,,,,,1519.5196854000005,1519.5309138000002,1519.5309138000002,1520.4118894000003,1519.5309138000002,1521.4787471999998,j,0,1.9340305999994598,None,left,19,[19],1,shiftedgaze_L_19.png,j,0,3,results26,001,2026-04-20_11h45.55.959,mogelijke versie adaptive staircase builder,,2026.1.3,60.006540713078124,2026-04-20 11h45.56.366936 +0200,
20.5,ecc10neg,right,2,0,2,f,1,2.42130459999953,None,0,2,2,2,2,0,2,0,1521.5955654,,,,,,,,,,,,,,,1521.5842382,1521.5955654,1521.5955654,1522.4785254999997,1521.5955654,1524.0287189,f,1,2.42130459999953,None,right,20,"[19, 20]",2,shiftedgaze_R_20.png,f,1,3,results26,001,2026-04-20_11h45.55.959,mogelijke versie adaptive staircase builder,,2026.1.3,60.006540713078124,2026-04-20 11h45.56.366936 +0200,
20.5,ecc10neg,right,3,0,3,j,0,1.868493099999796,None,0,2,2,2,3,0,3,0,1524.1403237000004,,,,,,,,,,,,,,,1524.1291864000004,1524.1403237000004,1524.1403237000004,1525.0283490000002,1524.1403237000004,1526.0119990000003,j,0,1.868493099999796,None,left,19,"[19, 20, 19]",3,shiftedgaze_L_19.png,j,0,3,results26,001,2026-04-20_11h45.55.959,mogelijke versie adaptive staircase builder,,2026.1.3,60.006540713078124,2026-04-20 11h45.56.366936 +0200,
20.5,ecc10neg,right,4,0,4,f,1,1.8326888999999937,None,0,2,2,2,4,0,4,0,1526.1282923999997,,,,,,,,,,,,,,,1526.1166395999999,1526.1282923999997,1526.1282923999997,1527.0117368,1526.1282923999997,1527.9619645000002,f,1,1.8326888999999937,None,right,20,"[19, 20, 19, 20]",4,shiftedgaze_R_20.png,f,1,3,results26,001,2026-04-20_11h45.55.959,mogelijke versie adaptive staircase builder,,2026.1.3,60.006540713078124,2026-04-20 11h45.56.366936 +0200,
20.5,ecc10neg,right,5,0,5,f,1,2.6036975999995775,None,0,2,2,2,5,0,5,0,1528.069262,,,,,,,,,,,,,,,1528.0582679,1528.069262,1528.069262,1528.9616317999999,1528.069262,1530.678554,f,1,2.6036975999995775,None,right,19,"[19, 20, 19, 20]",4,shiftedgaze_R_19.png,f,1,3,results26,001,2026-04-20_11h45.55.959,mogelijke versie adaptive staircase builder,,2026.1.3,60.006540713078124,2026-04-20 11h45.56.366936 +0200,
20.5,ecc10neg,right,6,0,6,j,1,2.531989899999644,None,0,2,2,2,6,0,6,0,1530.7969444,,,,,,,,,,,,,,,1530.7854233999997,1530.7969444,1530.7969444,1531.6783809999997,1530.7969444,1533.3457184999997,j,1,2.531989899999644,None,direct,18,"[19, 20, 19, 20]",4,shifteddirectgaze.png,j,1,3,results26,001,2026-04-20_11h45.55.959,mogelijke versie adaptive staircase builder,,2026.1.3,60.006540713078124,2026-04-20 11h45.56.366936 +0200,
20.5,ecc10neg,right,7,0,7,j,1,2.7618655000005674,None,0,2,2,2,7,0,7,0,1533.4399303,,,,,,,,,,,,,,,1533.4266436999997,1533.4399303,1533.4399303,1534.3615975000002,1533.4399303,1536.2119985,j,1,2.7618655000005674,None,direct,17,"[19, 20, 19, 20]",4,shifteddirectgaze.png,j,1,3,results26,001,2026-04-20_11h45.55.959,mogelijke versie adaptive staircase builder,,2026.1.3,60.006540713078124,2026-04-20 11h45.56.366936 +0200,
20.5,ecc10neg,right,8,0,8,f,1,3.0378749000001335,None,0,2,2,2,8,0,8,0,1536.3391733999997,,,,,,,,,,,,,,,1536.3279187999997,1536.3391733999997,1536.3391733999997,1537.211848,1536.3391733999997,1539.3784801000002,f,1,3.0378749000001335,None,right,16,"[19, 20, 19, 20]",4,shiftedgaze_R_16.png,f,1,3,results26,001,2026-04-20_11h45.55.959,mogelijke versie adaptive staircase builder,,2026.1.3,60.006540713078124,2026-04-20 11h45.56.366936 +0200,
20.5,ecc10neg,right,9,0,9,f,1,3.475760000000264,None,0,2,2,2,9,0,9,0,1539.5013061,,,,,,,,,,,,,,,1539.4903303,1539.5013061,1539.5013061,1540.3781701999997,1539.5013061,1542.9784216999997,f,1,3.475760000000264,None,right,15,"[19, 20, 19, 20]",4,shiftedgaze_R_15.png,f,1,3,results26,001,2026-04-20_11h45.55.959,mogelijke versie adaptive staircase builder,,2026.1.3,60.006540713078124,2026-04-20 11h45.56.366936 +0200,
20.5,ecc10neg,right,10,0,10,f,1,3.801771700000245,None,0,2,2,2,10,0,10,0,1543.0791705000001,,,,,,,,,,,,,,,1543.0682527999998,1543.0791705000001,1543.0791705000001,1543.9782056000004,1543.0791705000001,1546.8951342999999,f,1,3.801771700000245,None,left,14,"[19, 20, 19, 20]",4,shiftedgaze_L_14.png,f,1,3,results26,001,2026-04-20_11h45.55.959,mogelijke versie adaptive staircase builder,,2026.1.3,60.006540713078124,2026-04-20 11h45.56.366936 +0200,
20.5,ecc10neg,right,11,0,11,f,0,2.2033492999999,None,0,2,2,2,11,0,11,0,1546.9896497,,,,,,,,,,,,,,,1546.9789171000002,1546.9896497,1546.9896497,1547.8947239,1546.9896497,1549.1950882,f,0,2.2033492999999,None,direct,13,"[19, 20, 19, 20, 13]",5,shifteddirectgaze.png,f,0,3,results26,001,2026-04-20_11h45.55.959,mogelijke versie adaptive staircase builder,,2026.1.3,60.006540713078124,2026-04-20 11h45.56.366936 +0200,
20.5,ecc10neg,right,12,0,12,j,0,1.7835909999994328,None,0,2,2,2,12,0,12,0,1549.2893286999997,,,,,,,,,,,,,,,1549.2781733000002,1549.2893286999997,1549.2893286999997,1550.1947932000003,1549.2893286999997,1551.0784019000002,j,0,1.7835909999994328,None,left,14,"[19, 20, 19, 20, 13]",5,shiftedgaze_L_14.png,j,0,3,results26,001,2026-04-20_11h45.55.959,mogelijke versie adaptive staircase builder,,2026.1.3,60.006540713078124,2026-04-20 11h45.56.366936 +0200,
20.5,ecc10neg,right,13,0,13,j,0,2.211526999999478,None,0,2,2,2,13,0,13,0,1551.1814909000004,,,,,,,,,,,,,,,1551.1707469000003,1551.1814909000004,1551.1814909000004,1552.0781297000003,1551.1814909000004,1553.3949822000004,j,0,2.211526999999478,None,left,15,"[19, 20, 19, 20, 13]",5,shiftedgaze_L_15.png,j,0,3,results26,001,2026-04-20_11h45.55.959,mogelijke versie adaptive staircase builder,,2026.1.3,60.006540713078124,2026-04-20 11h45.56.366936 +0200,
20.5,ecc10neg,right,14,0,14,f,1,1.8068574000008084,None,0,2,2,2,14,0,14,0,1553.5140982000003,,,,,,,,,,,,,,,1553.5003357000005,1553.5140982000003,1553.5140982000003,1554.3947168000004,1553.5140982000003,1555.3284120999997,f,1,1.8068574000008084,None,right,16,"[19, 20, 19, 20, 13, 16]",6,shiftedgaze_R_16.png,f,1,3,results26,001,2026-04-20_11h45.55.959,mogelijke versie adaptive staircase builder,,2026.1.3,60.006540713078124,2026-04-20 11h45.56.366936 +0200,
20.5,ecc10neg,right,15,0,15,f,0,2.5345751000004384,None,0,2,2,2,15,0,15,0,1555.4424182000002,,,,,,,,,,,,,,,1555.4313069,1555.4424182000002,1555.4424182000002,1556.3280643999997,1555.4424182000002,1557.9786976000005,f,0,2.5345751000004384,None,direct,15,"[19, 20, 19, 20, 13, 16, 15]",7,shifteddirectgaze.png,f,0,3,results26,001,2026-04-20_11h45.55.959,mogelijke versie adaptive staircase builder,,2026.1.3,60.006540713078124,2026-04-20 11h45.56.366936 +0200,
20.5,ecc10neg,right,16,0,16,f,1,2.252478599999449,None,0,2,2,2,16,0,16,0,1558.1004506999998,,,,,,,,,,,,,,,1558.0881377000005,1558.1004506999998,1558.1004506999998,1558.9781202000004,1558.1004506999998,1560.361712,f,1,2.252478599999449,None,right,16,"[19, 20, 19, 20, 13, 16, 15, 16]",8,shiftedgaze_R_16.png,f,1,3,results26,001,2026-04-20_11h45.55.959,mogelijke versie adaptive staircase builder,,2026.1.3,60.006540713078124,2026-04-20 11h45.56.366936 +0200,
20.5,ecc10neg,right,17,0,17,f,1,3.254672400000345,None,0,2,2,2,17,0,17,0,1560.4742395000003,,,,,,,,,,,,,,,1560.4628217999998,1560.4742395000003,1560.4742395000003,1561.3614349999998,1560.4742395000003,1563.7292404,f,1,3.254672400000345,None,left,15,"[19, 20, 19, 20, 13, 16, 15, 16]",8,shiftedgaze_L_15.png,f,1,3,results26,001,2026-04-20_11h45.55.959,mogelijke versie adaptive staircase builder,,2026.1.3,60.006540713078124,2026-04-20 11h45.56.366936 +0200,
20.5,ecc10neg,right,18,0,18,j,0,2.178680600000007,None,0,2,2,2,18,0,18,0,1563.8231289000005,,,,,,,,,,,,,,,1563.8118891000004,1563.8231289000005,1563.8231289000005,1564.7445877999999,1563.8231289000005,1566.0114957000005,j,0,2.178680600000007,None,left,14,"[19, 20, 19, 20, 13, 16, 15, 16, 14]",9,shiftedgaze_L_14.png,j,0,3,results26,001,2026-04-20_11h45.55.959,mogelijke versie adaptive staircase builder,,2026.1.3,60.006540713078124,2026-04-20 11h45.56.366936 +0200,
20.5,ecc10neg,right,19,0,19,f,1,1.8637463000004573,None,0,2,2,2,19,0,19,0,1566.105208,,,,,,,,,,,,,,,1566.0940428000004,1566.105208,1566.105208,1567.0111592000003,1566.105208,1567.9783722000002,f,1,1.8637463000004573,None,left,15,"[19, 20, 19, 20, 13, 16, 15, 16, 14, 15]",10,shiftedgaze_L_15.png,f,1,3,results26,001,2026-04-20_11h45.55.959,mogelijke versie adaptive staircase builder,,2026.1.3,60.006540713078124,2026-04-20 11h45.56.366936 +0200,
20.5,ecc10neg,right,20,0,20,f,1,1.6967669999994541,None,0,2,2,2,20,0,20,0,1568.0721217,,,,,,,,,,,,,,,1568.0611066000001,1568.0721217,1568.0721217,1568.9778422,1568.0721217,1569.7781741999997,f,1,1.6967669999994541,None,left,14,"[19, 20, 19, 20, 13, 16, 15, 16, 14, 15]",10,shiftedgaze_L_14.png,f,1,3,results26,001,2026-04-20_11h45.55.959,mogelijke versie adaptive staircase builder,,2026.1.3,60.006540713078124,2026-04-20 11h45.56.366936 +0200,
20.5,ecc10neg,right,21,0,21,j,0,1.3669209999998202,None,0,2,2,2,21,0,21,0,1570.2899542000005,,,,,,,,,,,,,,,1570.2793258000002,1570.2899542000005,1570.2899542000005,1570.7779351999998,1570.2899542000005,1571.661497,j,0,1.3669209999998202,None,right,13,"[19, 20, 19, 20, 13, 16, 15, 16, 14, 15, 13]",11,shiftedgaze_R_13.png,j,0,3,results26,001,2026-04-20_11h45.55.959,mogelijke versie adaptive staircase builder,,2026.1.3,60.006540713078124,2026-04-20 11h45.56.366936 +0200,
20.5,ecc10neg,right,22,0,22,f,0,5.292157400000178,None,0,2,2,2,22,0,22,0,1571.7569009,,,,,,,,,,,,,,,1571.7454085999998,1571.7569009,1571.7569009,1572.6610105,1571.7569009,1577.0613384999997,f,0,5.292157400000178,None,direct,14,"[19, 20, 19, 20, 13, 16, 15, 16, 14, 15, 13]",11,shifteddirectgaze.png,f,0,3,results26,001,2026-04-20_11h45.55.959,mogelijke versie adaptive staircase builder,,2026.1.3,60.006540713078124,2026-04-20 11h45.56.366936 +0200,
20.5,ecc10neg,right,23,0,23,j,0,1.8778685999996014,None,0,2,2,2,23,0,23,0,1577.1551541,,,,,,,,,,,,,,,1577.1443883000002,1577.1551541,1577.1551541,1578.0609672,1577.1551541,1579.0447078000007,j,0,1.8778685999996014,None,left,15,"[19, 20, 19, 20, 13, 16, 15, 16, 14, 15, 13]",11,shiftedgaze_L_15.png,j,0,3,results26,001,2026-04-20_11h45.55.959,mogelijke versie adaptive staircase builder,,2026.1.3,60.006540713078124,2026-04-20 11h45.56.366936 +0200,
20.5,ecc10neg,right,24,0,24,f,1,1.9965306000012788,None,0,2,2,2,24,0,24,0,1579.1646460000002,,,,,,,,,,,,,,,1579.1531270999994,1579.1646460000002,1579.1646460000002,1580.0443263000006,1579.1646460000002,1581.1616858000007,f,1,1.9965306000012788,None,right,16,"[19, 20, 19, 20, 13, 16, 15, 16, 14, 15, 13, 16]",12,shiftedgaze_R_16.png,f,1,3,results26,001,2026-04-20_11h45.55.959,mogelijke versie adaptive staircase builder,,2026.1.3,60.006540713078124,2026-04-20 11h45.56.366936 +0200,
20.5,ecc10neg,right,25,0,25,f,1,1.846314300000813,None,0,2,2,2,25,0,25,0,1581.2747475000006,,,,,,,,,,,,,,,1581.2628104000005,1581.2747475000006,1581.2747475000006,1582.1610104000001,1581.2747475000006,1583.1280061999996,f,1,1.846314300000813,None,right,15,"[19, 20, 19, 20, 13, 16, 15, 16, 14, 15, 13, 16]",12,shiftedgaze_R_15.png,f,1,3,results26,001,2026-04-20_11h45.55.959,mogelijke versie adaptive staircase builder,,2026.1.3,60.006540713078124,2026-04-20 11h45.56.366936 +0200,
20.5,ecc10neg,right,26,0,26,f,1,2.5166246999997384,None,0,2,2,2,26,0,26,0,1583.2283306,,,,,,,,,,,,,,,1583.2176009000004,1583.2283306,1583.2283306,1584.1276853999998,1583.2283306,1585.7612068999997,f,1,2.5166246999997384,None,right,14,"[19, 20, 19, 20, 13, 16, 15, 16, 14, 15, 13, 16]",12,shiftedgaze_R_14.png,f,1,3,results26,001,2026-04-20_11h45.55.959,mogelijke versie adaptive staircase builder,,2026.1.3,60.006540713078124,2026-04-20 11h45.56.366936 +0200,
20.5,ecc10neg,right,27,0,27,f,0,2.825931400000627,None,0,2,2,2,27,0,27,0,1585.8551472999998,,,,,,,,,,,,,,,1585.8443144000003,1585.8551472999998,1585.8551472999998,1586.7609180000009,1585.8551472999998,1588.6944832,f,0,2.825931400000627,None,direct,13,"[19, 20, 19, 20, 13, 16, 15, 16, 14, 15, 13, 16, 13]",13,shifteddirectgaze.png,f,0,3,results26,001,2026-04-20_11h45.55.959,mogelijke versie adaptive staircase builder,,2026.1.3,60.006540713078124,2026-04-20 11h45.56.366936 +0200,
20.5,ecc10neg,right,28,0,28,f,1,2.395723800000269,None,0,2,2,2,28,0,28,0,1588.7892837000009,,,,,,,,,,,,,,,1588.7780513000007,1588.7892837000009,1588.7892837000009,1589.6943235000008,1588.7892837000009,1591.1947606000003,f,1,2.395723800000269,None,right,14,"[19, 20, 19, 20, 13, 16, 15, 16, 14, 15, 13, 16, 13, 14]",14,shiftedgaze_R_14.png,f,1,3,results26,001,2026-04-20_11h45.55.959,mogelijke versie adaptive staircase builder,,2026.1.3,60.006540713078124,2026-04-20 11h45.56.366936 +0200,
20.5,ecc10neg,right,29,0,29,j,1,2.2089347000001,None,0,2,2,2,29,0,29,0,1591.2881083000002,,,,,,,,,,,,,,,1591.2774928999997,1591.2881083000002,1591.2881083000002,1592.2109210999997,1591.2881083000002,1593.5112739000006,j,1,2.2089347000001,None,direct,13,"[19, 20, 19, 20, 13, 16, 15, 16, 14, 15, 13, 16, 13, 14]",14,shifteddirectgaze.png,j,1,3,results26,001,2026-04-20_11h45.55.959,mogelijke versie adaptive staircase builder,,2026.1.3,60.006540713078124,2026-04-20 11h45.56.366936 +0200,
20.5,ecc10neg,right,30,0,30,j,0,2.8857543999984046,None,0,2,2,2,30,0,30,0,1593.9872270000005,,,,,,,,,,,,,,,1593.9757519999994,1593.9872270000005,1593.9872270000005,1594.5108728999994,1593.9872270000005,1596.8777779000002,j,0,2.8857543999984046,None,right,12,"[19, 20, 19, 20, 13, 16, 15, 16, 14, 15, 13, 16, 13, 14, 12]",15,shiftedgaze_R_12.png,j,0,3,results26,001,2026-04-20_11h45.55.959,mogelijke versie adaptive staircase builder,,2026.1.3,60.006540713078124,2026-04-20 11h45.56.366936 +0200,
20.5,ecc10neg,right,31,0,31,j,0,3.481144999999742,None,0,2,2,2,31,0,31,0,1596.9919545000002,,,,,,,,,,,,,,,1596.9820695999997,1596.9919545000002,1596.9919545000002,1597.8774726000001,1596.9919545000002,1600.4777800000002,j,0,3.481144999999742,None,right,13,"[19, 20, 19, 20, 13, 16, 15, 16, 14, 15, 13, 16, 13, 14, 12]",15,shiftedgaze_R_13.png,j,0,3,results26,001,2026-04-20_11h45.55.959,mogelijke versie adaptive staircase builder,,2026.1.3,60.006540713078124,2026-04-20 11h45.56.366936 +0200,
20.5,ecc10neg,right,32,0,32,f,1,1.5801083000005747,None,0,2,2,2,32,0,32,0,1600.5729440999994,,,,,,,,,,,,,,,1600.5618912,1600.5729440999994,1600.5729440999994,1601.4772949999997,1600.5729440999994,1602.1610062000009,f,1,1.5801083000005747,None,right,14,"[19, 20, 19, 20, 13, 16, 15, 16, 14, 15, 13, 16, 13, 14, 12, 14]",16,shiftedgaze_R_14.png,f,1,3,results26,001,2026-04-20_11h45.55.959,mogelijke versie adaptive staircase builder,,2026.1.3,60.006540713078124,2026-04-20 11h45.56.366936 +0200,
20.5,ecc10neg,right,33,0,33,f,1,1.7377178000006097,None,0,2,2,2,33,0,33,0,1602.2553861999995,,,,,,,,,,,,,,,1602.2448780000004,1602.2553861999995,1602.2553861999995,1603.1606892999998,1602.2553861999995,1603.9950519000004,f,1,1.7377178000006097,None,right,13,"[19, 20, 19, 20, 13, 16, 15, 16, 14, 15, 13, 16, 13, 14, 12, 14]",16,shiftedgaze_R_13.png,f,1,3,results26,001,2026-04-20_11h45.55.959,mogelijke versie adaptive staircase builder,,2026.1.3,60.006540713078124,2026-04-20 11h45.56.366936 +0200,
20.5,ecc10neg,right,34,0,34,f,0,3.3353669000007358,None,0,2,2,2,34,0,34,0,1604.0894930999993,,,,,,,,,,,,,,,1604.0787819999996,1604.0894930999993,1604.0894930999993,1605.0109247999999,1604.0894930999993,1607.4276897999998,f,0,3.3353669000007358,None,direct,12,"[19, 20, 19, 20, 13, 16, 15, 16, 14, 15, 13, 16, 13, 14, 12, 14, 12]",17,shifteddirectgaze.png,f,0,3,results26,001,2026-04-20_11h45.55.959,mogelijke versie adaptive staircase builder,,2026.1.3,60.006540713078124,2026-04-20 11h45.56.366936 +0200,
20.5,ecc10neg,right,35,0,35,j,1,3.9887030999998387,None,0,2,2,2,35,0,35,0,1607.5243068999998,,,,,,,,,,,,,,,1607.5132390000008,1607.5243068999998,1607.5243068999998,1608.4272434999993,1607.5243068999998,1611.5276712000004,j,1,3.9887030999998387,None,direct,13,"[19, 20, 19, 20, 13, 16, 15, 16, 14, 15, 13, 16, 13, 14, 12, 14, 12, 13]",18,shifteddirectgaze.png,j,1,3,results26,001,2026-04-20_11h45.55.959,mogelijke versie adaptive staircase builder,,2026.1.3,60.006540713078124,2026-04-20 11h45.56.366936 +0200,
20.5,ecc10neg,right,36,0,36,f,1,4.880024399999456,None,0,2,2,2,36,0,36,0,1611.6409943000008,,,,,,,,,,,,,,,1611.6308557000002,1611.6409943000008,1611.6409943000008,1612.5271655000006,1611.6409943000008,1616.5275634,f,1,4.880024399999456,None,right,12,"[19, 20, 19, 20, 13, 16, 15, 16, 14, 15, 13, 16, 13, 14, 12, 14, 12, 13]",18,shiftedgaze_R_12.png,f,1,3,results26,001,2026-04-20_11h45.55.959,mogelijke versie adaptive staircase builder,,2026.1.3,60.006540713078124,2026-04-20 11h45.56.366936 +0200,
20.5,ecc10neg,right,37,0,37,j,0,1.2512775999985024,None,0,2,2,2,37,0,37,0,1617.0136687999993,,,,,,,,,,,,,,,1617.0026071000002,1617.0136687999993,1617.0136687999993,1617.5270479,1617.0136687999993,1618.2774722000004,j,0,1.2512775999985024,None,right,11,"[19, 20, 19, 20, 13, 16, 15, 16, 14, 15, 13, 16, 13, 14, 12, 14, 12, 13, 11]",19,shiftedgaze_R_11.png,j,0,3,results26,001,2026-04-20_11h45.55.959,mogelijke versie adaptive staircase builder,,2026.1.3,60.006540713078124,2026-04-20 11h45.56.366936 +0200,
20.5,ecc10neg,right,38,0,38,j,0,2.1358867999988433,None,0,2,2,2,38,0,38,0,1618.3930704999993,,,,,,,,,,,,,,,1618.3831122000001,1618.3930704999993,1618.3930704999993,1619.2771366000006,1618.3930704999993,1620.5441471999993,j,0,2.1358867999988433,None,right,12,"[19, 20, 19, 20, 13, 16, 15, 16, 14, 15, 13, 16, 13, 14, 12, 14, 12, 13, 11]",19,shiftedgaze_R_12.png,j,0,3,results26,001,2026-04-20_11h45.55.959,mogelijke versie adaptive staircase builder,,2026.1.3,60.006540713078124,2026-04-20 11h45.56.366936 +0200,
20.5,ecc10neg,right,39,0,39,f,0,3.1122286999998323,None,0,2,2,2,39,0,39,0,1620.6567691999999,,,,,,,,,,,,,,,1620.6462115000004,1620.6567691999999,1620.6567691999999,1621.5436541000008,1620.6567691999999,1623.7773719999996,f,0,3.1122286999998323,None,direct,13,"[19, 20, 19, 20, 13, 16, 15, 16, 14, 15, 13, 16, 13, 14, 12, 14, 12, 13, 11]",19,shifteddirectgaze.png,f,0,3,results26,001,2026-04-20_11h45.55.959,mogelijke versie adaptive staircase builder,,2026.1.3,60.006540713078124,2026-04-20 11h45.56.366936 +0200,
20.5,ecc10neg,right,40,0,40,j,1,3.272266700001637,None,0,2,2,2,40,0,40,0,1623.8726988999997,,,,,,,,,,,,,,,1623.861990800001,1623.8726988999997,1623.8726988999997,1624.7769761000009,1623.8726988999997,1627.1606022999995,j,1,3.272266700001637,None,direct,14,"[19, 20, 19, 20, 13, 16, 15, 16, 14, 15, 13, 16, 13, 14, 12, 14, 12, 13, 11, 14]",20,shifteddirectgaze.png,j,1,3,results26,001,2026-04-20_11h45.55.959,mogelijke versie adaptive staircase builder,,2026.1.3,60.006540713078124,2026-04-20 11h45.56.366936 +0200,
20.5,ecc10neg,right,41,0,41,f,1,1.9106768000001466,None,0,2,2,2,41,0,41,0,1627.2583002000001,,,,,,,,,,,,,,,1627.2474327999998,1627.2583002000001,1627.2583002000001,1628.1602758,1627.2583002000001,1629.1773827999996,f,1,1.9106768000001466,None,right,13,"[19, 20, 19, 20, 13, 16, 15, 16, 14, 15, 13, 16, 13, 14, 12, 14, 12, 13, 11, 14]",20,shiftedgaze_R_13.png,f,1,3,results26,001,2026-04-20_11h45.55.959,mogelijke versie adaptive staircase builder,,2026.1.3,60.006540713078124,2026-04-20 11h45.56.366936 +0200,
20.5,ecc10neg,right,42,0,42,f,1,3.197620900000402,None,0,2,2,2,42,0,42,0,1629.2913008999994,,,,,,,,,,,,,,,1629.2817643000008,1629.2913008999994,1629.2913008999994,1630.1768961999996,1629.2913008999994,1632.494014500001,f,1,3.197620900000402,None,right,12,"[19, 20, 19, 20, 13, 16, 15, 16, 14, 15, 13, 16, 13, 14, 12, 14, 12, 13, 11, 14]",20,shiftedgaze_R_12.png,f,1,3,results26,001,2026-04-20_11h45.55.959,mogelijke versie adaptive staircase builder,,2026.1.3,60.006540713078124,2026-04-20 11h45.56.366936 +0200,
20.5,ecc10neg,right,43,0,43,j,1,1.7672609000001103,None,0,2,2,2,43,0,43,0,1632.6098011999993,,,,,,,,,,,,,,,1632.599678900001,1632.6098011999993,1632.6098011999993,1633.4939349999995,1632.6098011999993,1634.3938683000006,j,1,1.7672609000001103,None,direct,11,"[19, 20, 19, 20, 13, 16, 15, 16, 14, 15, 13, 16, 13, 14, 12, 14, 12, 13, 11, 14]",20,shifteddirectgaze.png,j,1,3,results26,001,2026-04-20_11h45.55.959,mogelijke versie adaptive staircase builder,,2026.1.3,60.006540713078124,2026-04-20 11h45.56.366936 +0200,
20.5,ecc10neg,right,44,0,44,f,1,1.4072307999995246,None,0,2,2,2,44,0,44,0,1634.8496958000005,,,,,,,,,,,,,,,1634.8388557999997,1634.8496958000005,1634.8496958000005,1635.3934789999994,1634.8496958000005,1636.2604641999997,f,1,1.4072307999995246,None,right,10,"[19, 20, 19, 20, 13, 16, 15, 16, 14, 15, 13, 16, 13, 14, 12, 14, 12, 13, 11, 14]",20,shiftedgaze_R_10.png,f,1,3,results26,001,2026-04-20_11h45.55.959,mogelijke versie adaptive staircase builder,,2026.1.3,60.006540713078124,2026-04-20 11h45.56.366936 +0200,
20.5,ecc10neg,right,45,0,45,f,1,2.2972353999994084,None,0,2,2,2,45,0,45,0,1636.4716949999993,,,,,,,,,,,,,,,1636.4615870999996,1636.4716949999993,1636.4716949999993,1637.2601845,1636.4716949999993,1638.7774018999999,f,1,2.2972353999994084,None,right,9,"[19, 20, 19, 20, 13, 16, 15, 16, 14, 15, 13, 16, 13, 14, 12, 14, 12, 13, 11, 14]",20,shiftedgaze_R_9.png,f,1,3,results26,001,2026-04-20_11h45.55.959,mogelijke versie adaptive staircase builder,,2026.1.3,60.006540713078124,2026-04-20 11h45.56.366936 +0200,
20.5,ecc10neg,right,46,0,46,j,1,3.0459222000008594,None,0,2,2,2,46,0,46,0,1638.8751113999997,,,,,,,,,,,,,,,1638.8644298999998,1638.8751113999997,1638.8751113999997,1639.7770277999998,1638.8751113999997,1641.9270136000005,j,1,3.0459222000008594,None,direct,8,"[19, 20, 19, 20, 13, 16, 15, 16, 14, 15, 13, 16, 13, 14, 12, 14, 12, 13, 11, 14]",20,shifteddirectgaze.png,j,1,3,results26,001,2026-04-20_11h45.55.959,mogelijke versie adaptive staircase builder,,2026.1.3,60.006540713078124,2026-04-20 11h45.56.366936 +0200,
20.5,ecc10neg,right,47,0,47,j,0,1.6845940000002884,None,0,2,2,2,47,0,47,0,1642.1404260999998,,,,,,,,,,,,,,,1642.1297896000005,1642.1404260999998,1642.1404260999998,1642.926934,1642.1404260999998,1643.8269959,j,0,1.6845940000002884,None,left,7,"[19, 20, 19, 20, 13, 16, 15, 16, 14, 15, 13, 16, 13, 14, 12, 14, 12, 13, 11, 14, 7]",21,shiftedgaze_L_7.png,j,0,3,results26,001,2026-04-20_11h45.55.959,mogelijke versie adaptive staircase builder,,2026.1.3,60.006540713078124,2026-04-20 11h45.56.366936 +0200,
20.5,ecc10neg,right,48,0,48,j,0,1.9835167000001093,None,0,2,2,2,48,0,48,0,1643.9375284999996,,,,,,,,,,,,,,,1643.9275320000006,1643.9375284999996,1643.9375284999996,1644.8268755,1643.9375284999996,1645.9279278000004,j,0,1.9835167000001093,None,left,8,"[19, 20, 19, 20, 13, 16, 15, 16, 14, 15, 13, 16, 13, 14, 12, 14, 12, 13, 11, 14, 7]",21,shiftedgaze_L_8.png,j,0,3,results26,001,2026-04-20_11h45.55.959,mogelijke versie adaptive staircase builder,,2026.1.3,60.006540713078124,2026-04-20 11h45.56.366936 +0200,
20.5,ecc10neg,right,49,0,49,j,0,2.599078200000804,None,0,2,2,2,49,0,49,0,1646.0260165999998,,,,,,,,,,,,,,,1646.0143562000003,1646.0260165999998,1646.0260165999998,1646.9435397000007,1646.0260165999998,1648.6278807000008,j,0,2.599078200000804,None,right,9,"[19, 20, 19, 20, 13, 16, 15, 16, 14, 15, 13, 16, 13, 14, 12, 14, 12, 13, 11, 14, 7]",21,shiftedgaze_R_9.png,j,0,3,results26,001,2026-04-20_11h45.55.959,mogelijke versie adaptive staircase builder,,2026.1.3,60.006540713078124,2026-04-20 11h45.56.366936 +0200,
20.5,ecc10neg,right,50,0,50,j,0,2.709143200001563,None,0,2,2,2,50,0,50,0,1648.7238829999997,,,,,,,,,,,,,,,1648.7138657999994,1648.7238829999997,1648.7238829999997,1649.6433215000006,1648.7238829999997,1651.4438712,j,0,2.709143200001563,None,right,10,"[19, 20, 19, 20, 13, 16, 15, 16, 14, 15, 13, 16, 13, 14, 12, 14, 12, 13, 11, 14, 7]",21,shiftedgaze_R_10.png,j,0,3,results26,001,2026-04-20_11h45.55.959,mogelijke versie adaptive staircase builder,,2026.1.3,60.006540713078124,2026-04-20 11h45.56.366936 +0200,
20.5,ecc10neg,right,51,0,51,j,1,2.1014453999996476,None,0,2,2,2,51,0,51,0,1651.5396040000005,,,,,,,,,,,,,,,1651.5294038000002,1651.5396040000005,1651.5396040000005,1652.4434797000004,1651.5396040000005,1653.643401800001,j,1,2.1014453999996476,None,direct,11,"[19, 20, 19, 20, 13, 16, 15, 16, 14, 15, 13, 16, 13, 14, 12, 14, 12, 13, 11, 14, 7, 11]",22,shifteddirectgaze.png,j,1,3,results26,001,2026-04-20_11h45.55.959,mogelijke versie adaptive staircase builder,,2026.1.3,60.006540713078124,2026-04-20 11h45.56.366936 +0200,
20.5,ecc10neg,right,52,0,52,j,0,2.611683900000571,None,0,2,2,2,52,0,52,0,1654.1013582000005,,,,,,,,,,,,,,,1654.0881103000002,1654.1013582000005,1654.1013582000005,1654.6433234999995,1654.1013582000005,1656.7268314000003,j,0,2.611683900000571,None,left,10,"[19, 20, 19, 20, 13, 16, 15, 16, 14, 15, 13, 16, 13, 14, 12, 14, 12, 13, 11, 14, 7, 11, 10]",23,shiftedgaze_L_10.png,j,0,3,results26,001,2026-04-20_11h45.55.959,mogelijke versie adaptive staircase builder,,2026.1.3,60.006540713078124,2026-04-20 11h45.56.366936 +0200,
20.5,ecc10neg,right,53,0,53,f,1,4.489923999999519,None,0,2,2,2,53,0,53,0,1656.8230904000002,,,,,,,,,,,,,,,1656.8127716999998,1656.8230904000002,1656.8230904000002,1657.7265240000006,1656.8230904000002,1661.3267826000001,f,1,4.489923999999519,None,right,11,"[19, 20, 19, 20, 13, 16, 15, 16, 14, 15, 13, 16, 13, 14, 12, 14, 12, 13, 11, 14, 7, 11, 10, 11]",24,shiftedgaze_R_11.png,f,1,3,results26,001,2026-04-20_11h45.55.959,mogelijke versie adaptive staircase builder,,2026.1.3,60.006540713078124,2026-04-20 11h45.56.366936 +0200,
20.5,ecc10neg,right,54,0,54,j,0,2.976344299999255,None,0,2,2,2,54,0,54,0,1661.424634,,,,,,,,,,,,,,,1661.4138427000007,1661.424634,1661.424634,1662.3265404999993,1661.424634,1664.4103409999998,j,0,2.976344299999255,None,right,10,"[19, 20, 19, 20, 13, 16, 15, 16, 14, 15, 13, 16, 13, 14, 12, 14, 12, 13, 11, 14, 7, 11, 10, 11, 10]",25,shiftedgaze_R_10.png,j,0,3,results26,001,2026-04-20_11h45.55.959,mogelijke versie adaptive staircase builder,,2026.1.3,60.006540713078124,2026-04-20 11h45.56.366936 +0200,
20.5,ecc10neg,right,55,0,55,f,0,2.070532199999434,None,0,2,2,2,55,0,55,0,1664.5063770000006,,,,,,,,,,,,,,,1664.4963082999993,1664.5063770000006,1664.5063770000006,1665.4100095000003,1664.5063770000006,1666.5932746999997,f,0,2.070532199999434,None,direct,11,"[19, 20, 19, 20, 13, 16, 15, 16, 14, 15, 13, 16, 13, 14, 12, 14, 12, 13, 11, 14, 7, 11, 10, 11, 10]",25,shifteddirectgaze.png,f,0,3,results26,001,2026-04-20_11h45.55.959,mogelijke versie adaptive staircase builder,,2026.1.3,60.006540713078124,2026-04-20 11h45.56.366936 +0200,
20.5,ecc10neg,right,56,0,56,j,1,4.590329200000269,None,0,2,2,2,56,0,56,0,1666.6907051999997,,,,,,,,,,,,,,,1666.6804622000009,1666.6907051999997,1666.6907051999997,1667.5934346000004,1666.6907051999997,1671.2933127999995,j,1,4.590329200000269,None,direct,12,"[19, 20, 19, 20, 13, 16, 15, 16, 14, 15, 13, 16, 13, 14, 12, 14, 12, 13, 11, 14, 7, 11, 10, 11, 10, 12]",26,shifteddirectgaze.png,j,1,3,results26,001,2026-04-20_11h45.55.959,mogelijke versie adaptive staircase builder,,2026.1.3,60.006540713078124,2026-04-20 11h45.56.366936 +0200,
20.5,ecc10neg,right,57,0,57,j,0,3.2112261000002036,None,0,2,2,2,57,0,57,0,1671.3897153000007,,,,,,,,,,,,,,,1671.3787980000006,1671.3897153000007,1671.3897153000007,1672.2930172999995,1671.3897153000007,1674.609851100001,j,0,3.2112261000002036,None,right,11,"[19, 20, 19, 20, 13, 16, 15, 16, 14, 15, 13, 16, 13, 14, 12, 14, 12, 13, 11, 14, 7, 11, 10, 11, 10, 12, 11]",27,shiftedgaze_R_11.png,j,0,3,results26,001,2026-04-20_11h45.55.959,mogelijke versie adaptive staircase builder,,2026.1.3,60.006540713078124,2026-04-20 11h45.56.366936 +0200,
20.5,ecc10neg,right,58,0,58,j,0,2.016192000000956,None,0,2,2,2,58,0,58,0,1674.7127288000001,,,,,,,,,,,,,,,1674.7022817000006,1674.7127288000001,1674.7127288000001,1675.6098312999993,1674.7127288000001,1676.7435818999993,j,0,2.016192000000956,None,left,12,"[19, 20, 19, 20, 13, 16, 15, 16, 14, 15, 13, 16, 13, 14, 12, 14, 12, 13, 11, 14, 7, 11, 10, 11, 10, 12, 11]",27,shiftedgaze_L_12.png,j,0,3,results26,001,2026-04-20_11h45.55.959,mogelijke versie adaptive staircase builder,,2026.1.3,60.006540713078124,2026-04-20 11h45.56.366936 +0200,
20.5,ecc10neg,right,59,0,59,j,1,3.000151599999299,None,0,2,2,2,59,0,59,0,1676.8408205000005,,,,,,,,,,,,,,,1676.8304536999995,1676.8408205000005,1676.8408205000005,1677.7598976,1676.8408205000005,1679.8435151000003,j,1,3.000151599999299,None,direct,13,"[19, 20, 19, 20, 13, 16, 15, 16, 14, 15, 13, 16, 13, 14, 12, 14, 12, 13, 11, 14, 7, 11, 10, 11, 10, 12, 11, 13]",28,shifteddirectgaze.png,j,1,3,results26,001,2026-04-20_11h45.55.959,mogelijke versie adaptive staircase builder,,2026.1.3,60.006540713078124,2026-04-20 11h45.56.366936 +0200,
20.5,ecc10neg,right,2,2,0,,,,,0,2,2,2,,,,,,,,,,,,,,,,,,,,,,,,,,,,,,,,,,,,,,results26,001,2026-04-20_11h45.55.959,mogelijke versie adaptive staircase builder,,2026.1.3,60.006540713078124,2026-04-20 11h45.56.366936 +0200,
