xPos,stimulusSet,whichImage,thisN,thisTrialN,thisRepN,key_resp.keys,key_resp.corr,key_resp.rt,key_resp.duration,blocks.thisRepN,blocks.thisTrialN,blocks.thisN,blocks.thisIndex,trials.thisRepN,trials.thisTrialN,trials.thisN,trials.thisIndex,thisRow.t,notes,piloting,intro.started,introinstructions.started,intro_key.started,demo_image_left.started,demo_image_middle.started,demo_image_right.started,intro.stopped,intro_key.keys,intro_key.rt,intro_key.duration,block_start.started,block_start.stopped,trial.started,key_resp.started,middle_image.started,right_image.started,left_image.started,trial.stopped,trials.key_resp.keys,trials.key_resp.corr,trials.key_resp.rt,trials.key_resp.duration,direction,angle,reversal_intensities,number_reversals,stimulus,response,correct,blockNumber,participant,session,date,expName,expVersion,psychopyVersion,frameRate,expStart,
,,,,,,,,,,,,,,,,,,,,False,0.0035289000006741844,0.006495700001323712,0.006495700001323712,0.006495700001323712,0.006495700001323712,0.006495700001323712,650.8801797000015,space,650.7686747000007,0.10411719999865454,,,,,,,,,,,,,,,,,,,,,results16,001,2026-04-14_12h52.16.946,mogelijke versie adaptive staircase builder,,2026.1.3,59.99570430738327,2026-04-14 12h52.17.258131 +0200,
4.5,ecc10pos,left,0,0,0,j,1,7.34819459999926,None,0,0,0,0,0,0,0,0,651.1873217000011,,,,,,,,,,,,,651.0889000000006,651.0889556000002,651.1844387000001,651.1873217000011,651.1873217000011,651.1873217000011,652.0965038000013,658.5472248000005,j,1,7.34819459999926,None,direct,20,[],0,shifteddirectgaze.png,j,1,1,results16,001,2026-04-14_12h52.16.946,mogelijke versie adaptive staircase builder,,2026.1.3,59.99570430738327,2026-04-14 12h52.17.258131 +0200,
4.5,ecc10pos,left,1,0,1,f,0,6.29363850000118,None,0,0,0,0,1,0,1,0,658.633565600001,,,,,,,,,,,,,,,658.6295170000012,658.633565600001,658.633565600001,658.633565600001,659.5630721000016,664.9302774000007,f,0,6.29363850000118,None,direct,19,[19],1,shifteddirectgaze.png,f,0,1,results16,001,2026-04-14_12h52.16.946,mogelijke versie adaptive staircase builder,,2026.1.3,59.99570430738327,2026-04-14 12h52.17.258131 +0200,
4.5,ecc10pos,left,2,0,2,f,0,2.3374335000007704,None,0,0,0,0,2,0,2,0,665.0137274000008,,,,,,,,,,,,,,,665.0099048000011,665.0137274000008,665.0137274000008,665.0137274000008,665.9297621000005,667.3634824000001,f,0,2.3374335000007704,None,direct,20,[19],1,shifteddirectgaze.png,f,0,1,results16,001,2026-04-14_12h52.16.946,mogelijke versie adaptive staircase builder,,2026.1.3,59.99570430738327,2026-04-14 12h52.17.258131 +0200,
4.5,ecc10pos,left,3,0,3,j,0,2.5082371000007697,None,0,0,0,0,3,0,3,0,667.5070733000011,,,,,,,,,,,,,,,667.5039875000002,667.5070733000011,667.5070733000011,667.5070733000011,668.3633335000013,670.030313700001,j,0,2.5082371000007697,None,left,20,[19],1,shiftedgaze_L_20.png,j,0,1,results16,001,2026-04-14_12h52.16.946,mogelijke versie adaptive staircase builder,,2026.1.3,59.99570430738327,2026-04-14 12h52.17.258131 +0200,
4.5,ecc10pos,left,4,0,4,f,1,1.8912126000013814,None,0,0,0,0,4,0,4,0,670.1479173000007,,,,,,,,,,,,,,,670.1379586000003,670.1479173000007,670.1479173000007,670.1479173000007,671.0303452000007,672.0465880000011,f,1,1.8912126000013814,None,right,20,"[19, 20]",2,shiftedgaze_R_20.png,f,1,1,results16,001,2026-04-14_12h52.16.946,mogelijke versie adaptive staircase builder,,2026.1.3,59.99570430738327,2026-04-14 12h52.17.258131 +0200,
4.5,ecc10pos,left,5,0,5,j,0,2.1535999000006996,None,0,0,0,0,5,0,5,0,672.1654349,,,,,,,,,,,,,,,672.1536357000005,672.1654349,672.1654349,672.1654349,673.0463127000003,674.3299252000015,j,0,2.1535999000006996,None,right,19,"[19, 20, 19]",3,shiftedgaze_R_19.png,j,0,1,results16,001,2026-04-14_12h52.16.946,mogelijke versie adaptive staircase builder,,2026.1.3,59.99570430738327,2026-04-14 12h52.17.258131 +0200,
4.5,ecc10pos,left,6,0,6,f,1,2.639166599999953,None,0,0,0,0,6,0,6,0,674.4400994000007,,,,,,,,,,,,,,,674.4301436000005,674.4400994000007,674.4400994000007,674.4400994000007,675.3297311000006,677.0799482000002,f,1,2.639166599999953,None,left,20,"[19, 20, 19, 20]",4,shiftedgaze_L_20.png,f,1,1,results16,001,2026-04-14_12h52.16.946,mogelijke versie adaptive staircase builder,,2026.1.3,59.99570430738327,2026-04-14 12h52.17.258131 +0200,
4.5,ecc10pos,left,7,0,7,j,1,2.4508903000005375,None,0,0,0,0,7,0,7,0,677.1804199000017,,,,,,,,,,,,,,,677.1706792000004,677.1804199000017,677.1804199000017,677.1804199000017,678.0797421000007,679.6473112000003,j,1,2.4508903000005375,None,direct,19,"[19, 20, 19, 20]",4,shifteddirectgaze.png,j,1,1,results16,001,2026-04-14_12h52.16.946,mogelijke versie adaptive staircase builder,,2026.1.3,59.99570430738327,2026-04-14 12h52.17.258131 +0200,
4.5,ecc10pos,left,8,0,8,j,0,2.110278800000742,None,0,0,0,0,8,0,8,0,679.7530775000014,,,,,,,,,,,,,,,679.7433863000006,679.7530775000014,679.7530775000014,679.7530775000014,680.6465551000001,681.8638061000001,j,0,2.110278800000742,None,left,18,"[19, 20, 19, 20, 18]",5,shiftedgaze_L_18.png,j,0,1,results16,001,2026-04-14_12h52.16.946,mogelijke versie adaptive staircase builder,,2026.1.3,59.99570430738327,2026-04-14 12h52.17.258131 +0200,
4.5,ecc10pos,left,9,0,9,f,1,1.8741415999993478,None,0,0,0,0,9,0,9,0,681.957035200001,,,,,,,,,,,,,,,681.947317600001,681.957035200001,681.957035200001,681.957035200001,682.8634975000004,683.8472158000004,f,1,1.8741415999993478,None,right,19,"[19, 20, 19, 20, 18, 19]",6,shiftedgaze_R_19.png,f,1,1,results16,001,2026-04-14_12h52.16.946,mogelijke versie adaptive staircase builder,,2026.1.3,59.99570430738327,2026-04-14 12h52.17.258131 +0200,
4.5,ecc10pos,left,10,0,10,f,1,2.2619832000000315,None,0,0,0,0,10,0,10,0,683.9452722000005,,,,,,,,,,,,,,,683.9360285000002,683.9452722000005,683.9452722000005,683.9452722000005,684.846663100001,686.2138369000004,f,1,2.2619832000000315,None,right,18,"[19, 20, 19, 20, 18, 19]",6,shiftedgaze_R_18.png,f,1,1,results16,001,2026-04-14_12h52.16.946,mogelijke versie adaptive staircase builder,,2026.1.3,59.99570430738327,2026-04-14 12h52.17.258131 +0200,
4.5,ecc10pos,left,11,0,11,f,1,3.0318325999996887,None,0,0,0,0,11,0,11,0,686.3193580000006,,,,,,,,,,,,,,,686.310013100001,686.3193580000006,686.3193580000006,686.3193580000006,687.2135298000012,689.3632025000006,f,1,3.0318325999996887,None,left,17,"[19, 20, 19, 20, 18, 19]",6,shiftedgaze_L_17.png,f,1,1,results16,001,2026-04-14_12h52.16.946,mogelijke versie adaptive staircase builder,,2026.1.3,59.99570430738327,2026-04-14 12h52.17.258131 +0200,
4.5,ecc10pos,left,12,0,12,j,0,2.4679964000006294,None,0,0,0,0,12,0,12,0,689.4592055000012,,,,,,,,,,,,,,,689.4551746000016,689.4592055000012,689.4592055000012,689.4592055000012,690.3630269000005,691.9300156000008,j,0,2.4679964000006294,None,left,16,"[19, 20, 19, 20, 18, 19, 16]",7,shiftedgaze_L_16.png,j,0,1,results16,001,2026-04-14_12h52.16.946,mogelijke versie adaptive staircase builder,,2026.1.3,59.99570430738327,2026-04-14 12h52.17.258131 +0200,
4.5,ecc10pos,left,13,0,13,j,0,2.636827500000436,None,0,0,0,0,13,0,13,0,692.0184253000007,,,,,,,,,,,,,,,692.0143708000014,692.0184253000007,692.0184253000007,692.0184253000007,692.929638900001,694.6632967000005,j,0,2.636827500000436,None,left,17,"[19, 20, 19, 20, 18, 19, 16]",7,shiftedgaze_L_17.png,j,0,1,results16,001,2026-04-14_12h52.16.946,mogelijke versie adaptive staircase builder,,2026.1.3,59.99570430738327,2026-04-14 12h52.17.258131 +0200,
4.5,ecc10pos,left,14,0,14,j,1,2.361961800001154,None,0,0,0,0,14,0,14,0,694.757206100001,,,,,,,,,,,,,,,694.7473398000002,694.757206100001,694.757206100001,694.757206100001,695.6634903000013,697.1297974000008,j,1,2.361961800001154,None,direct,18,"[19, 20, 19, 20, 18, 19, 16, 18]",8,shifteddirectgaze.png,j,1,1,results16,001,2026-04-14_12h52.16.946,mogelijke versie adaptive staircase builder,,2026.1.3,59.99570430738327,2026-04-14 12h52.17.258131 +0200,
4.5,ecc10pos,left,15,0,15,j,1,2.1855675999995583,None,0,0,0,0,15,0,15,0,697.2140531000005,,,,,,,,,,,,,,,697.2100742000002,697.2140531000005,697.2140531000005,697.2140531000005,698.129651700001,699.4138070000008,j,1,2.1855675999995583,None,direct,17,"[19, 20, 19, 20, 18, 19, 16, 18]",8,shifteddirectgaze.png,j,1,1,results16,001,2026-04-14_12h52.16.946,mogelijke versie adaptive staircase builder,,2026.1.3,59.99570430738327,2026-04-14 12h52.17.258131 +0200,
4.5,ecc10pos,left,16,0,16,f,1,1.9564683999997214,None,0,0,0,0,16,0,16,0,699.5067739000006,,,,,,,,,,,,,,,699.5026149000005,699.5067739000006,699.5067739000006,699.5067739000006,700.4131874000013,701.4636101000015,f,1,1.9564683999997214,None,right,16,"[19, 20, 19, 20, 18, 19, 16, 18]",8,shiftedgaze_R_16.png,f,1,1,results16,001,2026-04-14_12h52.16.946,mogelijke versie adaptive staircase builder,,2026.1.3,59.99570430738327,2026-04-14 12h52.17.258131 +0200,
4.5,ecc10pos,left,17,0,17,f,1,2.0613183999994362,None,0,0,0,0,17,0,17,0,701.5538945000008,,,,,,,,,,,,,,,701.5499163000004,701.5538945000008,701.5538945000008,701.5538945000008,702.4635200000012,703.6298866000016,f,1,2.0613183999994362,None,right,15,"[19, 20, 19, 20, 18, 19, 16, 18]",8,shiftedgaze_R_15.png,f,1,1,results16,001,2026-04-14_12h52.16.946,mogelijke versie adaptive staircase builder,,2026.1.3,59.99570430738327,2026-04-14 12h52.17.258131 +0200,
4.5,ecc10pos,left,18,0,18,j,0,2.0876456999994843,None,0,0,0,0,18,0,18,0,703.7197591000004,,,,,,,,,,,,,,,703.7157240000015,703.7197591000004,703.7197591000004,703.7197591000004,704.6296159000012,705.8137939000007,j,0,2.0876456999994843,None,left,14,"[19, 20, 19, 20, 18, 19, 16, 18, 14]",9,shiftedgaze_L_14.png,j,0,1,results16,001,2026-04-14_12h52.16.946,mogelijke versie adaptive staircase builder,,2026.1.3,59.99570430738327,2026-04-14 12h52.17.258131 +0200,
4.5,ecc10pos,left,19,0,19,j,1,2.421385300000111,None,0,0,0,0,19,0,19,0,705.8981586000009,,,,,,,,,,,,,,,705.8941365999999,705.8981586000009,705.8981586000009,705.8981586000009,706.8132734999999,708.3300809000011,j,1,2.421385300000111,None,direct,15,"[19, 20, 19, 20, 18, 19, 16, 18, 14, 15]",10,shifteddirectgaze.png,j,1,1,results16,001,2026-04-14_12h52.16.946,mogelijke versie adaptive staircase builder,,2026.1.3,59.99570430738327,2026-04-14 12h52.17.258131 +0200,
4.5,ecc10pos,left,20,0,20,j,0,2.298614900000757,None,0,0,0,0,20,0,20,0,708.4222335000013,,,,,,,,,,,,,,,708.4181455000016,708.4222335000013,708.4222335000013,708.4222335000013,709.3296571999999,710.7304195000015,j,0,2.298614900000757,None,right,14,"[19, 20, 19, 20, 18, 19, 16, 18, 14, 15, 14]",11,shiftedgaze_R_14.png,j,0,1,results16,001,2026-04-14_12h52.16.946,mogelijke versie adaptive staircase builder,,2026.1.3,59.99570430738327,2026-04-14 12h52.17.258131 +0200,
4.5,ecc10pos,left,21,0,21,j,0,2.0925676000006206,None,0,0,0,0,21,0,21,0,710.834539200001,,,,,,,,,,,,,,,710.824897800001,710.834539200001,710.834539200001,710.834539200001,711.7299616,712.9299651000001,j,0,2.0925676000006206,None,left,15,"[19, 20, 19, 20, 18, 19, 16, 18, 14, 15, 14]",11,shiftedgaze_L_15.png,j,0,1,results16,001,2026-04-14_12h52.16.946,mogelijke versie adaptive staircase builder,,2026.1.3,59.99570430738327,2026-04-14 12h52.17.258131 +0200,
4.5,ecc10pos,left,22,0,22,j,0,2.4108335000000807,None,0,0,0,0,22,0,22,0,713.0283347000004,,,,,,,,,,,,,,,713.0179740000003,713.0283347000004,713.0283347000004,713.0283347000004,713.9300217,715.4465310000014,j,0,2.4108335000000807,None,right,16,"[19, 20, 19, 20, 18, 19, 16, 18, 14, 15, 14]",11,shiftedgaze_R_16.png,j,0,1,results16,001,2026-04-14_12h52.16.946,mogelijke versie adaptive staircase builder,,2026.1.3,59.99570430738327,2026-04-14 12h52.17.258131 +0200,
4.5,ecc10pos,left,23,0,23,j,1,2.3914036999995005,None,0,0,0,0,23,0,23,0,715.5357237000007,,,,,,,,,,,,,,,715.5306307999999,715.5357237000007,715.5357237000007,715.5357237000007,716.4464032000014,717.9303326000008,j,1,2.3914036999995005,None,direct,17,"[19, 20, 19, 20, 18, 19, 16, 18, 14, 15, 14, 17]",12,shifteddirectgaze.png,j,1,1,results16,001,2026-04-14_12h52.16.946,mogelijke versie adaptive staircase builder,,2026.1.3,59.99570430738327,2026-04-14 12h52.17.258131 +0200,
4.5,ecc10pos,left,24,0,24,j,0,2.1158715000001393,None,0,0,0,0,24,0,24,0,718.0356682000001,,,,,,,,,,,,,,,718.025489900001,718.0356682000001,718.0356682000001,718.0356682000001,718.9300174,720.1636923000005,j,0,2.1158715000001393,None,left,16,"[19, 20, 19, 20, 18, 19, 16, 18, 14, 15, 14, 17, 16]",13,shiftedgaze_L_16.png,j,0,1,results16,001,2026-04-14_12h52.16.946,mogelijke versie adaptive staircase builder,,2026.1.3,59.99570430738327,2026-04-14 12h52.17.258131 +0200,
4.5,ecc10pos,left,25,0,25,j,0,2.1680422999997973,None,0,0,0,0,25,0,25,0,720.2790846000007,,,,,,,,,,,,,,,720.2678730000007,720.2790846000007,720.2790846000007,720.2790846000007,721.163322800001,722.4631258000009,j,0,2.1680422999997973,None,right,17,"[19, 20, 19, 20, 18, 19, 16, 18, 14, 15, 14, 17, 16]",13,shiftedgaze_R_17.png,j,0,1,results16,001,2026-04-14_12h52.16.946,mogelijke versie adaptive staircase builder,,2026.1.3,59.99570430738327,2026-04-14 12h52.17.258131 +0200,
4.5,ecc10pos,left,26,0,26,j,0,1.7446512000005896,None,0,0,0,0,26,0,26,0,722.5584786,,,,,,,,,,,,,,,722.5486713000009,722.5584786,722.5584786,722.5584786,723.4632781,724.3138901000002,j,0,1.7446512000005896,None,left,18,"[19, 20, 19, 20, 18, 19, 16, 18, 14, 15, 14, 17, 16]",13,shiftedgaze_L_18.png,j,0,1,results16,001,2026-04-14_12h52.16.946,mogelijke versie adaptive staircase builder,,2026.1.3,59.99570430738327,2026-04-14 12h52.17.258131 +0200,
4.5,ecc10pos,left,27,0,27,j,0,2.4251542999991216,None,0,0,0,0,27,0,27,0,724.4062017000015,,,,,,,,,,,,,,,724.3963795,724.4062017000015,724.4062017000015,724.4062017000015,725.3134834000011,726.8471044000016,j,0,2.4251542999991216,None,right,19,"[19, 20, 19, 20, 18, 19, 16, 18, 14, 15, 14, 17, 16]",13,shiftedgaze_R_19.png,j,0,1,results16,001,2026-04-14_12h52.16.946,mogelijke versie adaptive staircase builder,,2026.1.3,59.99570430738327,2026-04-14 12h52.17.258131 +0200,
4.5,ecc10pos,left,28,0,28,f,1,1.816752799999449,None,0,0,0,0,28,0,28,0,726.9424607000001,,,,,,,,,,,,,,,726.9328600000008,726.9424607000001,726.9424607000001,726.9424607000001,727.8468578000011,728.763355000001,f,1,1.816752799999449,None,left,20,"[19, 20, 19, 20, 18, 19, 16, 18, 14, 15, 14, 17, 16, 20]",14,shiftedgaze_L_20.png,f,1,1,results16,001,2026-04-14_12h52.16.946,mogelijke versie adaptive staircase builder,,2026.1.3,59.99570430738327,2026-04-14 12h52.17.258131 +0200,
4.5,ecc10pos,left,29,0,29,f,1,2.2655859000005876,None,0,0,0,0,29,0,29,0,728.8616365000016,,,,,,,,,,,,,,,728.8569667000011,728.8616365000016,728.8616365000016,728.8616365000016,729.7635085000002,731.1297958000014,f,1,2.2655859000005876,None,left,19,"[19, 20, 19, 20, 18, 19, 16, 18, 14, 15, 14, 17, 16, 20]",14,shiftedgaze_L_19.png,f,1,1,results16,001,2026-04-14_12h52.16.946,mogelijke versie adaptive staircase builder,,2026.1.3,59.99570430738327,2026-04-14 12h52.17.258131 +0200,
4.5,ecc10pos,left,30,0,30,f,0,2.1294426999993448,None,0,0,0,0,30,0,30,0,731.2217556000014,,,,,,,,,,,,,,,731.2117686000001,731.2217556000014,731.2217556000014,731.2217556000014,732.1299322000013,733.363179,f,0,2.1294426999993448,None,direct,18,"[19, 20, 19, 20, 18, 19, 16, 18, 14, 15, 14, 17, 16, 20, 18]",15,shifteddirectgaze.png,f,0,1,results16,001,2026-04-14_12h52.16.946,mogelijke versie adaptive staircase builder,,2026.1.3,59.99570430738327,2026-04-14 12h52.17.258131 +0200,
4.5,ecc10pos,left,31,0,31,f,1,2.31811689999995,None,0,0,0,0,31,0,31,0,733.4571776000012,,,,,,,,,,,,,,,733.4476995000005,733.4571776000012,733.4571776000012,733.4571776000012,734.3630321,735.7801034000004,f,1,2.31811689999995,None,left,19,"[19, 20, 19, 20, 18, 19, 16, 18, 14, 15, 14, 17, 16, 20, 18, 19]",16,shiftedgaze_L_19.png,f,1,1,results16,001,2026-04-14_12h52.16.946,mogelijke versie adaptive staircase builder,,2026.1.3,59.99570430738327,2026-04-14 12h52.17.258131 +0200,
4.5,ecc10pos,left,32,0,32,j,0,1.8185745999999199,None,0,0,0,0,32,0,32,0,735.8689687000006,,,,,,,,,,,,,,,735.8590047000016,735.8689687000006,735.8689687000006,735.8689687000006,736.7801681000001,737.6969473000008,j,0,1.8185745999999199,None,right,18,"[19, 20, 19, 20, 18, 19, 16, 18, 14, 15, 14, 17, 16, 20, 18, 19, 18]",17,shiftedgaze_R_18.png,j,0,1,results16,001,2026-04-14_12h52.16.946,mogelijke versie adaptive staircase builder,,2026.1.3,59.99570430738327,2026-04-14 12h52.17.258131 +0200,
4.5,ecc10pos,left,33,0,33,j,0,2.133219499999541,None,0,0,0,0,33,0,33,0,737.8020751000004,,,,,,,,,,,,,,,737.7907812000012,737.8020751000004,737.8020751000004,737.8020751000004,738.6968072,739.9471190000004,j,0,2.133219499999541,None,left,19,"[19, 20, 19, 20, 18, 19, 16, 18, 14, 15, 14, 17, 16, 20, 18, 19, 18]",17,shiftedgaze_L_19.png,j,0,1,results16,001,2026-04-14_12h52.16.946,mogelijke versie adaptive staircase builder,,2026.1.3,59.99570430738327,2026-04-14 12h52.17.258131 +0200,
4.5,ecc10pos,left,34,0,34,j,1,2.195880600000237,None,0,0,0,0,34,0,34,0,740.0351362000001,,,,,,,,,,,,,,,740.0239988000012,740.0351362000001,740.0351362000001,740.0351362000001,740.962959800001,742.2466193,j,1,2.195880600000237,None,direct,20,"[19, 20, 19, 20, 18, 19, 16, 18, 14, 15, 14, 17, 16, 20, 18, 19, 18, 20]",18,shifteddirectgaze.png,j,1,1,results16,001,2026-04-14_12h52.16.946,mogelijke versie adaptive staircase builder,,2026.1.3,59.99570430738327,2026-04-14 12h52.17.258131 +0200,
4.5,ecc10pos,left,35,0,35,j,0,2.250014999999621,None,0,0,0,0,35,0,35,0,742.3414751,,,,,,,,,,,,,,,742.3313030000008,742.3414751,742.3414751,742.3414751,743.2464150000014,744.5969914000016,j,0,2.250014999999621,None,left,19,"[19, 20, 19, 20, 18, 19, 16, 18, 14, 15, 14, 17, 16, 20, 18, 19, 18, 20, 19]",19,shiftedgaze_L_19.png,j,0,1,results16,001,2026-04-14_12h52.16.946,mogelijke versie adaptive staircase builder,,2026.1.3,59.99570430738327,2026-04-14 12h52.17.258131 +0200,
4.5,ecc10pos,left,36,0,36,f,1,1.9312281999991683,None,0,0,0,0,36,0,36,0,744.6838563000001,,,,,,,,,,,,,,,744.6795851000006,744.6838563000001,744.6838563000001,744.6838563000001,745.5969866000014,746.6301214000014,f,1,1.9312281999991683,None,left,20,"[19, 20, 19, 20, 18, 19, 16, 18, 14, 15, 14, 17, 16, 20, 18, 19, 18, 20, 19, 20]",20,shiftedgaze_L_20.png,f,1,1,results16,001,2026-04-14_12h52.16.946,mogelijke versie adaptive staircase builder,,2026.1.3,59.99570430738327,2026-04-14 12h52.17.258131 +0200,
4.5,ecc10pos,left,37,0,37,j,1,2.0225866999990103,None,0,0,0,0,37,0,37,0,746.7205387000013,,,,,,,,,,,,,,,746.7104698000003,746.7205387000013,746.7205387000013,746.7205387000013,747.6302606000008,748.7465646,j,1,2.0225866999990103,None,direct,19,"[19, 20, 19, 20, 18, 19, 16, 18, 14, 15, 14, 17, 16, 20, 18, 19, 18, 20, 19, 20]",20,shifteddirectgaze.png,j,1,1,results16,001,2026-04-14_12h52.16.946,mogelijke versie adaptive staircase builder,,2026.1.3,59.99570430738327,2026-04-14 12h52.17.258131 +0200,
4.5,ecc10pos,left,38,0,38,j,0,2.98946480000086,None,0,0,0,0,38,0,38,0,748.8415723000016,,,,,,,,,,,,,,,748.8317162000003,748.8415723000016,748.8415723000016,748.8415723000016,749.7464081000016,751.8465948000012,j,0,2.98946480000086,None,left,18,"[19, 20, 19, 20, 18, 19, 16, 18, 14, 15, 14, 17, 16, 20, 18, 19, 18, 20, 19, 20, 18]",21,shiftedgaze_L_18.png,j,0,1,results16,001,2026-04-14_12h52.16.946,mogelijke versie adaptive staircase builder,,2026.1.3,59.99570430738327,2026-04-14 12h52.17.258131 +0200,
4.5,ecc10pos,left,39,0,39,f,1,2.2255875000009837,None,0,0,0,0,39,0,39,0,751.9415536000015,,,,,,,,,,,,,,,751.9308781,751.9415536000015,751.9415536000015,751.9415536000015,752.8470010000001,754.1799930000016,f,1,2.2255875000009837,None,right,19,"[19, 20, 19, 20, 18, 19, 16, 18, 14, 15, 14, 17, 16, 20, 18, 19, 18, 20, 19, 20, 18, 19]",22,shiftedgaze_R_19.png,f,1,1,results16,001,2026-04-14_12h52.16.946,mogelijke versie adaptive staircase builder,,2026.1.3,59.99570430738327,2026-04-14 12h52.17.258131 +0200,
4.5,ecc10pos,left,40,0,40,f,1,2.3205519000002823,None,0,0,0,0,40,0,40,0,754.2709772000017,,,,,,,,,,,,,,,754.2614654000008,754.2709772000017,754.2709772000017,754.2709772000017,755.1797222000005,756.5971561000006,f,1,2.3205519000002823,None,right,18,"[19, 20, 19, 20, 18, 19, 16, 18, 14, 15, 14, 17, 16, 20, 18, 19, 18, 20, 19, 20, 18, 19]",22,shiftedgaze_R_18.png,f,1,1,results16,001,2026-04-14_12h52.16.946,mogelijke versie adaptive staircase builder,,2026.1.3,59.99570430738327,2026-04-14 12h52.17.258131 +0200,
4.5,ecc10pos,left,41,0,41,f,1,2.51050000000032,None,0,0,0,0,41,0,41,0,756.6805419000011,,,,,,,,,,,,,,,756.6766918000012,756.6805419000011,756.6805419000011,756.6805419000011,757.6137948000014,759.1965728000014,f,1,2.51050000000032,None,right,17,"[19, 20, 19, 20, 18, 19, 16, 18, 14, 15, 14, 17, 16, 20, 18, 19, 18, 20, 19, 20, 18, 19]",22,shiftedgaze_R_17.png,f,1,1,results16,001,2026-04-14_12h52.16.946,mogelijke versie adaptive staircase builder,,2026.1.3,59.99570430738327,2026-04-14 12h52.17.258131 +0200,
4.5,ecc10pos,left,42,0,42,j,1,2.2951592999997956,None,0,0,0,0,42,0,42,0,759.280049500001,,,,,,,,,,,,,,,759.275880000001,759.280049500001,759.280049500001,759.280049500001,760.1964705000009,761.5799488000011,j,1,2.2951592999997956,None,direct,16,"[19, 20, 19, 20, 18, 19, 16, 18, 14, 15, 14, 17, 16, 20, 18, 19, 18, 20, 19, 20, 18, 19]",22,shifteddirectgaze.png,j,1,1,results16,001,2026-04-14_12h52.16.946,mogelijke versie adaptive staircase builder,,2026.1.3,59.99570430738327,2026-04-14 12h52.17.258131 +0200,
4.5,ecc10pos,left,43,0,43,j,0,2.2798096999995323,None,0,0,0,0,43,0,43,0,761.6633205000016,,,,,,,,,,,,,,,761.6593424000002,761.6633205000016,761.6633205000016,761.6633205000016,762.5799737000016,763.947590400001,j,0,2.2798096999995323,None,right,15,"[19, 20, 19, 20, 18, 19, 16, 18, 14, 15, 14, 17, 16, 20, 18, 19, 18, 20, 19, 20, 18, 19, 15]",23,shiftedgaze_R_15.png,j,0,1,results16,001,2026-04-14_12h52.16.946,mogelijke versie adaptive staircase builder,,2026.1.3,59.99570430738327,2026-04-14 12h52.17.258131 +0200,
4.5,ecc10pos,left,44,0,44,f,1,2.05657919999976,None,0,0,0,0,44,0,44,0,764.0306249000005,,,,,,,,,,,,,,,764.0265739000006,764.0306249000005,764.0306249000005,764.0306249000005,764.9631673000004,766.0966462000015,f,1,2.05657919999976,None,right,16,"[19, 20, 19, 20, 18, 19, 16, 18, 14, 15, 14, 17, 16, 20, 18, 19, 18, 20, 19, 20, 18, 19, 15, 16]",24,shiftedgaze_R_16.png,f,1,1,results16,001,2026-04-14_12h52.16.946,mogelijke versie adaptive staircase builder,,2026.1.3,59.99570430738327,2026-04-14 12h52.17.258131 +0200,
4.5,ecc10pos,left,45,0,45,f,1,2.346443000000363,None,0,0,0,0,45,0,45,0,766.1807591000015,,,,,,,,,,,,,,,766.1764954000009,766.1807591000015,766.1807591000015,766.1807591000015,767.0965738000014,768.5299374000006,f,1,2.346443000000363,None,right,15,"[19, 20, 19, 20, 18, 19, 16, 18, 14, 15, 14, 17, 16, 20, 18, 19, 18, 20, 19, 20, 18, 19, 15, 16]",24,shiftedgaze_R_15.png,f,1,1,results16,001,2026-04-14_12h52.16.946,mogelijke versie adaptive staircase builder,,2026.1.3,59.99570430738327,2026-04-14 12h52.17.258131 +0200,
4.5,ecc10pos,left,46,0,46,j,0,2.11336029999984,None,0,0,0,0,46,0,46,0,768.6137591000006,,,,,,,,,,,,,,,768.6096136000015,768.6137591000006,768.6137591000006,768.6137591000006,769.5296966000005,770.7299993000015,j,0,2.11336029999984,None,left,14,"[19, 20, 19, 20, 18, 19, 16, 18, 14, 15, 14, 17, 16, 20, 18, 19, 18, 20, 19, 20, 18, 19, 15, 16, 14]",25,shiftedgaze_L_14.png,j,0,1,results16,001,2026-04-14_12h52.16.946,mogelijke versie adaptive staircase builder,,2026.1.3,59.99570430738327,2026-04-14 12h52.17.258131 +0200,
4.5,ecc10pos,left,47,0,47,f,1,2.0783520999993925,None,0,0,0,0,47,0,47,0,770.8247808000015,,,,,,,,,,,,,,,770.8150770000011,770.8247808000015,770.8247808000015,770.8247808000015,771.7297704000011,772.9132572000017,f,1,2.0783520999993925,None,left,15,"[19, 20, 19, 20, 18, 19, 16, 18, 14, 15, 14, 17, 16, 20, 18, 19, 18, 20, 19, 20, 18, 19, 15, 16, 14, 15]",26,shiftedgaze_L_15.png,f,1,1,results16,001,2026-04-14_12h52.16.946,mogelijke versie adaptive staircase builder,,2026.1.3,59.99570430738327,2026-04-14 12h52.17.258131 +0200,
4.5,ecc10pos,left,48,0,48,f,1,2.121349099999861,None,0,0,0,0,48,0,48,0,773.0057796000001,,,,,,,,,,,,,,,772.9959558999999,773.0057796000001,773.0057796000001,773.0057796000001,773.9130941000003,775.1299265000016,f,1,2.121349099999861,None,right,14,"[19, 20, 19, 20, 18, 19, 16, 18, 14, 15, 14, 17, 16, 20, 18, 19, 18, 20, 19, 20, 18, 19, 15, 16, 14, 15]",26,shiftedgaze_R_14.png,f,1,1,results16,001,2026-04-14_12h52.16.946,mogelijke versie adaptive staircase builder,,2026.1.3,59.99570430738327,2026-04-14 12h52.17.258131 +0200,
4.5,ecc10pos,left,49,0,49,f,0,2.205517399999735,None,0,0,0,0,49,0,49,0,775.2099823000008,,,,,,,,,,,,,,,775.2058797000009,775.2099823000008,775.2099823000008,775.2099823000008,776.1295865000011,777.4299108000014,f,0,2.205517399999735,None,direct,13,"[19, 20, 19, 20, 18, 19, 16, 18, 14, 15, 14, 17, 16, 20, 18, 19, 18, 20, 19, 20, 18, 19, 15, 16, 14, 15, 13]",27,shifteddirectgaze.png,f,0,1,results16,001,2026-04-14_12h52.16.946,mogelijke versie adaptive staircase builder,,2026.1.3,59.99570430738327,2026-04-14 12h52.17.258131 +0200,
4.5,ecc10pos,left,50,0,50,j,0,2.103519600001164,None,0,0,0,0,50,0,50,0,777.511623800001,,,,,,,,,,,,,,,777.5075045000012,777.511623800001,777.511623800001,777.511623800001,778.429720600001,779.6298645000006,j,0,2.103519600001164,None,right,14,"[19, 20, 19, 20, 18, 19, 16, 18, 14, 15, 14, 17, 16, 20, 18, 19, 18, 20, 19, 20, 18, 19, 15, 16, 14, 15, 13]",27,shiftedgaze_R_14.png,j,0,1,results16,001,2026-04-14_12h52.16.946,mogelijke versie adaptive staircase builder,,2026.1.3,59.99570430738327,2026-04-14 12h52.17.258131 +0200,
4.5,ecc10pos,left,51,0,51,f,1,2.113729799999419,None,0,0,0,0,51,0,51,0,779.7097124000011,,,,,,,,,,,,,,,779.7056329000006,779.7097124000011,779.7097124000011,779.7097124000011,780.6302899000002,781.8303660000001,f,1,2.113729799999419,None,right,15,"[19, 20, 19, 20, 18, 19, 16, 18, 14, 15, 14, 17, 16, 20, 18, 19, 18, 20, 19, 20, 18, 19, 15, 16, 14, 15, 13, 15]",28,shiftedgaze_R_15.png,f,1,1,results16,001,2026-04-14_12h52.16.946,mogelijke versie adaptive staircase builder,,2026.1.3,59.99570430738327,2026-04-14 12h52.17.258131 +0200,
4.5,ecc10pos,left,52,0,52,f,1,2.114001500000086,None,0,0,0,0,52,0,52,0,781.9090311,,,,,,,,,,,,,,,781.9049570000006,781.9090311,781.9090311,781.9090311,782.8297752000017,784.0299510000004,f,1,2.114001500000086,None,left,14,"[19, 20, 19, 20, 18, 19, 16, 18, 14, 15, 14, 17, 16, 20, 18, 19, 18, 20, 19, 20, 18, 19, 15, 16, 14, 15, 13, 15]",28,shiftedgaze_L_14.png,f,1,1,results16,001,2026-04-14_12h52.16.946,mogelijke versie adaptive staircase builder,,2026.1.3,59.99570430738327,2026-04-14 12h52.17.258131 +0200,
4.5,ecc10pos,left,53,0,53,j,0,2.2477247999995598,None,0,0,0,0,53,0,53,0,784.1194114000009,,,,,,,,,,,,,,,784.1150739000004,784.1194114000009,784.1194114000009,784.1194114000009,785.0299321000002,786.3799448000009,j,0,2.2477247999995598,None,right,13,"[19, 20, 19, 20, 18, 19, 16, 18, 14, 15, 14, 17, 16, 20, 18, 19, 18, 20, 19, 20, 18, 19, 15, 16, 14, 15, 13, 15, 13]",29,shiftedgaze_R_13.png,j,0,1,results16,001,2026-04-14_12h52.16.946,mogelijke versie adaptive staircase builder,,2026.1.3,59.99570430738327,2026-04-14 12h52.17.258131 +0200,
4.5,ecc10pos,left,54,0,54,j,0,2.1778055999984645,None,0,0,0,0,54,0,54,0,786.4616425000004,,,,,,,,,,,,,,,786.4572368000008,786.4616425000004,786.4616425000004,786.4616425000004,787.3798486000014,788.6473086000005,j,0,2.1778055999984645,None,right,14,"[19, 20, 19, 20, 18, 19, 16, 18, 14, 15, 14, 17, 16, 20, 18, 19, 18, 20, 19, 20, 18, 19, 15, 16, 14, 15, 13, 15, 13]",29,shiftedgaze_R_14.png,j,0,1,results16,001,2026-04-14_12h52.16.946,mogelijke versie adaptive staircase builder,,2026.1.3,59.99570430738327,2026-04-14 12h52.17.258131 +0200,
4.5,ecc10pos,left,55,0,55,f,1,1.9196909000002051,None,0,0,0,0,55,0,55,0,788.7273418000004,,,,,,,,,,,,,,,788.7231306000012,788.7273418000004,788.7273418000004,788.7273418000004,789.6631409000001,790.6632470000004,f,1,1.9196909000002051,None,right,15,"[19, 20, 19, 20, 18, 19, 16, 18, 14, 15, 14, 17, 16, 20, 18, 19, 18, 20, 19, 20, 18, 19, 15, 16, 14, 15, 13, 15, 13, 15]",30,shiftedgaze_R_15.png,f,1,1,results16,001,2026-04-14_12h52.16.946,mogelijke versie adaptive staircase builder,,2026.1.3,59.99570430738327,2026-04-14 12h52.17.258131 +0200,
4.5,ecc10pos,left,56,0,56,f,1,2.1291430999990553,None,0,0,0,0,56,0,56,0,790.7420157000015,,,,,,,,,,,,,,,790.7380606000006,790.7420157000015,790.7420157000015,790.7420157000015,791.6628809000013,792.8799558999999,f,1,2.1291430999990553,None,right,14,"[19, 20, 19, 20, 18, 19, 16, 18, 14, 15, 14, 17, 16, 20, 18, 19, 18, 20, 19, 20, 18, 19, 15, 16, 14, 15, 13, 15, 13, 15]",30,shiftedgaze_R_14.png,f,1,1,results16,001,2026-04-14_12h52.16.946,mogelijke versie adaptive staircase builder,,2026.1.3,59.99570430738327,2026-04-14 12h52.17.258131 +0200,
4.5,ecc10pos,left,57,0,57,j,1,2.0551223999991635,None,0,0,0,0,57,0,57,0,792.960015300001,,,,,,,,,,,,,,,792.9557225000008,792.960015300001,792.960015300001,792.960015300001,793.8797414000001,795.0299715000001,j,1,2.0551223999991635,None,direct,13,"[19, 20, 19, 20, 18, 19, 16, 18, 14, 15, 14, 17, 16, 20, 18, 19, 18, 20, 19, 20, 18, 19, 15, 16, 14, 15, 13, 15, 13, 15]",30,shifteddirectgaze.png,j,1,1,results16,001,2026-04-14_12h52.16.946,mogelijke versie adaptive staircase builder,,2026.1.3,59.99570430738327,2026-04-14 12h52.17.258131 +0200,
4.5,ecc10pos,left,58,0,58,j,1,2.145275599999877,None,0,0,0,0,58,0,58,0,795.1097274000003,,,,,,,,,,,,,,,795.105719000001,795.1097274000003,795.1097274000003,795.1097274000003,796.0301361000002,797.2632721000009,j,1,2.145275599999877,None,direct,12,"[19, 20, 19, 20, 18, 19, 16, 18, 14, 15, 14, 17, 16, 20, 18, 19, 18, 20, 19, 20, 18, 19, 15, 16, 14, 15, 13, 15, 13, 15]",30,shifteddirectgaze.png,j,1,1,results16,001,2026-04-14_12h52.16.946,mogelijke versie adaptive staircase builder,,2026.1.3,59.99570430738327,2026-04-14 12h52.17.258131 +0200,
4.5,ecc10pos,left,59,0,59,f,1,2.209927500000049,None,0,0,0,0,59,0,59,0,797.3655844000004,,,,,,,,,,,,,,,797.3552511000016,797.3655844000004,797.3655844000004,797.3655844000004,798.2631115000004,799.5806631000014,f,1,2.209927500000049,None,left,11,"[19, 20, 19, 20, 18, 19, 16, 18, 14, 15, 14, 17, 16, 20, 18, 19, 18, 20, 19, 20, 18, 19, 15, 16, 14, 15, 13, 15, 13, 15]",30,shiftedgaze_L_11.png,f,1,1,results16,001,2026-04-14_12h52.16.946,mogelijke versie adaptive staircase builder,,2026.1.3,59.99570430738327,2026-04-14 12h52.17.258131 +0200,
4.5,ecc10pos,left,0,0,0,,,,,0,0,0,0,,,,,,,,,,,,,,,,,,,,,,,,,,,,,,,,,,,,,,results16,001,2026-04-14_12h52.16.946,mogelijke versie adaptive staircase builder,,2026.1.3,59.99570430738327,2026-04-14 12h52.17.258131 +0200,
12.5,ecc0,mid,0,0,0,f,1,2.7504607000009855,None,0,1,1,1,0,0,0,0,799.6887366999999,,,,,,,,,,,,,799.5831495000002,799.5831799000007,799.6788067000016,799.6887366999999,800.5964345000011,799.6887366999999,799.6887366999999,802.4465980000004,f,1,2.7504607000009855,None,right,20,[],0,gaze_R_20.png,f,1,2,results16,001,2026-04-14_12h52.16.946,mogelijke versie adaptive staircase builder,,2026.1.3,59.99570430738327,2026-04-14 12h52.17.258131 +0200,
12.5,ecc0,mid,1,0,1,j,1,2.9172029000001203,None,0,1,1,1,1,0,1,0,802.5379926000005,,,,,,,,,,,,,,,802.5339240000012,802.5379926000005,803.4464160000007,802.5379926000005,802.5379926000005,805.4631692000003,j,1,2.9172029000001203,None,direct,19,[],0,direct_gaze.png,j,1,2,results16,001,2026-04-14_12h52.16.946,mogelijke versie adaptive staircase builder,,2026.1.3,59.99570430738327,2026-04-14 12h52.17.258131 +0200,
12.5,ecc0,mid,2,0,2,f,1,2.9596691000006103,None,0,1,1,1,2,0,2,0,805.5514645000003,,,,,,,,,,,,,,,805.5474903000013,805.5514645000003,806.4635111000007,805.5514645000003,805.5514645000003,808.5130333000016,f,1,2.9596691000006103,None,right,18,[],0,gaze_R_18.png,f,1,2,results16,001,2026-04-14_12h52.16.946,mogelijke versie adaptive staircase builder,,2026.1.3,59.99570430738327,2026-04-14 12h52.17.258131 +0200,
12.5,ecc0,mid,3,0,3,j,0,2.198013400000491,None,0,1,1,1,3,0,3,0,808.6015391000001,,,,,,,,,,,,,,,808.5975751000005,808.6015391000001,809.5135045000006,808.6015391000001,808.6015391000001,810.8137701000014,j,0,2.198013400000491,None,right,17,[17],1,gaze_R_17.png,j,0,2,results16,001,2026-04-14_12h52.16.946,mogelijke versie adaptive staircase builder,,2026.1.3,59.99570430738327,2026-04-14 12h52.17.258131 +0200,
12.5,ecc0,mid,4,0,4,f,1,1.993457500000659,None,0,1,1,1,4,0,4,0,810.8939397000013,,,,,,,,,,,,,,,810.8898577,810.8939397000013,811.8132215000005,810.8939397000013,810.8939397000013,812.8970280000012,f,1,1.993457500000659,None,right,18,"[17, 18]",2,gaze_R_18.png,f,1,2,results16,001,2026-04-14_12h52.16.946,mogelijke versie adaptive staircase builder,,2026.1.3,59.99570430738327,2026-04-14 12h52.17.258131 +0200,
12.5,ecc0,mid,5,0,5,j,0,1.8049864000004163,None,0,1,1,1,5,0,5,0,812.978278300001,,,,,,,,,,,,,,,812.9737140000016,812.978278300001,813.9135982000007,812.978278300001,812.978278300001,814.7965890000014,j,0,1.8049864000004163,None,right,17,"[17, 18, 17]",3,gaze_R_17.png,j,0,2,results16,001,2026-04-14_12h52.16.946,mogelijke versie adaptive staircase builder,,2026.1.3,59.99570430738327,2026-04-14 12h52.17.258131 +0200,
12.5,ecc0,mid,6,0,6,j,0,1.8588482000013755,None,0,1,1,1,6,0,6,0,814.8767264000016,,,,,,,,,,,,,,,814.8725734,814.8767264000016,815.7964586000016,814.8767264000016,814.8767264000016,816.7471198000003,j,0,1.8588482000013755,None,right,18,"[17, 18, 17]",3,gaze_R_18.png,j,0,2,results16,001,2026-04-14_12h52.16.946,mogelijke versie adaptive staircase builder,,2026.1.3,59.99570430738327,2026-04-14 12h52.17.258131 +0200,
12.5,ecc0,mid,7,0,7,f,0,1.7068235999995522,None,0,1,1,1,7,0,7,0,816.8284045,,,,,,,,,,,,,,,816.8244985000001,816.8284045,817.746814600001,816.8284045,816.8284045,818.5465160000003,f,0,1.7068235999995522,None,direct,19,"[17, 18, 17]",3,direct_gaze.png,f,0,2,results16,001,2026-04-14_12h52.16.946,mogelijke versie adaptive staircase builder,,2026.1.3,59.99570430738327,2026-04-14 12h52.17.258131 +0200,
12.5,ecc0,mid,8,0,8,j,1,1.6434906999984378,None,0,1,1,1,8,0,8,0,818.6276685000012,,,,,,,,,,,,,,,818.6238364000001,818.6276685000012,819.5468251000002,818.6276685000012,818.6276685000012,820.2800519000011,j,1,1.6434906999984378,None,direct,20,"[17, 18, 17, 20]",4,direct_gaze.png,j,1,2,results16,001,2026-04-14_12h52.16.946,mogelijke versie adaptive staircase builder,,2026.1.3,59.99570430738327,2026-04-14 12h52.17.258131 +0200,
12.5,ecc0,mid,9,0,9,j,0,1.7509346999995614,None,0,1,1,1,9,0,9,0,820.3684346000009,,,,,,,,,,,,,,,820.3644721000001,820.3684346000009,821.2797047000004,820.3684346000009,820.3684346000009,822.1304607000002,j,0,1.7509346999995614,None,left,19,"[17, 18, 17, 20, 19]",5,gaze_L_19.png,j,0,2,results16,001,2026-04-14_12h52.16.946,mogelijke versie adaptive staircase builder,,2026.1.3,59.99570430738327,2026-04-14 12h52.17.258131 +0200,
12.5,ecc0,mid,10,0,10,f,1,2.901529400000072,None,0,1,1,1,10,0,10,0,822.2103806000014,,,,,,,,,,,,,,,822.2064182000013,822.2103806000014,823.1301415000016,822.2103806000014,822.2103806000014,825.1136404000008,f,1,2.901529400000072,None,right,20,"[17, 18, 17, 20, 19, 20]",6,gaze_R_20.png,f,1,2,results16,001,2026-04-14_12h52.16.946,mogelijke versie adaptive staircase builder,,2026.1.3,59.99570430738327,2026-04-14 12h52.17.258131 +0200,
12.5,ecc0,mid,11,0,11,f,1,1.7415943999985757,None,0,1,1,1,11,0,11,0,825.1939125000008,,,,,,,,,,,,,,,825.1899803000015,825.1939125000008,826.1134609000001,825.1939125000008,825.1939125000008,826.9467088000001,f,1,1.7415943999985757,None,left,19,"[17, 18, 17, 20, 19, 20]",6,gaze_L_19.png,f,1,2,results16,001,2026-04-14_12h52.16.946,mogelijke versie adaptive staircase builder,,2026.1.3,59.99570430738327,2026-04-14 12h52.17.258131 +0200,
12.5,ecc0,mid,12,0,12,j,0,1.8526814000015293,None,0,1,1,1,12,0,12,0,827.0275712000002,,,,,,,,,,,,,,,827.0235494000008,827.0275712000002,827.9468199000003,827.0275712000002,827.0275712000002,828.880680100001,j,0,1.8526814000015293,None,right,18,"[17, 18, 17, 20, 19, 20, 18]",7,gaze_R_18.png,j,0,2,results16,001,2026-04-14_12h52.16.946,mogelijke versie adaptive staircase builder,,2026.1.3,59.99570430738327,2026-04-14 12h52.17.258131 +0200,
12.5,ecc0,mid,13,0,13,j,1,2.05360440000004,None,0,1,1,1,13,0,13,0,828.9615931000008,,,,,,,,,,,,,,,828.9577175000013,828.9615931000008,829.880185,828.9615931000008,828.9615931000008,831.0298559000003,j,1,2.05360440000004,None,direct,19,"[17, 18, 17, 20, 19, 20, 18, 19]",8,direct_gaze.png,j,1,2,results16,001,2026-04-14_12h52.16.946,mogelijke versie adaptive staircase builder,,2026.1.3,59.99570430738327,2026-04-14 12h52.17.258131 +0200,
12.5,ecc0,mid,14,0,14,f,1,1.810582500000237,None,0,1,1,1,14,0,14,0,831.1168704000011,,,,,,,,,,,,,,,831.1128587000003,831.1168704000011,832.0301643000003,831.1168704000011,831.1168704000011,832.9304443000001,f,1,1.810582500000237,None,left,18,"[17, 18, 17, 20, 19, 20, 18, 19]",8,gaze_L_18.png,f,1,2,results16,001,2026-04-14_12h52.16.946,mogelijke versie adaptive staircase builder,,2026.1.3,59.99570430738327,2026-04-14 12h52.17.258131 +0200,
12.5,ecc0,mid,15,0,15,j,1,1.8437548999991122,None,0,1,1,1,15,0,15,0,833.0114351000011,,,,,,,,,,,,,,,833.0074816000015,833.0114351000011,833.9301104000006,833.0114351000011,833.0114351000011,834.8631171000015,j,1,1.8437548999991122,None,direct,17,"[17, 18, 17, 20, 19, 20, 18, 19]",8,direct_gaze.png,j,1,2,results16,001,2026-04-14_12h52.16.946,mogelijke versie adaptive staircase builder,,2026.1.3,59.99570430738327,2026-04-14 12h52.17.258131 +0200,
12.5,ecc0,mid,16,0,16,j,0,1.560794300001362,None,0,1,1,1,16,0,16,0,834.9511300000013,,,,,,,,,,,,,,,834.9471594000006,834.9511300000013,835.8634737000011,834.9511300000013,834.9511300000013,836.5136348000015,j,0,1.560794300001362,None,right,16,"[17, 18, 17, 20, 19, 20, 18, 19, 16]",9,gaze_R_16.png,j,0,2,results16,001,2026-04-14_12h52.16.946,mogelijke versie adaptive staircase builder,,2026.1.3,59.99570430738327,2026-04-14 12h52.17.258131 +0200,
12.5,ecc0,mid,17,0,17,j,0,1.6539018000003125,None,0,1,1,1,17,0,17,0,836.6012803000012,,,,,,,,,,,,,,,836.5973071000008,836.6012803000012,837.5298270000003,836.6012803000012,836.6012803000012,838.2635602000009,j,0,1.6539018000003125,None,left,17,"[17, 18, 17, 20, 19, 20, 18, 19, 16]",9,gaze_L_17.png,j,0,2,results16,001,2026-04-14_12h52.16.946,mogelijke versie adaptive staircase builder,,2026.1.3,59.99570430738327,2026-04-14 12h52.17.258131 +0200,
12.5,ecc0,mid,18,0,18,j,0,2.487211899999238,None,0,1,1,1,18,0,18,0,838.3440301999999,,,,,,,,,,,,,,,838.3400882000005,838.3440301999999,839.2632166000003,838.3440301999999,838.3440301999999,840.8469357000013,j,0,2.487211899999238,None,left,18,"[17, 18, 17, 20, 19, 20, 18, 19, 16]",9,gaze_L_18.png,j,0,2,results16,001,2026-04-14_12h52.16.946,mogelijke versie adaptive staircase builder,,2026.1.3,59.99570430738327,2026-04-14 12h52.17.258131 +0200,
12.5,ecc0,mid,19,0,19,f,0,1.783640200001173,None,0,1,1,1,19,0,19,0,840.9275474000005,,,,,,,,,,,,,,,840.9236516000001,840.9275474000005,841.8631424000014,840.9275474000005,840.9275474000005,842.7131645000009,f,0,1.783640200001173,None,direct,19,"[17, 18, 17, 20, 19, 20, 18, 19, 16]",9,direct_gaze.png,f,0,2,results16,001,2026-04-14_12h52.16.946,mogelijke versie adaptive staircase builder,,2026.1.3,59.99570430738327,2026-04-14 12h52.17.258131 +0200,
12.5,ecc0,mid,20,0,20,f,1,2.329478499999823,None,0,1,1,1,20,0,20,0,842.8055959000012,,,,,,,,,,,,,,,842.8016049000016,842.8055959000012,843.7129936000001,842.8055959000012,842.8055959000012,845.1468177000006,f,1,2.329478499999823,None,right,20,"[17, 18, 17, 20, 19, 20, 18, 19, 16, 20]",10,gaze_R_20.png,f,1,2,results16,001,2026-04-14_12h52.16.946,mogelijke versie adaptive staircase builder,,2026.1.3,59.99570430738327,2026-04-14 12h52.17.258131 +0200,
12.5,ecc0,mid,21,0,21,j,0,1.3203397999986919,None,0,1,1,1,21,0,21,0,845.2467561000012,,,,,,,,,,,,,,,845.242375400001,845.2467561000012,846.1632210000007,845.2467561000012,845.2467561000012,846.579668800001,j,0,1.3203397999986919,None,right,19,"[17, 18, 17, 20, 19, 20, 18, 19, 16, 20, 19]",11,gaze_R_19.png,j,0,2,results16,001,2026-04-14_12h52.16.946,mogelijke versie adaptive staircase builder,,2026.1.3,59.99570430738327,2026-04-14 12h52.17.258131 +0200,
12.5,ecc0,mid,22,0,22,f,1,1.5687837999994372,None,0,1,1,1,22,0,22,0,846.6783211000002,,,,,,,,,,,,,,,846.6737220000014,846.6783211000002,847.5794163999999,846.6783211000002,846.6783211000002,848.2634812000015,f,1,1.5687837999994372,None,left,20,"[17, 18, 17, 20, 19, 20, 18, 19, 16, 20, 19, 20]",12,gaze_L_20.png,f,1,2,results16,001,2026-04-14_12h52.16.946,mogelijke versie adaptive staircase builder,,2026.1.3,59.99570430738327,2026-04-14 12h52.17.258131 +0200,
12.5,ecc0,mid,23,0,23,f,1,1.9079920999993192,None,0,1,1,1,23,0,23,0,848.3551017000009,,,,,,,,,,,,,,,848.3508833000014,848.3551017000009,849.2797320000009,848.3551017000009,848.3551017000009,850.2634343000009,f,1,1.9079920999993192,None,right,19,"[17, 18, 17, 20, 19, 20, 18, 19, 16, 20, 19, 20]",12,gaze_R_19.png,f,1,2,results16,001,2026-04-14_12h52.16.946,mogelijke versie adaptive staircase builder,,2026.1.3,59.99570430738327,2026-04-14 12h52.17.258131 +0200,
12.5,ecc0,mid,24,0,24,f,1,2.2113972999995894,None,0,1,1,1,24,0,24,0,850.3557203,,,,,,,,,,,,,,,850.3519553000006,850.3557203,851.2629799000006,850.3557203,850.3557203,852.5799608000016,f,1,2.2113972999995894,None,right,18,"[17, 18, 17, 20, 19, 20, 18, 19, 16, 20, 19, 20]",12,gaze_R_18.png,f,1,2,results16,001,2026-04-14_12h52.16.946,mogelijke versie adaptive staircase builder,,2026.1.3,59.99570430738327,2026-04-14 12h52.17.258131 +0200,
12.5,ecc0,mid,25,0,25,f,0,1.8790852000001905,None,0,1,1,1,25,0,25,0,852.672057400001,,,,,,,,,,,,,,,852.6677689000007,852.672057400001,853.5795778000011,852.672057400001,852.672057400001,854.5632267000001,f,0,1.8790852000001905,None,direct,17,"[17, 18, 17, 20, 19, 20, 18, 19, 16, 20, 19, 20, 17]",13,direct_gaze.png,f,0,2,results16,001,2026-04-14_12h52.16.946,mogelijke versie adaptive staircase builder,,2026.1.3,59.99570430738327,2026-04-14 12h52.17.258131 +0200,
12.5,ecc0,mid,26,0,26,j,0,1.4337275999987469,None,0,1,1,1,26,0,26,0,854.6533605000004,,,,,,,,,,,,,,,854.6490730000005,854.6533605000004,855.5629309000014,854.6533605000004,854.6533605000004,856.0964074000003,j,0,1.4337275999987469,None,left,18,"[17, 18, 17, 20, 19, 20, 18, 19, 16, 20, 19, 20, 17]",13,gaze_L_18.png,j,0,2,results16,001,2026-04-14_12h52.16.946,mogelijke versie adaptive staircase builder,,2026.1.3,59.99570430738327,2026-04-14 12h52.17.258131 +0200,
12.5,ecc0,mid,27,0,27,j,0,1.691955100000996,None,0,1,1,1,27,0,27,0,856.1877039999999,,,,,,,,,,,,,,,856.1836721,856.1877039999999,857.0961995000016,856.1877039999999,856.1877039999999,857.8805063,j,0,1.691955100000996,None,left,19,"[17, 18, 17, 20, 19, 20, 18, 19, 16, 20, 19, 20, 17]",13,gaze_L_19.png,j,0,2,results16,001,2026-04-14_12h52.16.946,mogelijke versie adaptive staircase builder,,2026.1.3,59.99570430738327,2026-04-14 12h52.17.258131 +0200,
12.5,ecc0,mid,28,0,28,j,0,1.6151133999992453,None,0,1,1,1,28,0,28,0,857.960465600001,,,,,,,,,,,,,,,857.9564255000005,857.960465600001,858.8799074000017,857.960465600001,857.960465600001,859.5802802000017,j,0,1.6151133999992453,None,left,20,"[17, 18, 17, 20, 19, 20, 18, 19, 16, 20, 19, 20, 17]",13,gaze_L_20.png,j,0,2,results16,001,2026-04-14_12h52.16.946,mogelijke versie adaptive staircase builder,,2026.1.3,59.99570430738327,2026-04-14 12h52.17.258131 +0200,
12.5,ecc0,mid,29,0,29,j,1,2.7713796999996703,None,0,1,1,1,29,0,29,0,859.6596826000005,,,,,,,,,,,,,,,859.6557807000008,859.6596826000005,860.5801552000012,859.6596826000005,859.6596826000005,862.4466402000016,j,1,2.7713796999996703,None,direct,20,"[17, 18, 17, 20, 19, 20, 18, 19, 16, 20, 19, 20, 17, 20]",14,direct_gaze.png,j,1,2,results16,001,2026-04-14_12h52.16.946,mogelijke versie adaptive staircase builder,,2026.1.3,59.99570430738327,2026-04-14 12h52.17.258131 +0200,
12.5,ecc0,mid,30,0,30,j,1,2.065739100000428,None,0,1,1,1,30,0,30,0,862.5257606000014,,,,,,,,,,,,,,,862.5217072000014,862.5257606000014,863.4464923000014,862.5257606000014,862.5257606000014,864.5973123000003,j,1,2.065739100000428,None,direct,19,"[17, 18, 17, 20, 19, 20, 18, 19, 16, 20, 19, 20, 17, 20]",14,direct_gaze.png,j,1,2,results16,001,2026-04-14_12h52.16.946,mogelijke versie adaptive staircase builder,,2026.1.3,59.99570430738327,2026-04-14 12h52.17.258131 +0200,
12.5,ecc0,mid,31,0,31,f,1,1.8664649999991525,None,0,1,1,1,31,0,31,0,864.6766922000006,,,,,,,,,,,,,,,864.672496000001,864.6766922000006,865.6131157,864.6766922000006,864.6766922000006,866.5466827,f,1,1.8664649999991525,None,left,18,"[17, 18, 17, 20, 19, 20, 18, 19, 16, 20, 19, 20, 17, 20]",14,gaze_L_18.png,f,1,2,results16,001,2026-04-14_12h52.16.946,mogelijke versie adaptive staircase builder,,2026.1.3,59.99570430738327,2026-04-14 12h52.17.258131 +0200,
12.5,ecc0,mid,32,0,32,f,1,2.077313600000707,None,0,1,1,1,32,0,32,0,866.6257055000005,,,,,,,,,,,,,,,866.6216547000004,866.6257055000005,867.5463954000006,866.6257055000005,866.6257055000005,868.7132162000016,f,1,2.077313600000707,None,left,17,"[17, 18, 17, 20, 19, 20, 18, 19, 16, 20, 19, 20, 17, 20]",14,gaze_L_17.png,f,1,2,results16,001,2026-04-14_12h52.16.946,mogelijke versie adaptive staircase builder,,2026.1.3,59.99570430738327,2026-04-14 12h52.17.258131 +0200,
12.5,ecc0,mid,33,0,33,j,1,2.221289400000387,None,0,1,1,1,33,0,33,0,868.8022187000006,,,,,,,,,,,,,,,868.79738,868.8022187000006,869.7130707000015,868.8022187000006,868.8022187000006,871.0305659000005,j,1,2.221289400000387,None,direct,16,"[17, 18, 17, 20, 19, 20, 18, 19, 16, 20, 19, 20, 17, 20]",14,direct_gaze.png,j,1,2,results16,001,2026-04-14_12h52.16.946,mogelijke versie adaptive staircase builder,,2026.1.3,59.99570430738327,2026-04-14 12h52.17.258131 +0200,
12.5,ecc0,mid,34,0,34,j,0,3.1472845999996935,None,0,1,1,1,34,0,34,0,871.1157939000004,,,,,,,,,,,,,,,871.1118766,871.1157939000004,872.0302768000001,871.1157939000004,871.1157939000004,874.2633272000003,j,0,3.1472845999996935,None,left,15,"[17, 18, 17, 20, 19, 20, 18, 19, 16, 20, 19, 20, 17, 20, 15]",15,gaze_L_15.png,j,0,2,results16,001,2026-04-14_12h52.16.946,mogelijke versie adaptive staircase builder,,2026.1.3,59.99570430738327,2026-04-14 12h52.17.258131 +0200,
12.5,ecc0,mid,35,0,35,f,1,1.935195300000487,None,0,1,1,1,35,0,35,0,874.3440328000015,,,,,,,,,,,,,,,874.3398591000005,874.3440328000015,875.2630014000006,874.3440328000015,874.3440328000015,876.2800822000008,f,1,1.935195300000487,None,right,16,"[17, 18, 17, 20, 19, 20, 18, 19, 16, 20, 19, 20, 17, 20, 15, 16]",16,gaze_R_16.png,f,1,2,results16,001,2026-04-14_12h52.16.946,mogelijke versie adaptive staircase builder,,2026.1.3,59.99570430738327,2026-04-14 12h52.17.258131 +0200,
12.5,ecc0,mid,36,0,36,f,1,1.9765795000002981,None,0,1,1,1,36,0,36,0,876.366572500001,,,,,,,,,,,,,,,876.3626604000001,876.366572500001,877.2798292000007,876.366572500001,876.366572500001,878.3466929000006,f,1,1.9765795000002981,None,right,15,"[17, 18, 17, 20, 19, 20, 18, 19, 16, 20, 19, 20, 17, 20, 15, 16]",16,gaze_R_15.png,f,1,2,results16,001,2026-04-14_12h52.16.946,mogelijke versie adaptive staircase builder,,2026.1.3,59.99570430738327,2026-04-14 12h52.17.258131 +0200,
12.5,ecc0,mid,37,0,37,j,0,2.1805493000010756,None,0,1,1,1,37,0,37,0,878.4345947000002,,,,,,,,,,,,,,,878.4306176000009,878.4345947000002,879.3471434000003,878.4345947000002,878.4345947000002,880.6299748000001,j,0,2.1805493000010756,None,left,14,"[17, 18, 17, 20, 19, 20, 18, 19, 16, 20, 19, 20, 17, 20, 15, 16, 14]",17,gaze_L_14.png,j,0,2,results16,001,2026-04-14_12h52.16.946,mogelijke versie adaptive staircase builder,,2026.1.3,59.99570430738327,2026-04-14 12h52.17.258131 +0200,
12.5,ecc0,mid,38,0,38,j,0,1.850691600000573,None,0,1,1,1,38,0,38,0,880.7084523000012,,,,,,,,,,,,,,,880.7044128000016,880.7084523000012,881.629756100001,880.7084523000012,880.7084523000012,882.5633156000004,j,0,1.850691600000573,None,right,15,"[17, 18, 17, 20, 19, 20, 18, 19, 16, 20, 19, 20, 17, 20, 15, 16, 14]",17,gaze_R_15.png,j,0,2,results16,001,2026-04-14_12h52.16.946,mogelijke versie adaptive staircase builder,,2026.1.3,59.99570430738327,2026-04-14 12h52.17.258131 +0200,
12.5,ecc0,mid,39,0,39,f,1,1.8043237000001682,None,0,1,1,1,39,0,39,0,882.6508134000014,,,,,,,,,,,,,,,882.6468136000003,882.6508134000014,883.5633471000001,882.6508134000014,882.6508134000014,884.4633128000005,f,1,1.8043237000001682,None,left,16,"[17, 18, 17, 20, 19, 20, 18, 19, 16, 20, 19, 20, 17, 20, 15, 16, 14, 16]",18,gaze_L_16.png,f,1,2,results16,001,2026-04-14_12h52.16.946,mogelijke versie adaptive staircase builder,,2026.1.3,59.99570430738327,2026-04-14 12h52.17.258131 +0200,
12.5,ecc0,mid,40,0,40,f,1,1.9759412000003067,None,0,1,1,1,40,0,40,0,884.5432052000015,,,,,,,,,,,,,,,884.5390958000007,884.5432052000015,885.463083300001,884.5432052000015,884.5432052000015,886.5299530000011,f,1,1.9759412000003067,None,right,15,"[17, 18, 17, 20, 19, 20, 18, 19, 16, 20, 19, 20, 17, 20, 15, 16, 14, 16]",18,gaze_R_15.png,f,1,2,results16,001,2026-04-14_12h52.16.946,mogelijke versie adaptive staircase builder,,2026.1.3,59.99570430738327,2026-04-14 12h52.17.258131 +0200,
12.5,ecc0,mid,41,0,41,f,1,2.1024744999995164,None,0,1,1,1,41,0,41,0,886.6179154000001,,,,,,,,,,,,,,,886.6139403000016,886.6179154000001,887.5297776000007,886.6179154000001,886.6179154000001,888.7306496000001,f,1,2.1024744999995164,None,right,14,"[17, 18, 17, 20, 19, 20, 18, 19, 16, 20, 19, 20, 17, 20, 15, 16, 14, 16]",18,gaze_R_14.png,f,1,2,results16,001,2026-04-14_12h52.16.946,mogelijke versie adaptive staircase builder,,2026.1.3,59.99570430738327,2026-04-14 12h52.17.258131 +0200,
12.5,ecc0,mid,42,0,42,f,0,1.6931908000005933,None,0,1,1,1,42,0,42,0,888.809965800001,,,,,,,,,,,,,,,888.8059661000007,888.809965800001,889.7302553000009,888.809965800001,888.809965800001,890.5133167000004,f,0,1.6931908000005933,None,direct,13,"[17, 18, 17, 20, 19, 20, 18, 19, 16, 20, 19, 20, 17, 20, 15, 16, 14, 16, 13]",19,direct_gaze.png,f,0,2,results16,001,2026-04-14_12h52.16.946,mogelijke versie adaptive staircase builder,,2026.1.3,59.99570430738327,2026-04-14 12h52.17.258131 +0200,
12.5,ecc0,mid,43,0,43,j,0,1.3816735000000335,None,0,1,1,1,43,0,43,0,890.5934931000011,,,,,,,,,,,,,,,890.5894981000001,890.5934931000011,891.5131090000014,890.5934931000011,890.5934931000011,891.9801591000014,j,0,1.3816735000000335,None,right,14,"[17, 18, 17, 20, 19, 20, 18, 19, 16, 20, 19, 20, 17, 20, 15, 16, 14, 16, 13]",19,gaze_R_14.png,j,0,2,results16,001,2026-04-14_12h52.16.946,mogelijke versie adaptive staircase builder,,2026.1.3,59.99570430738327,2026-04-14 12h52.17.258131 +0200,
12.5,ecc0,mid,44,0,44,j,0,1.992224099998566,None,0,1,1,1,44,0,44,0,892.0711243000005,,,,,,,,,,,,,,,892.0671785000013,892.0711243000005,892.9798244000012,892.0711243000005,892.0711243000005,894.0798135000005,j,0,1.992224099998566,None,right,15,"[17, 18, 17, 20, 19, 20, 18, 19, 16, 20, 19, 20, 17, 20, 15, 16, 14, 16, 13]",19,gaze_R_15.png,j,0,2,results16,001,2026-04-14_12h52.16.946,mogelijke versie adaptive staircase builder,,2026.1.3,59.99570430738327,2026-04-14 12h52.17.258131 +0200,
12.5,ecc0,mid,45,0,45,f,0,1.7257757000006677,None,0,1,1,1,45,0,45,0,894.1693714000012,,,,,,,,,,,,,,,894.1654292000003,894.1693714000012,895.0796980000014,894.1693714000012,894.1693714000012,895.8967712000012,f,0,1.7257757000006677,None,direct,16,"[17, 18, 17, 20, 19, 20, 18, 19, 16, 20, 19, 20, 17, 20, 15, 16, 14, 16, 13]",19,direct_gaze.png,f,0,2,results16,001,2026-04-14_12h52.16.946,mogelijke versie adaptive staircase builder,,2026.1.3,59.99570430738327,2026-04-14 12h52.17.258131 +0200,
12.5,ecc0,mid,46,0,46,f,1,2.895084899999347,None,0,1,1,1,46,0,46,0,895.9760745000003,,,,,,,,,,,,,,,895.9721287000011,895.9760745000003,896.8964251000016,895.9760745000003,895.9760745000003,898.8800826000006,f,1,2.895084899999347,None,right,17,"[17, 18, 17, 20, 19, 20, 18, 19, 16, 20, 19, 20, 17, 20, 15, 16, 14, 16, 13, 17]",20,gaze_R_17.png,f,1,2,results16,001,2026-04-14_12h52.16.946,mogelijke versie adaptive staircase builder,,2026.1.3,59.99570430738327,2026-04-14 12h52.17.258131 +0200,
12.5,ecc0,mid,47,0,47,f,1,2.967917600000874,None,0,1,1,1,47,0,47,0,898.9596089000006,,,,,,,,,,,,,,,898.9556848000011,898.9596089000006,899.8797265000012,898.9596089000006,898.9596089000006,901.9306807000012,f,1,2.967917600000874,None,right,16,"[17, 18, 17, 20, 19, 20, 18, 19, 16, 20, 19, 20, 17, 20, 15, 16, 14, 16, 13, 17]",20,gaze_R_16.png,f,1,2,results16,001,2026-04-14_12h52.16.946,mogelijke versie adaptive staircase builder,,2026.1.3,59.99570430738327,2026-04-14 12h52.17.258131 +0200,
12.5,ecc0,mid,48,0,48,j,1,2.5496406000002025,None,0,1,1,1,48,0,48,0,902.0094885000017,,,,,,,,,,,,,,,902.0055289000011,902.0094885000017,902.9302732000015,902.0094885000017,902.0094885000017,904.5633146,j,1,2.5496406000002025,None,direct,15,"[17, 18, 17, 20, 19, 20, 18, 19, 16, 20, 19, 20, 17, 20, 15, 16, 14, 16, 13, 17]",20,direct_gaze.png,j,1,2,results16,001,2026-04-14_12h52.16.946,mogelijke versie adaptive staircase builder,,2026.1.3,59.99570430738327,2026-04-14 12h52.17.258131 +0200,
12.5,ecc0,mid,49,0,49,j,1,2.447870799998782,None,0,1,1,1,49,0,49,0,904.6477130000003,,,,,,,,,,,,,,,904.6432577000014,904.6477130000003,905.563097100001,904.6477130000003,904.6477130000003,907.0974468000004,j,1,2.447870799998782,None,direct,14,"[17, 18, 17, 20, 19, 20, 18, 19, 16, 20, 19, 20, 17, 20, 15, 16, 14, 16, 13, 17]",20,direct_gaze.png,j,1,2,results16,001,2026-04-14_12h52.16.946,mogelijke versie adaptive staircase builder,,2026.1.3,59.99570430738327,2026-04-14 12h52.17.258131 +0200,
12.5,ecc0,mid,50,0,50,f,0,2.6065190999997867,None,0,1,1,1,50,0,50,0,907.1770065000001,,,,,,,,,,,,,,,907.1731434000012,907.1770065000001,908.1130495000016,907.1770065000001,907.1770065000001,909.7973336000014,f,0,2.6065190999997867,None,direct,13,"[17, 18, 17, 20, 19, 20, 18, 19, 16, 20, 19, 20, 17, 20, 15, 16, 14, 16, 13, 17, 13]",21,direct_gaze.png,f,0,2,results16,001,2026-04-14_12h52.16.946,mogelijke versie adaptive staircase builder,,2026.1.3,59.99570430738327,2026-04-14 12h52.17.258131 +0200,
12.5,ecc0,mid,51,0,51,j,0,2.202799299999242,None,0,1,1,1,51,0,51,0,909.876758800001,,,,,,,,,,,,,,,909.8728108000014,909.876758800001,910.8131983000003,909.876758800001,909.876758800001,912.0805528000001,j,0,2.202799299999242,None,right,14,"[17, 18, 17, 20, 19, 20, 18, 19, 16, 20, 19, 20, 17, 20, 15, 16, 14, 16, 13, 17, 13]",21,gaze_R_14.png,j,0,2,results16,001,2026-04-14_12h52.16.946,mogelijke versie adaptive staircase builder,,2026.1.3,59.99570430738327,2026-04-14 12h52.17.258131 +0200,
12.5,ecc0,mid,52,0,52,f,1,2.5994417000001704,None,0,1,1,1,52,0,52,0,912.1597124,,,,,,,,,,,,,,,912.1557804000004,912.1597124,913.0802595000005,912.1597124,912.1597124,914.7632792000004,f,1,2.5994417000001704,None,left,15,"[17, 18, 17, 20, 19, 20, 18, 19, 16, 20, 19, 20, 17, 20, 15, 16, 14, 16, 13, 17, 13, 15]",22,gaze_L_15.png,f,1,2,results16,001,2026-04-14_12h52.16.946,mogelijke versie adaptive staircase builder,,2026.1.3,59.99570430738327,2026-04-14 12h52.17.258131 +0200,
12.5,ecc0,mid,53,0,53,f,1,2.6681348999991314,None,0,1,1,1,53,0,53,0,914.8430133000002,,,,,,,,,,,,,,,914.8388122000015,914.8430133000002,915.7631540000002,914.8430133000002,914.8430133000002,917.5132910000011,f,1,2.6681348999991314,None,right,14,"[17, 18, 17, 20, 19, 20, 18, 19, 16, 20, 19, 20, 17, 20, 15, 16, 14, 16, 13, 17, 13, 15]",22,gaze_R_14.png,f,1,2,results16,001,2026-04-14_12h52.16.946,mogelijke versie adaptive staircase builder,,2026.1.3,59.99570430738327,2026-04-14 12h52.17.258131 +0200,
12.5,ecc0,mid,54,0,54,j,1,2.1185757000002923,None,0,1,1,1,54,0,54,0,917.5925657000007,,,,,,,,,,,,,,,917.5884117000005,917.5925657000007,918.5135862000006,917.5925657000007,917.5925657000007,919.7132584999999,j,1,2.1185757000002923,None,direct,13,"[17, 18, 17, 20, 19, 20, 18, 19, 16, 20, 19, 20, 17, 20, 15, 16, 14, 16, 13, 17, 13, 15]",22,direct_gaze.png,j,1,2,results16,001,2026-04-14_12h52.16.946,mogelijke versie adaptive staircase builder,,2026.1.3,59.99570430738327,2026-04-14 12h52.17.258131 +0200,
12.5,ecc0,mid,55,0,55,j,1,2.236585999999079,None,0,1,1,1,55,0,55,0,919.7947658000012,,,,,,,,,,,,,,,919.7907437000013,919.7947658000012,920.7134013000014,919.7947658000012,919.7947658000012,922.0472147,j,1,2.236585999999079,None,direct,12,"[17, 18, 17, 20, 19, 20, 18, 19, 16, 20, 19, 20, 17, 20, 15, 16, 14, 16, 13, 17, 13, 15]",22,direct_gaze.png,j,1,2,results16,001,2026-04-14_12h52.16.946,mogelijke versie adaptive staircase builder,,2026.1.3,59.99570430738327,2026-04-14 12h52.17.258131 +0200,
12.5,ecc0,mid,56,0,56,f,0,2.5287778999991133,None,0,1,1,1,56,0,56,0,922.1264555000016,,,,,,,,,,,,,,,922.1225967000009,922.1264555000016,923.0466172000015,922.1264555000016,922.1264555000016,924.6631459,f,0,2.5287778999991133,None,direct,11,"[17, 18, 17, 20, 19, 20, 18, 19, 16, 20, 19, 20, 17, 20, 15, 16, 14, 16, 13, 17, 13, 15, 11]",23,direct_gaze.png,f,0,2,results16,001,2026-04-14_12h52.16.946,mogelijke versie adaptive staircase builder,,2026.1.3,59.99570430738327,2026-04-14 12h52.17.258131 +0200,
12.5,ecc0,mid,57,0,57,j,1,2.6536567999992258,None,0,1,1,1,57,0,57,0,924.7455651,,,,,,,,,,,,,,,924.7413422000009,924.7455651,925.6634543,924.7455651,924.7455651,927.4130655000008,j,1,2.6536567999992258,None,direct,12,"[17, 18, 17, 20, 19, 20, 18, 19, 16, 20, 19, 20, 17, 20, 15, 16, 14, 16, 13, 17, 13, 15, 11, 12]",24,direct_gaze.png,j,1,2,results16,001,2026-04-14_12h52.16.946,mogelijke versie adaptive staircase builder,,2026.1.3,59.99570430738327,2026-04-14 12h52.17.258131 +0200,
12.5,ecc0,mid,58,0,58,j,0,2.7715488000012556,None,0,1,1,1,58,0,58,0,927.4998842000005,,,,,,,,,,,,,,,927.4958847000016,927.4998842000005,928.4130152000016,927.4998842000005,927.4998842000005,930.2802087,j,0,2.7715488000012556,None,right,11,"[17, 18, 17, 20, 19, 20, 18, 19, 16, 20, 19, 20, 17, 20, 15, 16, 14, 16, 13, 17, 13, 15, 11, 12, 11]",25,gaze_R_11.png,j,0,2,results16,001,2026-04-14_12h52.16.946,mogelijke versie adaptive staircase builder,,2026.1.3,59.99570430738327,2026-04-14 12h52.17.258131 +0200,
12.5,ecc0,mid,59,0,59,f,1,2.5282934000006207,None,0,1,1,1,59,0,59,0,930.3668831000014,,,,,,,,,,,,,,,930.3628632,930.3668831000014,931.2799823000005,930.3668831000014,930.3668831000014,932.8964743000015,f,1,2.5282934000006207,None,right,12,"[17, 18, 17, 20, 19, 20, 18, 19, 16, 20, 19, 20, 17, 20, 15, 16, 14, 16, 13, 17, 13, 15, 11, 12, 11, 12]",26,gaze_R_12.png,f,1,2,results16,001,2026-04-14_12h52.16.946,mogelijke versie adaptive staircase builder,,2026.1.3,59.99570430738327,2026-04-14 12h52.17.258131 +0200,
12.5,ecc0,mid,1,1,0,,,,,0,1,1,1,,,,,,,,,,,,,,,,,,,,,,,,,,,,,,,,,,,,,,results16,001,2026-04-14_12h52.16.946,mogelijke versie adaptive staircase builder,,2026.1.3,59.99570430738327,2026-04-14 12h52.17.258131 +0200,
20.5,ecc10neg,right,0,0,0,j,1,3.1654149999994843,None,0,2,2,2,0,0,0,0,932.9857531000016,,,,,,,,,,,,,932.8988009000004,932.8988309000015,932.9818177000016,932.9857531000016,932.9857531000016,933.9129808000016,932.9857531000016,936.1632781000008,j,1,3.1654149999994843,None,direct,20,[],0,shifteddirectgaze.png,j,1,3,results16,001,2026-04-14_12h52.16.946,mogelijke versie adaptive staircase builder,,2026.1.3,59.99570430738327,2026-04-14 12h52.17.258131 +0200,
20.5,ecc10neg,right,1,0,1,f,1,1.988531700000749,None,0,2,2,2,1,0,1,0,936.2510377000017,,,,,,,,,,,,,,,936.2471982000006,936.2510377000017,936.2510377000017,937.1629782,936.2510377000017,938.2468474000016,f,1,1.988531700000749,None,left,19,[],0,shiftedgaze_L_19.png,f,1,3,results16,001,2026-04-14_12h52.16.946,mogelijke versie adaptive staircase builder,,2026.1.3,59.99570430738327,2026-04-14 12h52.17.258131 +0200,
20.5,ecc10neg,right,2,0,2,f,1,2.510577300001387,None,0,2,2,2,2,0,2,0,938.3609781000014,,,,,,,,,,,,,,,938.3505035000017,938.3609781000014,938.3609781000014,939.2468695000007,938.3609781000014,940.8805789000016,f,1,2.510577300001387,None,right,18,[],0,shiftedgaze_R_18.png,f,1,3,results16,001,2026-04-14_12h52.16.946,mogelijke versie adaptive staircase builder,,2026.1.3,59.99570430738327,2026-04-14 12h52.17.258131 +0200,
20.5,ecc10neg,right,3,0,3,f,1,2.7103177000008145,None,0,2,2,2,3,0,3,0,940.9769924000011,,,,,,,,,,,,,,,940.9728902000006,940.9769924000011,940.9769924000011,941.8801574000008,940.9769924000011,943.6967138,f,1,2.7103177000008145,None,right,17,[],0,shiftedgaze_R_17.png,f,1,3,results16,001,2026-04-14_12h52.16.946,mogelijke versie adaptive staircase builder,,2026.1.3,59.99570430738327,2026-04-14 12h52.17.258131 +0200,
20.5,ecc10neg,right,4,0,4,j,1,4.225635400000101,None,0,2,2,2,4,0,4,0,943.7979627000004,,,,,,,,,,,,,,,943.788149,943.7979627000004,943.7979627000004,944.6967926000016,943.7979627000004,948.0304130000004,j,1,4.225635400000101,None,direct,16,[],0,shifteddirectgaze.png,j,1,3,results16,001,2026-04-14_12h52.16.946,mogelijke versie adaptive staircase builder,,2026.1.3,59.99570430738327,2026-04-14 12h52.17.258131 +0200,
20.5,ecc10neg,right,5,0,5,j,0,2.229468800000177,None,0,2,2,2,5,0,5,0,948.1220423000013,,,,,,,,,,,,,,,948.1181346000012,948.1220423000013,948.1220423000013,949.0296726000015,948.1220423000013,950.3639711000014,j,0,2.229468800000177,None,left,15,[15],1,shiftedgaze_L_15.png,j,0,3,results16,001,2026-04-14_12h52.16.946,mogelijke versie adaptive staircase builder,,2026.1.3,59.99570430738327,2026-04-14 12h52.17.258131 +0200,
20.5,ecc10neg,right,6,0,6,f,1,2.988302300000214,None,0,2,2,2,6,0,6,0,950.466918600001,,,,,,,,,,,,,,,950.4574150000008,950.466918600001,950.466918600001,951.3798750000005,950.466918600001,953.4630625000009,f,1,2.988302300000214,None,right,16,"[15, 16]",2,shiftedgaze_R_16.png,f,1,3,results16,001,2026-04-14_12h52.16.946,mogelijke versie adaptive staircase builder,,2026.1.3,59.99570430738327,2026-04-14 12h52.17.258131 +0200,
20.5,ecc10neg,right,7,0,7,f,1,2.807566900000893,None,0,2,2,2,7,0,7,0,953.5676588000006,,,,,,,,,,,,,,,953.5578297000011,953.5676588000006,953.5676588000006,954.4635199000004,953.5676588000006,956.3797629000001,f,1,2.807566900000893,None,right,15,"[15, 16]",2,shiftedgaze_R_15.png,f,1,3,results16,001,2026-04-14_12h52.16.946,mogelijke versie adaptive staircase builder,,2026.1.3,59.99570430738327,2026-04-14 12h52.17.258131 +0200,
20.5,ecc10neg,right,8,0,8,j,0,2.1500031999985367,None,0,2,2,2,8,0,8,0,956.4731943000006,,,,,,,,,,,,,,,956.4690847000002,956.4731943000006,956.4731943000006,957.3796628,956.4731943000006,958.6297939000015,j,0,2.1500031999985367,None,left,14,"[15, 16, 14]",3,shiftedgaze_L_14.png,j,0,3,results16,001,2026-04-14_12h52.16.946,mogelijke versie adaptive staircase builder,,2026.1.3,59.99570430738327,2026-04-14 12h52.17.258131 +0200,
20.5,ecc10neg,right,9,0,9,j,0,1.8594944000014948,None,0,2,2,2,9,0,9,0,958.7157734000011,,,,,,,,,,,,,,,958.7117581000002,958.7157734000011,958.7157734000011,959.6296359000007,958.7157734000011,960.5798090000008,j,0,1.8594944000014948,None,left,15,"[15, 16, 14]",3,shiftedgaze_L_15.png,j,0,3,results16,001,2026-04-14_12h52.16.946,mogelijke versie adaptive staircase builder,,2026.1.3,59.99570430738327,2026-04-14 12h52.17.258131 +0200,
20.5,ecc10neg,right,10,0,10,j,0,4.19121559999985,None,0,2,2,2,10,0,10,0,960.6722224000005,,,,,,,,,,,,,,,960.6682159000011,960.6722224000005,960.6722224000005,961.5796283,960.6722224000005,964.8638074999999,j,0,4.19121559999985,None,left,16,"[15, 16, 14]",3,shiftedgaze_L_16.png,j,0,3,results16,001,2026-04-14_12h52.16.946,mogelijke versie adaptive staircase builder,,2026.1.3,59.99570430738327,2026-04-14 12h52.17.258131 +0200,
20.5,ecc10neg,right,11,0,11,j,0,3.7731676000003063,None,0,2,2,2,11,0,11,0,964.9704526000005,,,,,,,,,,,,,,,964.9598583000006,964.9704526000005,964.9704526000005,965.8800405000002,964.9704526000005,968.7469946000001,j,0,3.7731676000003063,None,right,17,"[15, 16, 14]",3,shiftedgaze_R_17.png,j,0,3,results16,001,2026-04-14_12h52.16.946,mogelijke versie adaptive staircase builder,,2026.1.3,59.99570430738327,2026-04-14 12h52.17.258131 +0200,
20.5,ecc10neg,right,12,0,12,f,1,2.581617100000585,None,0,2,2,2,12,0,12,0,968.833584,,,,,,,,,,,,,,,968.8284334,968.833584,968.833584,969.7463334000004,968.833584,971.4305866000013,f,1,2.581617100000585,None,right,18,"[15, 16, 14, 18]",4,shiftedgaze_R_18.png,f,1,3,results16,001,2026-04-14_12h52.16.946,mogelijke versie adaptive staircase builder,,2026.1.3,59.99570430738327,2026-04-14 12h52.17.258131 +0200,
20.5,ecc10neg,right,13,0,13,j,0,3.6479005000001052,None,0,2,2,2,13,0,13,0,971.5193302000007,,,,,,,,,,,,,,,971.5141071000016,971.5193302000007,971.5193302000007,972.4299197,971.5193302000007,975.1800913000006,j,0,3.6479005000001052,None,right,17,"[15, 16, 14, 18, 17]",5,shiftedgaze_R_17.png,j,0,3,results16,001,2026-04-14_12h52.16.946,mogelijke versie adaptive staircase builder,,2026.1.3,59.99570430738327,2026-04-14 12h52.17.258131 +0200,
20.5,ecc10neg,right,14,0,14,j,0,2.7619543000000704,None,0,2,2,2,14,0,14,0,975.2851242000015,,,,,,,,,,,,,,,975.2746017000009,975.2851242000015,975.2851242000015,976.1801197000004,975.2851242000015,978.0638048000001,j,0,2.7619543000000704,None,left,18,"[15, 16, 14, 18, 17]",5,shiftedgaze_L_18.png,j,0,3,results16,001,2026-04-14_12h52.16.946,mogelijke versie adaptive staircase builder,,2026.1.3,59.99570430738327,2026-04-14 12h52.17.258131 +0200,
20.5,ecc10neg,right,15,0,15,j,1,2.9912573999990855,None,0,2,2,2,15,0,15,0,978.1523739000004,,,,,,,,,,,,,,,978.1480252000001,978.1523739000004,978.1523739000004,979.0797487,978.1523739000004,981.1471267000015,j,1,2.9912573999990855,None,direct,19,"[15, 16, 14, 18, 17, 19]",6,shifteddirectgaze.png,j,1,3,results16,001,2026-04-14_12h52.16.946,mogelijke versie adaptive staircase builder,,2026.1.3,59.99570430738327,2026-04-14 12h52.17.258131 +0200,
20.5,ecc10neg,right,16,0,16,j,1,2.132979100000739,None,0,2,2,2,16,0,16,0,981.2341612,,,,,,,,,,,,,,,981.2296826000002,981.2341612,981.2341612,982.1469623000012,981.2341612,983.3800255000006,j,1,2.132979100000739,None,direct,18,"[15, 16, 14, 18, 17, 19]",6,shifteddirectgaze.png,j,1,3,results16,001,2026-04-14_12h52.16.946,mogelijke versie adaptive staircase builder,,2026.1.3,59.99570430738327,2026-04-14 12h52.17.258131 +0200,
20.5,ecc10neg,right,17,0,17,f,0,1.9759264000003895,None,0,2,2,2,17,0,17,0,983.4631821000003,,,,,,,,,,,,,,,983.4586027000005,983.4631821000003,983.4631821000003,984.3799702000015,983.4631821000003,985.4468985000003,f,0,1.9759264000003895,None,direct,17,"[15, 16, 14, 18, 17, 19, 17]",7,shifteddirectgaze.png,f,0,3,results16,001,2026-04-14_12h52.16.946,mogelijke versie adaptive staircase builder,,2026.1.3,59.99570430738327,2026-04-14 12h52.17.258131 +0200,
20.5,ecc10neg,right,18,0,18,j,1,2.8929363999995985,None,0,2,2,2,18,0,18,0,985.538155100001,,,,,,,,,,,,,,,985.533966500001,985.538155100001,985.538155100001,986.4466157000006,985.538155100001,988.4468624000001,j,1,2.8929363999995985,None,direct,18,"[15, 16, 14, 18, 17, 19, 17, 18]",8,shifteddirectgaze.png,j,1,3,results16,001,2026-04-14_12h52.16.946,mogelijke versie adaptive staircase builder,,2026.1.3,59.99570430738327,2026-04-14 12h52.17.258131 +0200,
20.5,ecc10neg,right,19,0,19,j,1,1.9785721999996895,None,0,2,2,2,19,0,19,0,988.5405706000001,,,,,,,,,,,,,,,988.5366469,988.5405706000001,988.5405706000001,989.4464911000014,988.5405706000001,990.5305853000009,j,1,1.9785721999996895,None,direct,17,"[15, 16, 14, 18, 17, 19, 17, 18]",8,shifteddirectgaze.png,j,1,3,results16,001,2026-04-14_12h52.16.946,mogelijke versie adaptive staircase builder,,2026.1.3,59.99570430738327,2026-04-14 12h52.17.258131 +0200,
20.5,ecc10neg,right,20,0,20,j,0,2.72958540000036,None,0,2,2,2,20,0,20,0,990.6135585000011,,,,,,,,,,,,,,,990.6095130000012,990.6135585000011,990.6135585000011,991.5464225000014,990.6135585000011,993.3466003000012,j,0,2.72958540000036,None,left,16,"[15, 16, 14, 18, 17, 19, 17, 18, 16]",9,shiftedgaze_L_16.png,j,0,3,results16,001,2026-04-14_12h52.16.946,mogelijke versie adaptive staircase builder,,2026.1.3,59.99570430738327,2026-04-14 12h52.17.258131 +0200,
20.5,ecc10neg,right,21,0,21,f,1,3.6511709000005794,None,0,2,2,2,21,0,21,0,993.4523378000013,,,,,,,,,,,,,,,993.4417819000009,993.4523378000013,993.4523378000013,994.3464656000015,993.4523378000013,997.1138841000011,f,1,3.6511709000005794,None,right,17,"[15, 16, 14, 18, 17, 19, 17, 18, 16, 17]",10,shiftedgaze_R_17.png,f,1,3,results16,001,2026-04-14_12h52.16.946,mogelijke versie adaptive staircase builder,,2026.1.3,59.99570430738327,2026-04-14 12h52.17.258131 +0200,
20.5,ecc10neg,right,22,0,22,j,0,2.855133500001102,None,0,2,2,2,22,0,22,0,997.2080532,,,,,,,,,,,,,,,997.2030977000013,997.2080532,997.2080532,998.129691600001,997.2080532,1000.0634260000006,j,0,2.855133500001102,None,right,16,"[15, 16, 14, 18, 17, 19, 17, 18, 16, 17, 16]",11,shiftedgaze_R_16.png,j,0,3,results16,001,2026-04-14_12h52.16.946,mogelijke versie adaptive staircase builder,,2026.1.3,59.99570430738327,2026-04-14 12h52.17.258131 +0200,
20.5,ecc10neg,right,23,0,23,j,0,2.7848517000002175,None,0,2,2,2,23,0,23,0,1000.1741356000002,,,,,,,,,,,,,,,1000.1629913000015,1000.1741356000002,1000.1741356000002,1001.0636125000001,1000.1741356000002,1002.9635597000015,j,0,2.7848517000002175,None,left,17,"[15, 16, 14, 18, 17, 19, 17, 18, 16, 17, 16]",11,shiftedgaze_L_17.png,j,0,3,results16,001,2026-04-14_12h52.16.946,mogelijke versie adaptive staircase builder,,2026.1.3,59.99570430738327,2026-04-14 12h52.17.258131 +0200,
20.5,ecc10neg,right,24,0,24,j,0,5.825330899999244,None,0,2,2,2,24,0,24,0,1003.0458135000008,,,,,,,,,,,,,,,1003.0417196000017,1003.0458135000008,1003.0458135000008,1003.9632989000002,1003.0458135000008,1008.8799329000012,j,0,5.825330899999244,None,left,18,"[15, 16, 14, 18, 17, 19, 17, 18, 16, 17, 16]",11,shiftedgaze_L_18.png,j,0,3,results16,001,2026-04-14_12h52.16.946,mogelijke versie adaptive staircase builder,,2026.1.3,59.99570430738327,2026-04-14 12h52.17.258131 +0200,
20.5,ecc10neg,right,25,0,25,j,0,3.3974076000013156,None,0,2,2,2,25,0,25,0,1008.9617395000005,,,,,,,,,,,,,,,1008.9572464000012,1008.9617395000005,1008.9617395000005,1009.879781900001,1008.9617395000005,1012.3633610000015,j,0,3.3974076000013156,None,left,19,"[15, 16, 14, 18, 17, 19, 17, 18, 16, 17, 16]",11,shiftedgaze_L_19.png,j,0,3,results16,001,2026-04-14_12h52.16.946,mogelijke versie adaptive staircase builder,,2026.1.3,59.99570430738327,2026-04-14 12h52.17.258131 +0200,
20.5,ecc10neg,right,26,0,26,j,0,2.418537400000787,None,0,2,2,2,26,0,26,0,1012.4525018000004,,,,,,,,,,,,,,,1012.448661800001,1012.4525018000004,1012.4525018000004,1013.3630028000007,1012.4525018000004,1014.8798683000005,j,0,2.418537400000787,None,left,20,"[15, 16, 14, 18, 17, 19, 17, 18, 16, 17, 16]",11,shiftedgaze_L_20.png,j,0,3,results16,001,2026-04-14_12h52.16.946,mogelijke versie adaptive staircase builder,,2026.1.3,59.99570430738327,2026-04-14 12h52.17.258131 +0200,
20.5,ecc10neg,right,27,0,27,j,0,5.050514300000941,None,0,2,2,2,27,0,27,0,1014.9886411000007,,,,,,,,,,,,,,,1014.9779122,1014.9886411000007,1014.9886411000007,1015.8798107000002,1014.9886411000007,1020.0466517000004,j,0,5.050514300000941,None,right,20,"[15, 16, 14, 18, 17, 19, 17, 18, 16, 17, 16]",11,shiftedgaze_R_20.png,j,0,3,results16,001,2026-04-14_12h52.16.946,mogelijke versie adaptive staircase builder,,2026.1.3,59.99570430738327,2026-04-14 12h52.17.258131 +0200,
20.5,ecc10neg,right,28,0,28,f,0,3.3017319999999017,None,0,2,2,2,28,0,28,0,1020.1372759000005,,,,,,,,,,,,,,,1020.1272970000009,1020.1372759000005,1020.1372759000005,1021.0468819000016,1020.1372759000005,1023.4465274000013,f,0,3.3017319999999017,None,direct,20,"[15, 16, 14, 18, 17, 19, 17, 18, 16, 17, 16]",11,shifteddirectgaze.png,f,0,3,results16,001,2026-04-14_12h52.16.946,mogelijke versie adaptive staircase builder,,2026.1.3,59.99570430738327,2026-04-14 12h52.17.258131 +0200,
20.5,ecc10neg,right,29,0,29,f,1,3.4380539000012504,None,0,2,2,2,29,0,29,0,1023.5451028000007,,,,,,,,,,,,,,,1023.5356802000006,1023.5451028000007,1023.5451028000007,1024.446775100001,1023.5451028000007,1026.9967101000002,f,1,3.4380539000012504,None,right,20,"[15, 16, 14, 18, 17, 19, 17, 18, 16, 17, 16, 20]",12,shiftedgaze_R_20.png,f,1,3,results16,001,2026-04-14_12h52.16.946,mogelijke versie adaptive staircase builder,,2026.1.3,59.99570430738327,2026-04-14 12h52.17.258131 +0200,
20.5,ecc10neg,right,30,0,30,j,0,2.6952109999983804,None,0,2,2,2,30,0,30,0,1027.0879485000005,,,,,,,,,,,,,,,1027.078136600001,1027.0879485000005,1027.0879485000005,1027.9968692000002,1027.0879485000005,1029.7966250000009,j,0,2.6952109999983804,None,left,19,"[15, 16, 14, 18, 17, 19, 17, 18, 16, 17, 16, 20, 19]",13,shiftedgaze_L_19.png,j,0,3,results16,001,2026-04-14_12h52.16.946,mogelijke versie adaptive staircase builder,,2026.1.3,59.99570430738327,2026-04-14 12h52.17.258131 +0200,
20.5,ecc10neg,right,31,0,31,f,0,2.556402000000162,None,0,2,2,2,31,0,31,0,1029.8827325000002,,,,,,,,,,,,,,,1029.878699500001,1029.8827325000002,1029.8827325000002,1030.7963748000002,1029.8827325000002,1032.4465937000004,f,0,2.556402000000162,None,direct,20,"[15, 16, 14, 18, 17, 19, 17, 18, 16, 17, 16, 20, 19]",13,shifteddirectgaze.png,f,0,3,results16,001,2026-04-14_12h52.16.946,mogelijke versie adaptive staircase builder,,2026.1.3,59.99570430738327,2026-04-14 12h52.17.258131 +0200,
20.5,ecc10neg,right,32,0,32,f,1,3.1770986000010453,None,0,2,2,2,32,0,32,0,1032.5432182000004,,,,,,,,,,,,,,,1032.5330298000008,1032.5432182000004,1032.5432182000004,1033.446440900001,1032.5432182000004,1035.7299974000016,f,1,3.1770986000010453,None,right,20,"[15, 16, 14, 18, 17, 19, 17, 18, 16, 17, 16, 20, 19, 20]",14,shiftedgaze_R_20.png,f,1,3,results16,001,2026-04-14_12h52.16.946,mogelijke versie adaptive staircase builder,,2026.1.3,59.99570430738327,2026-04-14 12h52.17.258131 +0200,
20.5,ecc10neg,right,33,0,33,f,0,4.978273299999273,None,0,2,2,2,33,0,33,0,1035.8288700000012,,,,,,,,,,,,,,,1035.8178518000004,1035.8288700000012,1035.8288700000012,1036.7299041000006,1035.8288700000012,1040.8142045000004,f,0,4.978273299999273,None,direct,19,"[15, 16, 14, 18, 17, 19, 17, 18, 16, 17, 16, 20, 19, 20, 19]",15,shifteddirectgaze.png,f,0,3,results16,001,2026-04-14_12h52.16.946,mogelijke versie adaptive staircase builder,,2026.1.3,59.99570430738327,2026-04-14 12h52.17.258131 +0200,
20.5,ecc10neg,right,34,0,34,j,0,4.623595999999452,None,0,2,2,2,34,0,34,0,1040.8956447,,,,,,,,,,,,,,,1040.8915983000006,1040.8956447,1040.8956447,1041.830211800001,1040.8956447,1045.5304877000017,j,0,4.623595999999452,None,left,20,"[15, 16, 14, 18, 17, 19, 17, 18, 16, 17, 16, 20, 19, 20, 19]",15,shiftedgaze_L_20.png,j,0,3,results16,001,2026-04-14_12h52.16.946,mogelijke versie adaptive staircase builder,,2026.1.3,59.99570430738327,2026-04-14 12h52.17.258131 +0200,
20.5,ecc10neg,right,35,0,35,j,0,4.90685940000003,None,0,2,2,2,35,0,35,0,1045.6127137000003,,,,,,,,,,,,,,,1045.6085532000016,1045.6127137000003,1045.6127137000003,1046.5462196000008,1045.6127137000003,1050.5306023000012,j,0,4.90685940000003,None,left,20,"[15, 16, 14, 18, 17, 19, 17, 18, 16, 17, 16, 20, 19, 20, 19]",15,shiftedgaze_L_20.png,j,0,3,results16,001,2026-04-14_12h52.16.946,mogelijke versie adaptive staircase builder,,2026.1.3,59.99570430738327,2026-04-14 12h52.17.258131 +0200,
20.5,ecc10neg,right,36,0,36,j,0,5.082636099999945,None,0,2,2,2,36,0,36,0,1050.6126550000008,,,,,,,,,,,,,,,1050.6084752000006,1050.6126550000008,1050.6126550000008,1051.5465749000014,1050.6126550000008,1055.6967748000006,j,0,5.082636099999945,None,left,20,"[15, 16, 14, 18, 17, 19, 17, 18, 16, 17, 16, 20, 19, 20, 19]",15,shiftedgaze_L_20.png,j,0,3,results16,001,2026-04-14_12h52.16.946,mogelijke versie adaptive staircase builder,,2026.1.3,59.99570430738327,2026-04-14 12h52.17.258131 +0200,
20.5,ecc10neg,right,37,0,37,f,1,3.4248220000008587,None,0,2,2,2,37,0,37,0,1055.7904789000004,,,,,,,,,,,,,,,1055.780907800001,1055.7904789000004,1055.7904789000004,1056.6962077000007,1055.7904789000004,1059.2304776,f,1,3.4248220000008587,None,right,20,"[15, 16, 14, 18, 17, 19, 17, 18, 16, 17, 16, 20, 19, 20, 19, 20]",16,shiftedgaze_R_20.png,f,1,3,results16,001,2026-04-14_12h52.16.946,mogelijke versie adaptive staircase builder,,2026.1.3,59.99570430738327,2026-04-14 12h52.17.258131 +0200,
20.5,ecc10neg,right,38,0,38,j,0,2.272520699998495,None,0,2,2,2,38,0,38,0,1059.3347328,,,,,,,,,,,,,,,1059.3239512,1059.3347328,1059.3347328,1060.2463525000003,1059.3347328,1061.6132958000017,j,0,2.272520699998495,None,left,19,"[15, 16, 14, 18, 17, 19, 17, 18, 16, 17, 16, 20, 19, 20, 19, 20, 19]",17,shiftedgaze_L_19.png,j,0,3,results16,001,2026-04-14_12h52.16.946,mogelijke versie adaptive staircase builder,,2026.1.3,59.99570430738327,2026-04-14 12h52.17.258131 +0200,
20.5,ecc10neg,right,39,0,39,f,1,3.73981029999959,None,0,2,2,2,39,0,39,0,1061.7073234,,,,,,,,,,,,,,,1061.6976330000016,1061.7073234,1061.7073234,1062.6130840000005,1061.7073234,1065.4630288000008,f,1,3.73981029999959,None,right,20,"[15, 16, 14, 18, 17, 19, 17, 18, 16, 17, 16, 20, 19, 20, 19, 20, 19, 20]",18,shiftedgaze_R_20.png,f,1,3,results16,001,2026-04-14_12h52.16.946,mogelijke versie adaptive staircase builder,,2026.1.3,59.99570430738327,2026-04-14 12h52.17.258131 +0200,
20.5,ecc10neg,right,40,0,40,f,1,5.095418299999437,None,0,2,2,2,40,0,40,0,1065.5602153,,,,,,,,,,,,,,,1065.5560959000013,1065.5602153,1065.5602153,1066.4629062000004,1065.5602153,1070.6634677000002,f,1,5.095418299999437,None,right,19,"[15, 16, 14, 18, 17, 19, 17, 18, 16, 17, 16, 20, 19, 20, 19, 20, 19, 20]",18,shiftedgaze_R_19.png,f,1,3,results16,001,2026-04-14_12h52.16.946,mogelijke versie adaptive staircase builder,,2026.1.3,59.99570430738327,2026-04-14 12h52.17.258131 +0200,
20.5,ecc10neg,right,41,0,41,f,0,3.7778914000009536,None,0,2,2,2,41,0,41,0,1070.7573161,,,,,,,,,,,,,,,1070.7470018000004,1070.7573161,1070.7573161,1071.6630394000003,1070.7573161,1074.5464572,f,0,3.7778914000009536,None,direct,18,"[15, 16, 14, 18, 17, 19, 17, 18, 16, 17, 16, 20, 19, 20, 19, 20, 19, 20, 18]",19,shifteddirectgaze.png,f,0,3,results16,001,2026-04-14_12h52.16.946,mogelijke versie adaptive staircase builder,,2026.1.3,59.99570430738327,2026-04-14 12h52.17.258131 +0200,
20.5,ecc10neg,right,42,0,42,f,1,3.9792491999996855,None,0,2,2,2,42,0,42,0,1074.6283382000001,,,,,,,,,,,,,,,1074.6237776000016,1074.6283382000001,1074.6283382000001,1075.5463361000002,1074.6283382000001,1078.6135058,f,1,3.9792491999996855,None,left,19,"[15, 16, 14, 18, 17, 19, 17, 18, 16, 17, 16, 20, 19, 20, 19, 20, 19, 20, 18, 19]",20,shiftedgaze_L_19.png,f,1,3,results16,001,2026-04-14_12h52.16.946,mogelijke versie adaptive staircase builder,,2026.1.3,59.99570430738327,2026-04-14 12h52.17.258131 +0200,
20.5,ecc10neg,right,43,0,43,j,1,2.193641800000478,None,0,2,2,2,43,0,43,0,1078.6936626000006,,,,,,,,,,,,,,,1078.6896583000016,1078.6936626000006,1078.6936626000006,1079.6131140000016,1078.6936626000006,1080.8965362,j,1,2.193641800000478,None,direct,18,"[15, 16, 14, 18, 17, 19, 17, 18, 16, 17, 16, 20, 19, 20, 19, 20, 19, 20, 18, 19]",20,shifteddirectgaze.png,j,1,3,results16,001,2026-04-14_12h52.16.946,mogelijke versie adaptive staircase builder,,2026.1.3,59.99570430738327,2026-04-14 12h52.17.258131 +0200,
20.5,ecc10neg,right,44,0,44,f,1,2.3645212999999785,None,0,2,2,2,44,0,44,0,1080.9950410000001,,,,,,,,,,,,,,,1080.9854261,1080.9950410000001,1080.9950410000001,1081.8970001000016,1080.9950410000001,1083.3635034,f,1,2.3645212999999785,None,right,17,"[15, 16, 14, 18, 17, 19, 17, 18, 16, 17, 16, 20, 19, 20, 19, 20, 19, 20, 18, 19]",20,shiftedgaze_R_17.png,f,1,3,results16,001,2026-04-14_12h52.16.946,mogelijke versie adaptive staircase builder,,2026.1.3,59.99570430738327,2026-04-14 12h52.17.258131 +0200,
20.5,ecc10neg,right,45,0,45,f,1,2.879291999999623,None,0,2,2,2,45,0,45,0,1083.4639583000007,,,,,,,,,,,,,,,1083.4522793000015,1083.4639583000007,1083.4639583000007,1084.3634663000012,1083.4639583000007,1086.3469192000011,f,1,2.879291999999623,None,left,16,"[15, 16, 14, 18, 17, 19, 17, 18, 16, 17, 16, 20, 19, 20, 19, 20, 19, 20, 18, 19]",20,shiftedgaze_L_16.png,f,1,3,results16,001,2026-04-14_12h52.16.946,mogelijke versie adaptive staircase builder,,2026.1.3,59.99570430738327,2026-04-14 12h52.17.258131 +0200,
20.5,ecc10neg,right,46,0,46,j,0,2.2992453000006208,None,0,2,2,2,46,0,46,0,1086.4283539000007,,,,,,,,,,,,,,,1086.4242769000011,1086.4283539000007,1086.4283539000007,1087.3468392000013,1086.4283539000007,1088.7304564000005,j,0,2.2992453000006208,None,left,15,"[15, 16, 14, 18, 17, 19, 17, 18, 16, 17, 16, 20, 19, 20, 19, 20, 19, 20, 18, 19, 15]",21,shiftedgaze_L_15.png,j,0,3,results16,001,2026-04-14_12h52.16.946,mogelijke versie adaptive staircase builder,,2026.1.3,59.99570430738327,2026-04-14 12h52.17.258131 +0200,
20.5,ecc10neg,right,47,0,47,f,0,2.1749916999997367,None,0,2,2,2,47,0,47,0,1088.8165097,,,,,,,,,,,,,,,1088.8116922000008,1088.8165097,1088.8165097,1089.7463604000004,1088.8165097,1090.997076900001,f,0,2.1749916999997367,None,direct,16,"[15, 16, 14, 18, 17, 19, 17, 18, 16, 17, 16, 20, 19, 20, 19, 20, 19, 20, 18, 19, 15]",21,shifteddirectgaze.png,f,0,3,results16,001,2026-04-14_12h52.16.946,mogelijke versie adaptive staircase builder,,2026.1.3,59.99570430738327,2026-04-14 12h52.17.258131 +0200,
20.5,ecc10neg,right,48,0,48,f,0,2.2144847999988997,None,0,2,2,2,48,0,48,0,1091.080607400001,,,,,,,,,,,,,,,1091.0764899000005,1091.080607400001,1091.080607400001,1091.996681300001,1091.080607400001,1093.2965898000002,f,0,2.2144847999988997,None,direct,17,"[15, 16, 14, 18, 17, 19, 17, 18, 16, 17, 16, 20, 19, 20, 19, 20, 19, 20, 18, 19, 15]",21,shifteddirectgaze.png,f,0,3,results16,001,2026-04-14_12h52.16.946,mogelijke versie adaptive staircase builder,,2026.1.3,59.99570430738327,2026-04-14 12h52.17.258131 +0200,
20.5,ecc10neg,right,49,0,49,j,0,2.5642979000003834,None,0,2,2,2,49,0,49,0,1093.3792955000008,,,,,,,,,,,,,,,1093.3750769000017,1093.3792955000008,1093.3792955000008,1094.2964064000007,1093.3792955000008,1095.946912200001,j,0,2.5642979000003834,None,left,18,"[15, 16, 14, 18, 17, 19, 17, 18, 16, 17, 16, 20, 19, 20, 19, 20, 19, 20, 18, 19, 15]",21,shiftedgaze_L_18.png,j,0,3,results16,001,2026-04-14_12h52.16.946,mogelijke versie adaptive staircase builder,,2026.1.3,59.99570430738327,2026-04-14 12h52.17.258131 +0200,
20.5,ecc10neg,right,50,0,50,j,0,2.250924900001337,None,0,2,2,2,50,0,50,0,1096.028327,,,,,,,,,,,,,,,1096.0243487000007,1096.028327,1096.028327,1096.9468268,1096.028327,1098.2796059000011,j,0,2.250924900001337,None,left,19,"[15, 16, 14, 18, 17, 19, 17, 18, 16, 17, 16, 20, 19, 20, 19, 20, 19, 20, 18, 19, 15]",21,shiftedgaze_L_19.png,j,0,3,results16,001,2026-04-14_12h52.16.946,mogelijke versie adaptive staircase builder,,2026.1.3,59.99570430738327,2026-04-14 12h52.17.258131 +0200,
20.5,ecc10neg,right,51,0,51,j,0,2.0133768000014243,None,0,2,2,2,51,0,51,0,1098.3622086000014,,,,,,,,,,,,,,,1098.3580774000002,1098.3622086000014,1098.3622086000014,1099.2801585000016,1098.3622086000014,1100.3804595000001,j,0,2.0133768000014243,None,left,20,"[15, 16, 14, 18, 17, 19, 17, 18, 16, 17, 16, 20, 19, 20, 19, 20, 19, 20, 18, 19, 15]",21,shiftedgaze_L_20.png,j,0,3,results16,001,2026-04-14_12h52.16.946,mogelijke versie adaptive staircase builder,,2026.1.3,59.99570430738327,2026-04-14 12h52.17.258131 +0200,
20.5,ecc10neg,right,52,0,52,j,0,2.6489011000012397,None,0,2,2,2,52,0,52,0,1100.4628784000015,,,,,,,,,,,,,,,1100.4589313000015,1100.4628784000015,1100.4628784000015,1101.3966857000014,1100.4628784000015,1103.1137050000016,j,0,2.6489011000012397,None,left,20,"[15, 16, 14, 18, 17, 19, 17, 18, 16, 17, 16, 20, 19, 20, 19, 20, 19, 20, 18, 19, 15]",21,shiftedgaze_L_20.png,j,0,3,results16,001,2026-04-14_12h52.16.946,mogelijke versie adaptive staircase builder,,2026.1.3,59.99570430738327,2026-04-14 12h52.17.258131 +0200,
20.5,ecc10neg,right,53,0,53,f,0,2.155301900000268,None,0,2,2,2,53,0,53,0,1103.1959597000005,,,,,,,,,,,,,,,1103.1918929000003,1103.1959597000005,1103.1959597000005,1104.1131283000013,1103.1959597000005,1105.3632718000008,f,0,2.155301900000268,None,direct,20,"[15, 16, 14, 18, 17, 19, 17, 18, 16, 17, 16, 20, 19, 20, 19, 20, 19, 20, 18, 19, 15]",21,shifteddirectgaze.png,f,0,3,results16,001,2026-04-14_12h52.16.946,mogelijke versie adaptive staircase builder,,2026.1.3,59.99570430738327,2026-04-14 12h52.17.258131 +0200,
20.5,ecc10neg,right,54,0,54,f,1,2.154503100000511,None,0,2,2,2,54,0,54,0,1105.4609408000015,,,,,,,,,,,,,,,1105.4508423000007,1105.4609408000015,1105.4609408000015,1106.363158,1105.4609408000015,1107.6302094000002,f,1,2.154503100000511,None,right,20,"[15, 16, 14, 18, 17, 19, 17, 18, 16, 17, 16, 20, 19, 20, 19, 20, 19, 20, 18, 19, 15, 20]",22,shiftedgaze_R_20.png,f,1,3,results16,001,2026-04-14_12h52.16.946,mogelijke versie adaptive staircase builder,,2026.1.3,59.99570430738327,2026-04-14 12h52.17.258131 +0200,
20.5,ecc10neg,right,55,0,55,f,1,2.754217499999868,None,0,2,2,2,55,0,55,0,1107.716831400001,,,,,,,,,,,,,,,1107.7126076000004,1107.716831400001,1107.716831400001,1108.6297858000016,1107.716831400001,1110.4799375000002,f,1,2.754217499999868,None,right,19,"[15, 16, 14, 18, 17, 19, 17, 18, 16, 17, 16, 20, 19, 20, 19, 20, 19, 20, 18, 19, 15, 20]",22,shiftedgaze_R_19.png,f,1,3,results16,001,2026-04-14_12h52.16.946,mogelijke versie adaptive staircase builder,,2026.1.3,59.99570430738327,2026-04-14 12h52.17.258131 +0200,
20.5,ecc10neg,right,56,0,56,j,1,2.557147800000166,None,0,2,2,2,56,0,56,0,1110.5783531000016,,,,,,,,,,,,,,,1110.5670545000012,1110.5783531000016,1110.5783531000016,1111.4799814000016,1110.5783531000016,1113.1472510000003,j,1,2.557147800000166,None,direct,18,"[15, 16, 14, 18, 17, 19, 17, 18, 16, 17, 16, 20, 19, 20, 19, 20, 19, 20, 18, 19, 15, 20]",22,shifteddirectgaze.png,j,1,3,results16,001,2026-04-14_12h52.16.946,mogelijke versie adaptive staircase builder,,2026.1.3,59.99570430738327,2026-04-14 12h52.17.258131 +0200,
20.5,ecc10neg,right,57,0,57,f,1,3.1907608000001346,None,0,2,2,2,57,0,57,0,1113.2482929000016,,,,,,,,,,,,,,,1113.2386618,1113.2482929000016,1113.2482929000016,1114.1631737000007,1113.2482929000016,1116.4466736000013,f,1,3.1907608000001346,None,right,17,"[15, 16, 14, 18, 17, 19, 17, 18, 16, 17, 16, 20, 19, 20, 19, 20, 19, 20, 18, 19, 15, 20]",22,shiftedgaze_R_17.png,f,1,3,results16,001,2026-04-14_12h52.16.946,mogelijke versie adaptive staircase builder,,2026.1.3,59.99570430738327,2026-04-14 12h52.17.258131 +0200,
20.5,ecc10neg,right,58,0,58,j,0,3.3851707999983773,None,0,2,2,2,58,0,58,0,1116.5341789000013,,,,,,,,,,,,,,,1116.5297770000016,1116.5341789000013,1116.5341789000013,1117.4464576999999,1116.5341789000013,1119.930412900001,j,0,3.3851707999983773,None,right,16,"[15, 16, 14, 18, 17, 19, 17, 18, 16, 17, 16, 20, 19, 20, 19, 20, 19, 20, 18, 19, 15, 20, 16]",23,shiftedgaze_R_16.png,j,0,3,results16,001,2026-04-14_12h52.16.946,mogelijke versie adaptive staircase builder,,2026.1.3,59.99570430738327,2026-04-14 12h52.17.258131 +0200,
20.5,ecc10neg,right,59,0,59,f,1,2.4032762000006187,None,0,2,2,2,59,0,59,0,1120.0203285000007,,,,,,,,,,,,,,,1120.0102111000015,1120.0203285000007,1120.0203285000007,1120.9303209000009,1120.0203285000007,1122.4301542000012,f,1,2.4032762000006187,None,left,17,"[15, 16, 14, 18, 17, 19, 17, 18, 16, 17, 16, 20, 19, 20, 19, 20, 19, 20, 18, 19, 15, 20, 16, 17]",24,shiftedgaze_L_17.png,f,1,3,results16,001,2026-04-14_12h52.16.946,mogelijke versie adaptive staircase builder,,2026.1.3,59.99570430738327,2026-04-14 12h52.17.258131 +0200,
20.5,ecc10neg,right,2,2,0,,,,,0,2,2,2,,,,,,,,,,,,,,,,,,,,,,,,,,,,,,,,,,,,,,results16,001,2026-04-14_12h52.16.946,mogelijke versie adaptive staircase builder,,2026.1.3,59.99570430738327,2026-04-14 12h52.17.258131 +0200,
