xPos,stimulusSet,whichImage,thisN,thisTrialN,thisRepN,key_resp.keys,key_resp.corr,key_resp.rt,key_resp.duration,blocks.thisRepN,blocks.thisTrialN,blocks.thisN,blocks.thisIndex,trials.thisRepN,trials.thisTrialN,trials.thisN,trials.thisIndex,thisRow.t,notes,piloting,intro.started,introinstructions.started,intro_key.started,demo_image_left.started,demo_image_middle.started,demo_image_right.started,intro.stopped,intro_key.keys,intro_key.rt,intro_key.duration,block_start.started,block_start.stopped,trial.started,key_resp.started,middle_image.started,right_image.started,left_image.started,trial.stopped,trials.key_resp.keys,trials.key_resp.corr,trials.key_resp.rt,trials.key_resp.duration,direction,angle,reversal_intensities,number_reversals,stimulus,response,correct,blockNumber,participant,session,date,expName,expVersion,psychopyVersion,frameRate,expStart
,,,,,,,,,,,,,,,,,,,,False,0.0524632,0.0622411,0.0622411,0.0622411,0.0622411,0.0622411,11.3501085,space,11.1382188,0.1440089,,,,,,,,,,,,,,,,,,,,,results33,1,2026-04-20_15h29.21.872,mogelijke versie adaptive staircase builder,,2026.1.3,59.98325268,2026-04-20 15h29.22.227789 +0200
4.5,ecc10pos,left,0,0,0,j,0,11.36653,None,0,0,0,0,0,0,0,0,11.6340413,,,,,,,,,,,,,11.5212868,11.5213343,11.6244612,11.6340413,11.6340413,11.6340413,12.5331176,23.0165897,j,0,11.36653,None,right,20,[],0,shiftedgaze_R_20.png,j,0,1,results33,1,2026-04-20_15h29.21.872,mogelijke versie adaptive staircase builder,,2026.1.3,59.98325268,2026-04-20 15h29.22.227789 +0200
4.5,ecc10pos,left,1,0,1,f,0,2.6019856,None,0,0,0,0,1,0,1,0,23.1104656,,,,,,,,,,,,,,,23.0988991,23.1104656,23.1104656,23.1104656,24.0161752,25.7164076,f,0,2.6019856,None,direct,20,[],0,shifteddirectgaze.png,f,0,1,results33,1,2026-04-20_15h29.21.872,mogelijke versie adaptive staircase builder,,2026.1.3,59.98325268,2026-04-20 15h29.22.227789 +0200
4.5,ecc10pos,left,2,0,2,f,1,5.5520894,None,0,0,0,0,2,0,2,0,25.8083857,,,,,,,,,,,,,,,25.7980173,25.8083857,25.8083857,25.8083857,26.7161083,31.3665,f,1,5.5520894,None,right,20,[20],1,shiftedgaze_R_20.png,f,1,1,results33,1,2026-04-20_15h29.21.872,mogelijke versie adaptive staircase builder,,2026.1.3,59.98325268,2026-04-20 15h29.22.227789 +0200
4.5,ecc10pos,left,3,0,3,j,1,2.7470636,None,0,0,0,0,3,0,3,0,31.461483,,,,,,,,,,,,,,,31.4499801,31.461483,31.461483,31.461483,32.3661718,34.2164279,j,1,2.7470636,None,direct,19,[20],1,shifteddirectgaze.png,j,1,1,results33,1,2026-04-20_15h29.21.872,mogelijke versie adaptive staircase builder,,2026.1.3,59.98325268,2026-04-20 15h29.22.227789 +0200
4.5,ecc10pos,left,4,0,4,f,1,7.8662637,None,0,0,0,0,4,0,4,0,34.342208,,,,,,,,,,,,,,,34.3302058,34.342208,34.342208,34.342208,35.2161391,42.2163545,f,1,7.8662637,None,left,18,[20],1,shiftedgaze_L_18.png,f,1,1,results33,1,2026-04-20_15h29.21.872,mogelijke versie adaptive staircase builder,,2026.1.3,59.98325268,2026-04-20 15h29.22.227789 +0200
4.5,ecc10pos,left,5,0,5,j,0,3.343354,None,0,0,0,0,5,0,5,0,42.3371353,,,,,,,,,,,,,,,42.3254106,42.3371353,42.3371353,42.3371353,43.2160631,45.6828588,j,0,3.343354,None,right,17,"[20, 17]",2,shiftedgaze_R_17.png,j,0,1,results33,1,2026-04-20_15h29.21.872,mogelijke versie adaptive staircase builder,,2026.1.3,59.98325268,2026-04-20 15h29.22.227789 +0200
4.5,ecc10pos,left,6,0,6,j,1,2.0417701,None,0,0,0,0,6,0,6,0,45.7747472,,,,,,,,,,,,,,,45.76398,45.7747472,45.7747472,45.7747472,46.6826588,47.8328427,j,1,2.0417701,None,direct,18,"[20, 17, 18]",3,shifteddirectgaze.png,j,1,1,results33,1,2026-04-20_15h29.21.872,mogelijke versie adaptive staircase builder,,2026.1.3,59.98325268,2026-04-20 15h29.22.227789 +0200
4.5,ecc10pos,left,7,0,7,f,1,3.3466041,None,0,0,0,0,7,0,7,0,47.9267312,,,,,,,,,,,,,,,47.9155833,47.9267312,47.9267312,47.9267312,48.8326514,51.2829209,f,1,3.3466041,None,right,17,"[20, 17, 18]",3,shiftedgaze_R_17.png,f,1,1,results33,1,2026-04-20_15h29.21.872,mogelijke versie adaptive staircase builder,,2026.1.3,59.98325268,2026-04-20 15h29.22.227789 +0200
4.5,ecc10pos,left,8,0,8,j,1,2.8103673,None,0,0,0,0,8,0,8,0,51.3742447,,,,,,,,,,,,,,,51.3634919,51.3742447,51.3742447,51.3742447,52.2825335,54.1995692,j,1,2.8103673,None,direct,16,"[20, 17, 18]",3,shifteddirectgaze.png,j,1,1,results33,1,2026-04-20_15h29.21.872,mogelijke versie adaptive staircase builder,,2026.1.3,59.98325268,2026-04-20 15h29.22.227789 +0200
4.5,ecc10pos,left,9,0,9,j,0,2.3308978,None,0,0,0,0,9,0,9,0,54.3018853,,,,,,,,,,,,,,,54.2906747,54.3018853,54.3018853,54.3018853,55.1992408,56.6329623,j,0,2.3308978,None,left,15,"[20, 17, 18, 15]",4,shiftedgaze_L_15.png,j,0,1,results33,1,2026-04-20_15h29.21.872,mogelijke versie adaptive staircase builder,,2026.1.3,59.98325268,2026-04-20 15h29.22.227789 +0200
4.5,ecc10pos,left,10,0,10,j,0,2.7222556,None,0,0,0,0,10,0,10,0,56.7508116,,,,,,,,,,,,,,,56.7390016,56.7508116,56.7508116,56.7508116,57.6325968,59.4830739,j,0,2.7222556,None,left,16,"[20, 17, 18, 15]",4,shiftedgaze_L_16.png,j,0,1,results33,1,2026-04-20_15h29.21.872,mogelijke versie adaptive staircase builder,,2026.1.3,59.98325268,2026-04-20 15h29.22.227789 +0200
4.5,ecc10pos,left,11,0,11,j,0,1.9496319,None,0,0,0,0,11,0,11,0,59.5868812,,,,,,,,,,,,,,,59.574933,59.5868812,59.5868812,59.5868812,60.4825637,61.5494376,j,0,1.9496319,None,left,17,"[20, 17, 18, 15]",4,shiftedgaze_L_17.png,j,0,1,results33,1,2026-04-20_15h29.21.872,mogelijke versie adaptive staircase builder,,2026.1.3,59.98325268,2026-04-20 15h29.22.227789 +0200
4.5,ecc10pos,left,12,0,12,j,0,1.9285227,None,0,0,0,0,12,0,12,0,61.6640279,,,,,,,,,,,,,,,61.6526934,61.6640279,61.6640279,61.6640279,62.549111,63.5994931,j,0,1.9285227,None,right,18,"[20, 17, 18, 15]",4,shiftedgaze_R_18.png,j,0,1,results33,1,2026-04-20_15h29.21.872,mogelijke versie adaptive staircase builder,,2026.1.3,59.98325268,2026-04-20 15h29.22.227789 +0200
4.5,ecc10pos,left,13,0,13,f,1,2.4885617,None,0,0,0,0,13,0,13,0,63.7119023,,,,,,,,,,,,,,,63.7018652,63.7119023,63.7119023,63.7119023,64.5989925,66.2161185,f,1,2.4885617,None,right,19,"[20, 17, 18, 15, 19]",5,shiftedgaze_R_19.png,f,1,1,results33,1,2026-04-20_15h29.21.872,mogelijke versie adaptive staircase builder,,2026.1.3,59.98325268,2026-04-20 15h29.22.227789 +0200
4.5,ecc10pos,left,14,0,14,j,0,1.9132514,None,0,0,0,0,14,0,14,0,66.3194155,,,,,,,,,,,,,,,66.3077665,66.3194155,66.3194155,66.3194155,67.2157374,68.2493064,j,0,1.9132514,None,right,18,"[20, 17, 18, 15, 19, 18]",6,shiftedgaze_R_18.png,j,0,1,results33,1,2026-04-20_15h29.21.872,mogelijke versie adaptive staircase builder,,2026.1.3,59.98325268,2026-04-20 15h29.22.227789 +0200
4.5,ecc10pos,left,15,0,15,j,0,2.8572074,None,0,0,0,0,15,0,15,0,68.3513879,,,,,,,,,,,,,,,68.340983,68.3513879,68.3513879,68.3513879,69.248941,71.2159341,j,0,2.8572074,None,right,19,"[20, 17, 18, 15, 19, 18]",6,shiftedgaze_R_19.png,j,0,1,results33,1,2026-04-20_15h29.21.872,mogelijke versie adaptive staircase builder,,2026.1.3,59.98325268,2026-04-20 15h29.22.227789 +0200
4.5,ecc10pos,left,16,0,16,j,0,2.1477763,None,0,0,0,0,16,0,16,0,71.3408914,,,,,,,,,,,,,,,71.3292869,71.3408914,71.3408914,71.3408914,72.2155432,73.499228,j,0,2.1477763,None,left,20,"[20, 17, 18, 15, 19, 18]",6,shiftedgaze_L_20.png,j,0,1,results33,1,2026-04-20_15h29.21.872,mogelijke versie adaptive staircase builder,,2026.1.3,59.98325268,2026-04-20 15h29.22.227789 +0200
4.5,ecc10pos,left,17,0,17,j,0,2.355912,None,0,0,0,0,17,0,17,0,73.5966211,,,,,,,,,,,,,,,73.5858421,73.5966211,73.5966211,73.5966211,74.4989549,75.9657294,j,0,2.355912,None,left,20,"[20, 17, 18, 15, 19, 18]",6,shiftedgaze_L_20.png,j,0,1,results33,1,2026-04-20_15h29.21.872,mogelijke versie adaptive staircase builder,,2026.1.3,59.98325268,2026-04-20 15h29.22.227789 +0200
4.5,ecc10pos,left,18,0,18,f,1,2.3613451,None,0,0,0,0,18,0,18,0,76.0631537,,,,,,,,,,,,,,,76.0514031,76.0631537,76.0631537,76.0631537,76.9656039,78.4325033,f,1,2.3613451,None,left,20,"[20, 17, 18, 15, 19, 18, 20]",7,shiftedgaze_L_20.png,f,1,1,results33,1,2026-04-20_15h29.21.872,mogelijke versie adaptive staircase builder,,2026.1.3,59.98325268,2026-04-20 15h29.22.227789 +0200
4.5,ecc10pos,left,19,0,19,j,1,2.2869521,None,0,0,0,0,19,0,19,0,78.5455454,,,,,,,,,,,,,,,78.5338723,78.5455454,78.5455454,78.5455454,79.4320457,80.8490722,j,1,2.2869521,None,direct,19,"[20, 17, 18, 15, 19, 18, 20]",7,shifteddirectgaze.png,j,1,1,results33,1,2026-04-20_15h29.21.872,mogelijke versie adaptive staircase builder,,2026.1.3,59.98325268,2026-04-20 15h29.22.227789 +0200
4.5,ecc10pos,left,20,0,20,j,1,2.2915106,None,0,0,0,0,20,0,20,0,80.941056,,,,,,,,,,,,,,,80.9296702,80.941056,80.941056,80.941056,81.8488428,83.2491017,j,1,2.2915106,None,direct,18,"[20, 17, 18, 15, 19, 18, 20]",7,shifteddirectgaze.png,j,1,1,results33,1,2026-04-20_15h29.21.872,mogelijke versie adaptive staircase builder,,2026.1.3,59.98325268,2026-04-20 15h29.22.227789 +0200
4.5,ecc10pos,left,21,0,21,j,1,2.3406586,None,0,0,0,0,21,0,21,0,83.3399238,,,,,,,,,,,,,,,83.3292841,83.3399238,83.3399238,83.3399238,84.2488715,85.6826289,j,1,2.3406586,None,direct,17,"[20, 17, 18, 15, 19, 18, 20]",7,shifteddirectgaze.png,j,1,1,results33,1,2026-04-20_15h29.21.872,mogelijke versie adaptive staircase builder,,2026.1.3,59.98325268,2026-04-20 15h29.22.227789 +0200
4.5,ecc10pos,left,22,0,22,j,0,2.8230584,None,0,0,0,0,22,0,22,0,85.8014522,,,,,,,,,,,,,,,85.7899706,85.8014522,85.8014522,85.8014522,86.6820758,88.6325891,j,0,2.8230584,None,left,16,"[20, 17, 18, 15, 19, 18, 20, 16]",8,shiftedgaze_L_16.png,j,0,1,results33,1,2026-04-20_15h29.21.872,mogelijke versie adaptive staircase builder,,2026.1.3,59.98325268,2026-04-20 15h29.22.227789 +0200
4.5,ecc10pos,left,23,0,23,j,0,3.9614304,None,0,0,0,0,23,0,23,0,88.7440378,,,,,,,,,,,,,,,88.7325854,88.7440378,88.7440378,88.7440378,89.6320972,92.7156669,j,0,3.9614304,None,right,17,"[20, 17, 18, 15, 19, 18, 20, 16]",8,shiftedgaze_R_17.png,j,0,1,results33,1,2026-04-20_15h29.21.872,mogelijke versie adaptive staircase builder,,2026.1.3,59.98325268,2026-04-20 15h29.22.227789 +0200
4.5,ecc10pos,left,24,0,24,f,1,5.2003213,None,0,0,0,0,24,0,24,0,92.8081747,,,,,,,,,,,,,,,92.7969778,92.8081747,92.8081747,92.8081747,93.7153982,98.0158081,f,1,5.2003213,None,right,18,"[20, 17, 18, 15, 19, 18, 20, 16, 18]",9,shiftedgaze_R_18.png,f,1,1,results33,1,2026-04-20_15h29.21.872,mogelijke versie adaptive staircase builder,,2026.1.3,59.98325268,2026-04-20 15h29.22.227789 +0200
4.5,ecc10pos,left,25,0,25,f,1,3.275469,None,0,0,0,0,25,0,25,0,98.1331687,,,,,,,,,,,,,,,98.1217311,98.1331687,98.1331687,98.1331687,99.0154645,101.4155787,f,1,3.275469,None,left,17,"[20, 17, 18, 15, 19, 18, 20, 16, 18]",9,shiftedgaze_L_17.png,f,1,1,results33,1,2026-04-20_15h29.21.872,mogelijke versie adaptive staircase builder,,2026.1.3,59.98325268,2026-04-20 15h29.22.227789 +0200
4.5,ecc10pos,left,26,0,26,j,0,2.8883268,None,0,0,0,0,26,0,26,0,101.512281,,,,,,,,,,,,,,,101.5014013,101.512281,101.512281,101.512281,102.415306,104.4155362,j,0,2.8883268,None,left,16,"[20, 17, 18, 15, 19, 18, 20, 16, 18, 16]",10,shiftedgaze_L_16.png,j,0,1,results33,1,2026-04-20_15h29.21.872,mogelijke versie adaptive staircase builder,,2026.1.3,59.98325268,2026-04-20 15h29.22.227789 +0200
4.5,ecc10pos,left,27,0,27,j,0,4.4939535,None,0,0,0,0,27,0,27,0,104.5146337,,,,,,,,,,,,,,,104.5033612,104.5146337,104.5146337,104.5146337,105.4154204,109.015521,j,0,4.4939535,None,left,17,"[20, 17, 18, 15, 19, 18, 20, 16, 18, 16]",10,shiftedgaze_L_17.png,j,0,1,results33,1,2026-04-20_15h29.21.872,mogelijke versie adaptive staircase builder,,2026.1.3,59.98325268,2026-04-20 15h29.22.227789 +0200
4.5,ecc10pos,left,28,0,28,j,1,3.3041948,None,0,0,0,0,28,0,28,0,109.128327,,,,,,,,,,,,,,,109.1168122,109.128327,109.128327,109.128327,110.0151435,112.4489051,j,1,3.3041948,None,direct,18,"[20, 17, 18, 15, 19, 18, 20, 16, 18, 16, 18]",11,shifteddirectgaze.png,j,1,1,results33,1,2026-04-20_15h29.21.872,mogelijke versie adaptive staircase builder,,2026.1.3,59.98325268,2026-04-20 15h29.22.227789 +0200
4.5,ecc10pos,left,29,0,29,j,1,3.8370214,None,0,0,0,0,29,0,29,0,112.5475988,,,,,,,,,,,,,,,112.5362664,112.5475988,112.5475988,112.5475988,113.4484946,116.398837,j,1,3.8370214,None,direct,17,"[20, 17, 18, 15, 19, 18, 20, 16, 18, 16, 18]",11,shifteddirectgaze.png,j,1,1,results33,1,2026-04-20_15h29.21.872,mogelijke versie adaptive staircase builder,,2026.1.3,59.98325268,2026-04-20 15h29.22.227789 +0200
4.5,ecc10pos,left,30,0,30,f,0,4.5360345,None,0,0,0,0,30,0,30,0,116.4965864,,,,,,,,,,,,,,,116.486206,116.4965864,116.4965864,116.4965864,117.3984331,121.0486128,f,0,4.5360345,None,direct,16,"[20, 17, 18, 15, 19, 18, 20, 16, 18, 16, 18, 16]",12,shifteddirectgaze.png,f,0,1,results33,1,2026-04-20_15h29.21.872,mogelijke versie adaptive staircase builder,,2026.1.3,59.98325268,2026-04-20 15h29.22.227789 +0200
4.5,ecc10pos,left,31,0,31,f,1,6.5221489,None,0,0,0,0,31,0,31,0,121.1663703,,,,,,,,,,,,,,,121.1544617,121.1663703,121.1663703,121.1663703,122.0484609,127.69858,f,1,6.5221489,None,left,17,"[20, 17, 18, 15, 19, 18, 20, 16, 18, 16, 18, 16, 17]",13,shiftedgaze_L_17.png,f,1,1,results33,1,2026-04-20_15h29.21.872,mogelijke versie adaptive staircase builder,,2026.1.3,59.98325268,2026-04-20 15h29.22.227789 +0200
4.5,ecc10pos,left,32,0,32,j,0,3.6204445,None,0,0,0,0,32,0,32,0,127.8122734,,,,,,,,,,,,,,,127.8008771,127.8122734,127.8122734,127.8122734,128.6982749,131.4485085,j,0,3.6204445,None,right,16,"[20, 17, 18, 15, 19, 18, 20, 16, 18, 16, 18, 16, 17, 16]",14,shiftedgaze_R_16.png,j,0,1,results33,1,2026-04-20_15h29.21.872,mogelijke versie adaptive staircase builder,,2026.1.3,59.98325268,2026-04-20 15h29.22.227789 +0200
4.5,ecc10pos,left,33,0,33,j,1,3.1360919,None,0,0,0,0,33,0,33,0,131.5445229,,,,,,,,,,,,,,,131.533844,131.5445229,131.5445229,131.5445229,132.4482377,134.6819172,j,1,3.1360919,None,direct,17,"[20, 17, 18, 15, 19, 18, 20, 16, 18, 16, 18, 16, 17, 16, 17]",15,shifteddirectgaze.png,j,1,1,results33,1,2026-04-20_15h29.21.872,mogelijke versie adaptive staircase builder,,2026.1.3,59.98325268,2026-04-20 15h29.22.227789 +0200
4.5,ecc10pos,left,34,0,34,j,0,7.5551903,None,0,0,0,0,34,0,34,0,134.8053315,,,,,,,,,,,,,,,134.7933995,134.8053315,134.8053315,134.8053315,135.6815179,142.3650467,j,0,7.5551903,None,left,16,"[20, 17, 18, 15, 19, 18, 20, 16, 18, 16, 18, 16, 17, 16, 17, 16]",16,shiftedgaze_L_16.png,j,0,1,results33,1,2026-04-20_15h29.21.872,mogelijke versie adaptive staircase builder,,2026.1.3,59.98325268,2026-04-20 15h29.22.227789 +0200
4.5,ecc10pos,left,35,0,35,j,1,3.2266899,None,0,0,0,0,35,0,35,0,142.4782704,,,,,,,,,,,,,,,142.4671746,142.4782704,142.4782704,142.4782704,143.3647873,145.7149228,j,1,3.2266899,None,direct,17,"[20, 17, 18, 15, 19, 18, 20, 16, 18, 16, 18, 16, 17, 16, 17, 16, 17]",17,shifteddirectgaze.png,j,1,1,results33,1,2026-04-20_15h29.21.872,mogelijke versie adaptive staircase builder,,2026.1.3,59.98325268,2026-04-20 15h29.22.227789 +0200
4.5,ecc10pos,left,36,0,36,f,0,4.5440887,None,0,0,0,0,36,0,36,0,145.8085146,,,,,,,,,,,,,,,145.7975389,145.8085146,145.8085146,145.8085146,146.7146352,150.3648628,f,0,4.5440887,None,direct,16,"[20, 17, 18, 15, 19, 18, 20, 16, 18, 16, 18, 16, 17, 16, 17, 16, 17, 16]",18,shifteddirectgaze.png,f,0,1,results33,1,2026-04-20_15h29.21.872,mogelijke versie adaptive staircase builder,,2026.1.3,59.98325268,2026-04-20 15h29.22.227789 +0200
4.5,ecc10pos,left,37,0,37,f,1,2.3772373,None,0,0,0,0,37,0,37,0,150.4553353,,,,,,,,,,,,,,,150.4446882,150.4553353,150.4553353,150.4553353,151.3645008,152.8483164,f,1,2.3772373,None,right,17,"[20, 17, 18, 15, 19, 18, 20, 16, 18, 16, 18, 16, 17, 16, 17, 16, 17, 16, 17]",19,shiftedgaze_R_17.png,f,1,1,results33,1,2026-04-20_15h29.21.872,mogelijke versie adaptive staircase builder,,2026.1.3,59.98325268,2026-04-20 15h29.22.227789 +0200
4.5,ecc10pos,left,38,0,38,j,1,3.9547797,None,0,0,0,0,38,0,38,0,152.9419477,,,,,,,,,,,,,,,152.9305299,152.9419477,152.9419477,152.9419477,153.8479318,156.8985913,j,1,3.9547797,None,direct,16,"[20, 17, 18, 15, 19, 18, 20, 16, 18, 16, 18, 16, 17, 16, 17, 16, 17, 16, 17]",19,shifteddirectgaze.png,j,1,1,results33,1,2026-04-20_15h29.21.872,mogelijke versie adaptive staircase builder,,2026.1.3,59.98325268,2026-04-20 15h29.22.227789 +0200
4.5,ecc10pos,left,39,0,39,j,0,3.1751053,None,0,0,0,0,39,0,39,0,157.0015413,,,,,,,,,,,,,,,156.9908691,157.0015413,157.0015413,157.0015413,157.9145593,160.181477,j,0,3.1751053,None,left,15,"[20, 17, 18, 15, 19, 18, 20, 16, 18, 16, 18, 16, 17, 16, 17, 16, 17, 16, 17, 15]",20,shiftedgaze_L_15.png,j,0,1,results33,1,2026-04-20_15h29.21.872,mogelijke versie adaptive staircase builder,,2026.1.3,59.98325268,2026-04-20 15h29.22.227789 +0200
4.5,ecc10pos,left,40,0,40,f,0,5.9182959,None,0,0,0,0,40,0,40,0,160.2823499,,,,,,,,,,,,,,,160.2718055,160.2823499,160.2823499,160.2823499,161.1811724,166.2148471,f,0,5.9182959,None,direct,16,"[20, 17, 18, 15, 19, 18, 20, 16, 18, 16, 18, 16, 17, 16, 17, 16, 17, 16, 17, 15]",20,shifteddirectgaze.png,f,0,1,results33,1,2026-04-20_15h29.21.872,mogelijke versie adaptive staircase builder,,2026.1.3,59.98325268,2026-04-20 15h29.22.227789 +0200
4.5,ecc10pos,left,41,0,41,j,0,3.339378,None,0,0,0,0,41,0,41,0,166.3331926,,,,,,,,,,,,,,,166.3216473,166.3331926,166.3331926,166.3331926,167.2144774,169.6814683,j,0,3.339378,None,left,17,"[20, 17, 18, 15, 19, 18, 20, 16, 18, 16, 18, 16, 17, 16, 17, 16, 17, 16, 17, 15]",20,shiftedgaze_L_17.png,j,0,1,results33,1,2026-04-20_15h29.21.872,mogelijke versie adaptive staircase builder,,2026.1.3,59.98325268,2026-04-20 15h29.22.227789 +0200
4.5,ecc10pos,left,42,0,42,f,1,4.742492,None,0,0,0,0,42,0,42,0,169.8021355,,,,,,,,,,,,,,,169.7914166,169.8021355,169.8021355,169.8021355,170.6810736,174.548013,f,1,4.742492,None,right,18,"[20, 17, 18, 15, 19, 18, 20, 16, 18, 16, 18, 16, 17, 16, 17, 16, 17, 16, 17, 15, 18]",21,shiftedgaze_R_18.png,f,1,1,results33,1,2026-04-20_15h29.21.872,mogelijke versie adaptive staircase builder,,2026.1.3,59.98325268,2026-04-20 15h29.22.227789 +0200
4.5,ecc10pos,left,43,0,43,j,1,2.520437,None,0,0,0,0,43,0,43,0,174.6400742,,,,,,,,,,,,,,,174.6292714,174.6400742,174.6400742,174.6400742,175.5477004,177.1646126,j,1,2.520437,None,direct,17,"[20, 17, 18, 15, 19, 18, 20, 16, 18, 16, 18, 16, 17, 16, 17, 16, 17, 16, 17, 15, 18]",21,shifteddirectgaze.png,j,1,1,results33,1,2026-04-20_15h29.21.872,mogelijke versie adaptive staircase builder,,2026.1.3,59.98325268,2026-04-20 15h29.22.227789 +0200
4.5,ecc10pos,left,44,0,44,j,0,3.2539502,None,0,0,0,0,44,0,44,0,177.2586917,,,,,,,,,,,,,,,177.2476828,177.2586917,177.2586917,177.2586917,178.1643124,180.5146302,j,0,3.2539502,None,right,16,"[20, 17, 18, 15, 19, 18, 20, 16, 18, 16, 18, 16, 17, 16, 17, 16, 17, 16, 17, 15, 18, 16]",22,shiftedgaze_R_16.png,j,0,1,results33,1,2026-04-20_15h29.21.872,mogelijke versie adaptive staircase builder,,2026.1.3,59.98325268,2026-04-20 15h29.22.227789 +0200
4.5,ecc10pos,left,45,0,45,j,0,4.9659614,None,0,0,0,0,45,0,45,0,180.6346245,,,,,,,,,,,,,,,180.622995,180.6346245,180.6346245,180.6346245,181.5143012,185.6144414,j,0,4.9659614,None,left,17,"[20, 17, 18, 15, 19, 18, 20, 16, 18, 16, 18, 16, 17, 16, 17, 16, 17, 16, 17, 15, 18, 16]",22,shiftedgaze_L_17.png,j,0,1,results33,1,2026-04-20_15h29.21.872,mogelijke versie adaptive staircase builder,,2026.1.3,59.98325268,2026-04-20 15h29.22.227789 +0200
4.5,ecc10pos,left,46,0,46,j,0,3.6083102,None,0,0,0,0,46,0,46,0,185.7282667,,,,,,,,,,,,,,,185.7172536,185.7282667,185.7282667,185.7282667,186.6142113,189.3477422,j,0,3.6083102,None,right,18,"[20, 17, 18, 15, 19, 18, 20, 16, 18, 16, 18, 16, 17, 16, 17, 16, 17, 16, 17, 15, 18, 16]",22,shiftedgaze_R_18.png,j,0,1,results33,1,2026-04-20_15h29.21.872,mogelijke versie adaptive staircase builder,,2026.1.3,59.98325268,2026-04-20 15h29.22.227789 +0200
4.5,ecc10pos,left,47,0,47,j,1,3.7498523,None,0,0,0,0,47,0,47,0,189.4428052,,,,,,,,,,,,,,,189.4314426,189.4428052,189.4428052,189.4428052,190.3474928,193.1978115,j,1,3.7498523,None,direct,19,"[20, 17, 18, 15, 19, 18, 20, 16, 18, 16, 18, 16, 17, 16, 17, 16, 17, 16, 17, 15, 18, 16, 19]",23,shifteddirectgaze.png,j,1,1,results33,1,2026-04-20_15h29.21.872,mogelijke versie adaptive staircase builder,,2026.1.3,59.98325268,2026-04-20 15h29.22.227789 +0200
4.5,ecc10pos,left,48,0,48,j,1,2.7084277,None,0,0,0,0,48,0,48,0,193.2921691,,,,,,,,,,,,,,,193.2812737,193.2921691,193.2921691,193.2921691,194.1974493,196.0142106,j,1,2.7084277,None,direct,18,"[20, 17, 18, 15, 19, 18, 20, 16, 18, 16, 18, 16, 17, 16, 17, 16, 17, 16, 17, 15, 18, 16, 19]",23,shifteddirectgaze.png,j,1,1,results33,1,2026-04-20_15h29.21.872,mogelijke versie adaptive staircase builder,,2026.1.3,59.98325268,2026-04-20 15h29.22.227789 +0200
4.5,ecc10pos,left,49,0,49,f,1,3.0434597,None,0,0,0,0,49,0,49,0,196.1091484,,,,,,,,,,,,,,,196.09844,196.1091484,196.1091484,196.1091484,197.0141136,199.1643268,f,1,3.0434597,None,right,17,"[20, 17, 18, 15, 19, 18, 20, 16, 18, 16, 18, 16, 17, 16, 17, 16, 17, 16, 17, 15, 18, 16, 19]",23,shiftedgaze_R_17.png,f,1,1,results33,1,2026-04-20_15h29.21.872,mogelijke versie adaptive staircase builder,,2026.1.3,59.98325268,2026-04-20 15h29.22.227789 +0200
4.5,ecc10pos,left,50,0,50,f,0,6.7409935,None,0,0,0,0,50,0,50,0,199.2595866,,,,,,,,,,,,,,,199.248531,199.2595866,199.2595866,199.2595866,200.1639195,206.0140409,f,0,6.7409935,None,direct,16,"[20, 17, 18, 15, 19, 18, 20, 16, 18, 16, 18, 16, 17, 16, 17, 16, 17, 16, 17, 15, 18, 16, 19, 16]",24,shifteddirectgaze.png,f,0,1,results33,1,2026-04-20_15h29.21.872,mogelijke versie adaptive staircase builder,,2026.1.3,59.98325268,2026-04-20 15h29.22.227789 +0200
4.5,ecc10pos,left,51,0,51,f,0,3.1159295,None,0,0,0,0,51,0,51,0,206.1086445,,,,,,,,,,,,,,,206.0979321,206.1086445,206.1086445,206.1086445,207.0138807,209.2308118,f,0,3.1159295,None,direct,17,"[20, 17, 18, 15, 19, 18, 20, 16, 18, 16, 18, 16, 17, 16, 17, 16, 17, 16, 17, 15, 18, 16, 19, 16]",24,shifteddirectgaze.png,f,0,1,results33,1,2026-04-20_15h29.21.872,mogelijke versie adaptive staircase builder,,2026.1.3,59.98325268,2026-04-20 15h29.22.227789 +0200
4.5,ecc10pos,left,52,0,52,f,1,2.7798957,None,0,0,0,0,52,0,52,0,209.3486821,,,,,,,,,,,,,,,209.3377072,209.3486821,209.3486821,209.3486821,210.2305092,212.1307388,f,1,2.7798957,None,left,18,"[20, 17, 18, 15, 19, 18, 20, 16, 18, 16, 18, 16, 17, 16, 17, 16, 17, 16, 17, 15, 18, 16, 19, 16, 18]",25,shiftedgaze_L_18.png,f,1,1,results33,1,2026-04-20_15h29.21.872,mogelijke versie adaptive staircase builder,,2026.1.3,59.98325268,2026-04-20 15h29.22.227789 +0200
4.5,ecc10pos,left,53,0,53,j,0,6.0522553,None,0,0,0,0,53,0,53,0,212.2443521,,,,,,,,,,,,,,,212.2331182,212.2443521,212.2443521,212.2443521,213.1306703,218.2975711,j,0,6.0522553,None,right,17,"[20, 17, 18, 15, 19, 18, 20, 16, 18, 16, 18, 16, 17, 16, 17, 16, 17, 16, 17, 15, 18, 16, 19, 16, 18, 17]",26,shiftedgaze_R_17.png,j,0,1,results33,1,2026-04-20_15h29.21.872,mogelijke versie adaptive staircase builder,,2026.1.3,59.98325268,2026-04-20 15h29.22.227789 +0200
4.5,ecc10pos,left,54,0,54,j,0,2.3364457,None,0,0,0,0,54,0,54,0,218.392186,,,,,,,,,,,,,,,218.3810614,218.392186,218.392186,218.392186,219.2971623,220.730772,j,0,2.3364457,None,right,18,"[20, 17, 18, 15, 19, 18, 20, 16, 18, 16, 18, 16, 17, 16, 17, 16, 17, 16, 17, 15, 18, 16, 19, 16, 18, 17]",26,shiftedgaze_R_18.png,j,0,1,results33,1,2026-04-20_15h29.21.872,mogelijke versie adaptive staircase builder,,2026.1.3,59.98325268,2026-04-20 15h29.22.227789 +0200
4.5,ecc10pos,left,55,0,55,j,1,3.9009665,None,0,0,0,0,55,0,55,0,220.8276196,,,,,,,,,,,,,,,220.8172024,220.8276196,220.8276196,220.8276196,221.7302109,224.7306813,j,1,3.9009665,None,direct,19,"[20, 17, 18, 15, 19, 18, 20, 16, 18, 16, 18, 16, 17, 16, 17, 16, 17, 16, 17, 15, 18, 16, 19, 16, 18, 17, 19]",27,shifteddirectgaze.png,j,1,1,results33,1,2026-04-20_15h29.21.872,mogelijke versie adaptive staircase builder,,2026.1.3,59.98325268,2026-04-20 15h29.22.227789 +0200
4.5,ecc10pos,left,56,0,56,f,1,4.6334171,None,0,0,0,0,56,0,56,0,224.8473756,,,,,,,,,,,,,,,224.8356913,224.8473756,224.8473756,224.8473756,225.7303853,229.4970776,f,1,4.6334171,None,left,18,"[20, 17, 18, 15, 19, 18, 20, 16, 18, 16, 18, 16, 17, 16, 17, 16, 17, 16, 17, 15, 18, 16, 19, 16, 18, 17, 19]",27,shiftedgaze_L_18.png,f,1,1,results33,1,2026-04-20_15h29.21.872,mogelijke versie adaptive staircase builder,,2026.1.3,59.98325268,2026-04-20 15h29.22.227789 +0200
4.5,ecc10pos,left,57,0,57,j,1,3.0369868,None,0,0,0,0,57,0,57,0,229.6116172,,,,,,,,,,,,,,,229.6003107,229.6116172,229.6116172,229.6116172,230.4968111,232.6640499,j,1,3.0369868,None,direct,17,"[20, 17, 18, 15, 19, 18, 20, 16, 18, 16, 18, 16, 17, 16, 17, 16, 17, 16, 17, 15, 18, 16, 19, 16, 18, 17, 19]",27,shifteddirectgaze.png,j,1,1,results33,1,2026-04-20_15h29.21.872,mogelijke versie adaptive staircase builder,,2026.1.3,59.98325268,2026-04-20 15h29.22.227789 +0200
4.5,ecc10pos,left,58,0,58,j,0,2.6014879,None,0,0,0,0,58,0,58,0,232.7831459,,,,,,,,,,,,,,,232.771778,232.7831459,232.7831459,232.7831459,233.6637712,235.3970908,j,0,2.6014879,None,left,16,"[20, 17, 18, 15, 19, 18, 20, 16, 18, 16, 18, 16, 17, 16, 17, 16, 17, 16, 17, 15, 18, 16, 19, 16, 18, 17, 19, 16]",28,shiftedgaze_L_16.png,j,0,1,results33,1,2026-04-20_15h29.21.872,mogelijke versie adaptive staircase builder,,2026.1.3,59.98325268,2026-04-20 15h29.22.227789 +0200
4.5,ecc10pos,left,59,0,59,f,0,3.3616196,None,0,0,0,0,59,0,59,0,235.5109903,,,,,,,,,,,,,,,235.499778,235.5109903,235.5109903,235.5109903,236.3967663,238.8805629,f,0,3.3616196,None,direct,17,"[20, 17, 18, 15, 19, 18, 20, 16, 18, 16, 18, 16, 17, 16, 17, 16, 17, 16, 17, 15, 18, 16, 19, 16, 18, 17, 19, 16]",28,shifteddirectgaze.png,f,0,1,results33,1,2026-04-20_15h29.21.872,mogelijke versie adaptive staircase builder,,2026.1.3,59.98325268,2026-04-20 15h29.22.227789 +0200
4.5,ecc10pos,left,0,0,0,,,,,0,0,0,0,,,,,,,,,,,,,,,,,,,,,,,,,,,,,,,,,,,,,,results33,1,2026-04-20_15h29.21.872,mogelijke versie adaptive staircase builder,,2026.1.3,59.98325268,2026-04-20 15h29.22.227789 +0200
12.5,ecc0,mid,0,0,0,j,1,3.2563175,None,0,1,1,1,0,0,0,0,238.9762743,,,,,,,,,,,,,238.8836343,238.8836812,238.9652646,238.9762743,239.8966577,238.9762743,238.9762743,242.2471478,j,1,3.2563175,None,direct,20,[],0,direct_gaze.png,j,1,2,results33,1,2026-04-20_15h29.21.872,mogelijke versie adaptive staircase builder,,2026.1.3,59.98325268,2026-04-20 15h29.22.227789 +0200
12.5,ecc0,mid,1,0,1,f,1,5.3287092,None,0,1,1,1,1,0,1,0,242.3519135,,,,,,,,,,,,,,,242.3401758,242.3519135,243.2468603,242.3519135,242.3519135,247.6969269,f,1,5.3287092,None,right,19,[],0,gaze_R_19.png,f,1,2,results33,1,2026-04-20_15h29.21.872,mogelijke versie adaptive staircase builder,,2026.1.3,59.98325268,2026-04-20 15h29.22.227789 +0200
12.5,ecc0,mid,2,0,2,j,1,2.4191357,None,0,1,1,1,2,0,2,0,247.7894985,,,,,,,,,,,,,,,247.7791654,247.7894985,248.6966415,247.7894985,247.7894985,250.2136473,j,1,2.4191357,None,direct,18,[],0,direct_gaze.png,j,1,2,results33,1,2026-04-20_15h29.21.872,mogelijke versie adaptive staircase builder,,2026.1.3,59.98325268,2026-04-20 15h29.22.227789 +0200
12.5,ecc0,mid,3,0,3,f,1,2.0138325,None,0,1,1,1,3,0,3,0,250.3149365,,,,,,,,,,,,,,,250.3038151,250.3149365,251.2132691,250.3149365,250.3149365,252.3303237,f,1,2.0138325,None,right,17,[],0,gaze_R_17.png,f,1,2,results33,1,2026-04-20_15h29.21.872,mogelijke versie adaptive staircase builder,,2026.1.3,59.98325268,2026-04-20 15h29.22.227789 +0200
12.5,ecc0,mid,4,0,4,f,1,2.3466156,None,0,1,1,1,4,0,4,0,252.4300277,,,,,,,,,,,,,,,252.4194798,252.4300277,253.3298497,252.4300277,252.4300277,254.7801902,f,1,2.3466156,None,right,16,[],0,gaze_R_16.png,f,1,2,results33,1,2026-04-20_15h29.21.872,mogelijke versie adaptive staircase builder,,2026.1.3,59.98325268,2026-04-20 15h29.22.227789 +0200
12.5,ecc0,mid,5,0,5,j,1,3.1559618,None,0,1,1,1,5,0,5,0,254.8766593,,,,,,,,,,,,,,,254.8645497,254.8766593,255.7797647,254.8766593,254.8766593,258.0468721,j,1,3.1559618,None,direct,15,[],0,direct_gaze.png,j,1,2,results33,1,2026-04-20_15h29.21.872,mogelijke versie adaptive staircase builder,,2026.1.3,59.98325268,2026-04-20 15h29.22.227789 +0200
12.5,ecc0,mid,6,0,6,j,0,2.0900399,None,0,1,1,1,6,0,6,0,258.1506936,,,,,,,,,,,,,,,258.1394172,258.1506936,259.0466762,258.1506936,258.1506936,260.2470414,j,0,2.0900399,None,right,14,[14],1,gaze_R_14.png,j,0,2,results33,1,2026-04-20_15h29.21.872,mogelijke versie adaptive staircase builder,,2026.1.3,59.98325268,2026-04-20 15h29.22.227789 +0200
12.5,ecc0,mid,7,0,7,j,1,2.4512794,None,0,1,1,1,7,0,7,0,260.3413655,,,,,,,,,,,,,,,260.3308091,260.3413655,261.246588,260.3413655,260.3413655,262.7969436,j,1,2.4512794,None,direct,15,"[14, 15]",2,direct_gaze.png,j,1,2,results33,1,2026-04-20_15h29.21.872,mogelijke versie adaptive staircase builder,,2026.1.3,59.98325268,2026-04-20 15h29.22.227789 +0200
12.5,ecc0,mid,8,0,8,f,0,3.1296822,None,0,1,1,1,8,0,8,0,262.8949625,,,,,,,,,,,,,,,262.8843177,262.8949625,263.7968796,262.8949625,262.8949625,266.0301074,f,0,3.1296822,None,direct,14,"[14, 15, 14]",3,direct_gaze.png,f,0,2,results33,1,2026-04-20_15h29.21.872,mogelijke versie adaptive staircase builder,,2026.1.3,59.98325268,2026-04-20 15h29.22.227789 +0200
12.5,ecc0,mid,9,0,9,j,1,2.2509986,None,0,1,1,1,9,0,9,0,266.1256481,,,,,,,,,,,,,,,266.1141967,266.1256481,267.029628,266.1256481,266.1256481,268.3801589,j,1,2.2509986,None,direct,15,"[14, 15, 14, 15]",4,direct_gaze.png,j,1,2,results33,1,2026-04-20_15h29.21.872,mogelijke versie adaptive staircase builder,,2026.1.3,59.98325268,2026-04-20 15h29.22.227789 +0200
12.5,ecc0,mid,10,0,10,f,1,6.7267906,None,0,1,1,1,10,0,10,0,268.47386,,,,,,,,,,,,,,,268.4631385,268.47386,269.380173,268.47386,268.47386,275.2133057,f,1,6.7267906,None,right,14,"[14, 15, 14, 15]",4,gaze_R_14.png,f,1,2,results33,1,2026-04-20_15h29.21.872,mogelijke versie adaptive staircase builder,,2026.1.3,59.98325268,2026-04-20 15h29.22.227789 +0200
12.5,ecc0,mid,11,0,11,j,1,2.4696958,None,0,1,1,1,11,0,11,0,275.3069579,,,,,,,,,,,,,,,275.2953572,275.3069579,276.2130461,275.3069579,275.3069579,277.7800583,j,1,2.4696958,None,direct,13,"[14, 15, 14, 15]",4,direct_gaze.png,j,1,2,results33,1,2026-04-20_15h29.21.872,mogelijke versie adaptive staircase builder,,2026.1.3,59.98325268,2026-04-20 15h29.22.227789 +0200
12.5,ecc0,mid,12,0,12,f,0,2.1894679,None,0,1,1,1,12,0,12,0,277.8751776,,,,,,,,,,,,,,,277.8647053,277.8751776,278.7796354,277.8751776,277.8751776,280.0800679,f,0,2.1894679,None,direct,12,"[14, 15, 14, 15, 12]",5,direct_gaze.png,f,0,2,results33,1,2026-04-20_15h29.21.872,mogelijke versie adaptive staircase builder,,2026.1.3,59.98325268,2026-04-20 15h29.22.227789 +0200
12.5,ecc0,mid,13,0,13,f,1,3.8354913,None,0,1,1,1,13,0,13,0,280.1812309,,,,,,,,,,,,,,,280.1706099,280.1812309,281.0795183,280.1812309,280.1812309,284.0299099,f,1,3.8354913,None,right,13,"[14, 15, 14, 15, 12, 13]",6,gaze_R_13.png,f,1,2,results33,1,2026-04-20_15h29.21.872,mogelijke versie adaptive staircase builder,,2026.1.3,59.98325268,2026-04-20 15h29.22.227789 +0200
12.5,ecc0,mid,14,0,14,j,1,3.4209702,None,0,1,1,1,14,0,14,0,284.1237169,,,,,,,,,,,,,,,284.1126166,284.1237169,285.0295011,284.1237169,284.1237169,287.5468398,j,1,3.4209702,None,direct,12,"[14, 15, 14, 15, 12, 13]",6,direct_gaze.png,j,1,2,results33,1,2026-04-20_15h29.21.872,mogelijke versie adaptive staircase builder,,2026.1.3,59.98325268,2026-04-20 15h29.22.227789 +0200
12.5,ecc0,mid,15,0,15,j,0,2.2398961,None,0,1,1,1,15,0,15,0,287.6487356,,,,,,,,,,,,,,,287.6382551,287.6487356,288.5463601,287.6487356,287.6487356,289.8967193,j,0,2.2398961,None,left,11,"[14, 15, 14, 15, 12, 13, 11]",7,gaze_L_11.png,j,0,2,results33,1,2026-04-20_15h29.21.872,mogelijke versie adaptive staircase builder,,2026.1.3,59.98325268,2026-04-20 15h29.22.227789 +0200
12.5,ecc0,mid,16,0,16,j,1,3.7287951,None,0,1,1,1,16,0,16,0,289.9918669,,,,,,,,,,,,,,,289.9811254,289.9918669,290.8960809,289.9918669,289.9918669,293.7300358,j,1,3.7287951,None,direct,12,"[14, 15, 14, 15, 12, 13, 11, 12]",8,direct_gaze.png,j,1,2,results33,1,2026-04-20_15h29.21.872,mogelijke versie adaptive staircase builder,,2026.1.3,59.98325268,2026-04-20 15h29.22.227789 +0200
12.5,ecc0,mid,17,0,17,j,0,6.1236335,None,0,1,1,1,17,0,17,0,293.8297137,,,,,,,,,,,,,,,293.818753,293.8297137,294.7293739,293.8297137,293.8297137,299.9631429,j,0,6.1236335,None,right,11,"[14, 15, 14, 15, 12, 13, 11, 12, 11]",9,gaze_R_11.png,j,0,2,results33,1,2026-04-20_15h29.21.872,mogelijke versie adaptive staircase builder,,2026.1.3,59.98325268,2026-04-20 15h29.22.227789 +0200
12.5,ecc0,mid,18,0,18,f,1,5.8951805,None,0,1,1,1,18,0,18,0,300.0654763,,,,,,,,,,,,,,,300.0551217,300.0654763,300.9628254,300.0654763,300.0654763,305.9629695,f,1,5.8951805,None,right,12,"[14, 15, 14, 15, 12, 13, 11, 12, 11, 12]",10,gaze_R_12.png,f,1,2,results33,1,2026-04-20_15h29.21.872,mogelijke versie adaptive staircase builder,,2026.1.3,59.98325268,2026-04-20 15h29.22.227789 +0200
12.5,ecc0,mid,19,0,19,j,0,2.303982,None,0,1,1,1,19,0,19,0,306.0567972,,,,,,,,,,,,,,,306.0455082,306.0567972,306.9626747,306.0567972,306.0567972,308.3630241,j,0,2.303982,None,left,11,"[14, 15, 14, 15, 12, 13, 11, 12, 11, 12, 11]",11,gaze_L_11.png,j,0,2,results33,1,2026-04-20_15h29.21.872,mogelijke versie adaptive staircase builder,,2026.1.3,59.98325268,2026-04-20 15h29.22.227789 +0200
12.5,ecc0,mid,20,0,20,j,1,2.090159,None,0,1,1,1,20,0,20,0,308.4546174,,,,,,,,,,,,,,,308.4436396,308.4546174,309.3627733,308.4546174,308.4546174,310.5464445,j,1,2.090159,None,direct,12,"[14, 15, 14, 15, 12, 13, 11, 12, 11, 12, 11, 12]",12,direct_gaze.png,j,1,2,results33,1,2026-04-20_15h29.21.872,mogelijke versie adaptive staircase builder,,2026.1.3,59.98325268,2026-04-20 15h29.22.227789 +0200
12.5,ecc0,mid,21,0,21,j,0,3.794209,None,0,1,1,1,21,0,21,0,310.6385512,,,,,,,,,,,,,,,310.6282805,310.6385512,311.5465138,310.6385512,310.6385512,314.4463349,j,0,3.794209,None,right,11,"[14, 15, 14, 15, 12, 13, 11, 12, 11, 12, 11, 12, 11]",13,gaze_R_11.png,j,0,2,results33,1,2026-04-20_15h29.21.872,mogelijke versie adaptive staircase builder,,2026.1.3,59.98325268,2026-04-20 15h29.22.227789 +0200
12.5,ecc0,mid,22,0,22,f,1,5.5097938,None,0,1,1,1,22,0,22,0,314.5469285,,,,,,,,,,,,,,,314.5350504,314.5469285,315.446021,314.5469285,314.5469285,320.0629693,f,1,5.5097938,None,left,12,"[14, 15, 14, 15, 12, 13, 11, 12, 11, 12, 11, 12, 11, 12]",14,gaze_L_12.png,f,1,2,results33,1,2026-04-20_15h29.21.872,mogelijke versie adaptive staircase builder,,2026.1.3,59.98325268,2026-04-20 15h29.22.227789 +0200
12.5,ecc0,mid,23,0,23,f,1,2.2312544,None,0,1,1,1,23,0,23,0,320.1534425,,,,,,,,,,,,,,,320.1427563,320.1534425,321.0626237,320.1534425,320.1534425,322.396129,f,1,2.2312544,None,right,11,"[14, 15, 14, 15, 12, 13, 11, 12, 11, 12, 11, 12, 11, 12]",14,gaze_R_11.png,f,1,2,results33,1,2026-04-20_15h29.21.872,mogelijke versie adaptive staircase builder,,2026.1.3,59.98325268,2026-04-20 15h29.22.227789 +0200
12.5,ecc0,mid,24,0,24,j,0,3.6314238,None,0,1,1,1,24,0,24,0,322.4972446,,,,,,,,,,,,,,,322.4863679,322.4972446,323.3956795,322.4972446,322.4972446,326.1295242,j,0,3.6314238,None,right,10,"[14, 15, 14, 15, 12, 13, 11, 12, 11, 12, 11, 12, 11, 12, 10]",15,gaze_R_10.png,j,0,2,results33,1,2026-04-20_15h29.21.872,mogelijke versie adaptive staircase builder,,2026.1.3,59.98325268,2026-04-20 15h29.22.227789 +0200
12.5,ecc0,mid,25,0,25,j,0,2.120611,None,0,1,1,1,25,0,25,0,326.2242456,,,,,,,,,,,,,,,326.2130317,326.2242456,327.1296019,326.2242456,326.2242456,328.3462117,j,0,2.120611,None,left,11,"[14, 15, 14, 15, 12, 13, 11, 12, 11, 12, 11, 12, 11, 12, 10]",15,gaze_L_11.png,j,0,2,results33,1,2026-04-20_15h29.21.872,mogelijke versie adaptive staircase builder,,2026.1.3,59.98325268,2026-04-20 15h29.22.227789 +0200
12.5,ecc0,mid,26,0,26,j,0,2.6113061,None,0,1,1,1,26,0,26,0,328.4374057,,,,,,,,,,,,,,,328.4269537,328.4374057,329.3458382,328.4374057,328.4374057,331.0630178,j,0,2.6113061,None,left,12,"[14, 15, 14, 15, 12, 13, 11, 12, 11, 12, 11, 12, 11, 12, 10]",15,gaze_L_12.png,j,0,2,results33,1,2026-04-20_15h29.21.872,mogelijke versie adaptive staircase builder,,2026.1.3,59.98325268,2026-04-20 15h29.22.227789 +0200
12.5,ecc0,mid,27,0,27,f,1,3.2452023,None,0,1,1,1,27,0,27,0,331.1635949,,,,,,,,,,,,,,,331.1527519,331.1635949,332.0624116,331.1635949,331.1635949,334.4124571,f,1,3.2452023,None,left,13,"[14, 15, 14, 15, 12, 13, 11, 12, 11, 12, 11, 12, 11, 12, 10, 13]",16,gaze_L_13.png,f,1,2,results33,1,2026-04-20_15h29.21.872,mogelijke versie adaptive staircase builder,,2026.1.3,59.98325268,2026-04-20 15h29.22.227789 +0200
12.5,ecc0,mid,28,0,28,j,0,1.9997574,None,0,1,1,1,28,0,28,0,334.5049895,,,,,,,,,,,,,,,334.4942618,334.5049895,335.4124532,334.5049895,334.5049895,336.5125487,j,0,1.9997574,None,left,12,"[14, 15, 14, 15, 12, 13, 11, 12, 11, 12, 11, 12, 11, 12, 10, 13, 12]",17,gaze_L_12.png,j,0,2,results33,1,2026-04-20_15h29.21.872,mogelijke versie adaptive staircase builder,,2026.1.3,59.98325268,2026-04-20 15h29.22.227789 +0200
12.5,ecc0,mid,29,0,29,j,1,2.0209965,None,0,1,1,1,29,0,29,0,336.6037854,,,,,,,,,,,,,,,336.5931676,336.6037854,337.5121317,336.6037854,336.6037854,338.6293521,j,1,2.0209965,None,direct,13,"[14, 15, 14, 15, 12, 13, 11, 12, 11, 12, 11, 12, 11, 12, 10, 13, 12, 13]",18,direct_gaze.png,j,1,2,results33,1,2026-04-20_15h29.21.872,mogelijke versie adaptive staircase builder,,2026.1.3,59.98325268,2026-04-20 15h29.22.227789 +0200
12.5,ecc0,mid,30,0,30,j,0,2.037634,None,0,1,1,1,30,0,30,0,338.7230673,,,,,,,,,,,,,,,338.7116092,338.7230673,339.6291291,338.7230673,338.7230673,340.7627205,j,0,2.037634,None,left,12,"[14, 15, 14, 15, 12, 13, 11, 12, 11, 12, 11, 12, 11, 12, 10, 13, 12, 13, 12]",19,gaze_L_12.png,j,0,2,results33,1,2026-04-20_15h29.21.872,mogelijke versie adaptive staircase builder,,2026.1.3,59.98325268,2026-04-20 15h29.22.227789 +0200
12.5,ecc0,mid,31,0,31,f,1,3.3147749,None,0,1,1,1,31,0,31,0,340.8547552,,,,,,,,,,,,,,,340.8443111,340.8547552,341.7621319,340.8547552,340.8547552,344.1798233,f,1,3.3147749,None,right,13,"[14, 15, 14, 15, 12, 13, 11, 12, 11, 12, 11, 12, 11, 12, 10, 13, 12, 13, 12, 13]",20,gaze_R_13.png,f,1,2,results33,1,2026-04-20_15h29.21.872,mogelijke versie adaptive staircase builder,,2026.1.3,59.98325268,2026-04-20 15h29.22.227789 +0200
12.5,ecc0,mid,32,0,32,j,0,2.353244,None,0,1,1,1,32,0,32,0,344.2714593,,,,,,,,,,,,,,,344.2608126,344.2714593,345.1956424,344.2714593,344.2714593,346.6292151,j,0,2.353244,None,left,12,"[14, 15, 14, 15, 12, 13, 11, 12, 11, 12, 11, 12, 11, 12, 10, 13, 12, 13, 12, 13, 12]",21,gaze_L_12.png,j,0,2,results33,1,2026-04-20_15h29.21.872,mogelijke versie adaptive staircase builder,,2026.1.3,59.98325268,2026-04-20 15h29.22.227789 +0200
12.5,ecc0,mid,33,0,33,j,0,1.2867078,None,0,1,1,1,33,0,33,0,346.721976,,,,,,,,,,,,,,,346.7105619,346.721976,347.6287452,346.721976,346.721976,348.0125581,j,0,1.2867078,None,left,13,"[14, 15, 14, 15, 12, 13, 11, 12, 11, 12, 11, 12, 11, 12, 10, 13, 12, 13, 12, 13, 12]",21,gaze_L_13.png,j,0,2,results33,1,2026-04-20_15h29.21.872,mogelijke versie adaptive staircase builder,,2026.1.3,59.98325268,2026-04-20 15h29.22.227789 +0200
12.5,ecc0,mid,34,0,34,j,0,1.824561,None,0,1,1,1,34,0,34,0,348.1122484,,,,,,,,,,,,,,,348.1017072,348.1122484,349.0122647,348.1122484,348.1122484,349.945732,j,0,1.824561,None,left,14,"[14, 15, 14, 15, 12, 13, 11, 12, 11, 12, 11, 12, 11, 12, 10, 13, 12, 13, 12, 13, 12]",21,gaze_L_14.png,j,0,2,results33,1,2026-04-20_15h29.21.872,mogelijke versie adaptive staircase builder,,2026.1.3,59.98325268,2026-04-20 15h29.22.227789 +0200
12.5,ecc0,mid,35,0,35,j,0,2.4255769,None,0,1,1,1,35,0,35,0,350.0472038,,,,,,,,,,,,,,,350.0358918,350.0472038,350.9454921,350.0472038,350.0472038,352.4792318,j,0,2.4255769,None,right,15,"[14, 15, 14, 15, 12, 13, 11, 12, 11, 12, 11, 12, 11, 12, 10, 13, 12, 13, 12, 13, 12]",21,gaze_R_15.png,j,0,2,results33,1,2026-04-20_15h29.21.872,mogelijke versie adaptive staircase builder,,2026.1.3,59.98325268,2026-04-20 15h29.22.227789 +0200
12.5,ecc0,mid,36,0,36,j,0,2.605246,None,0,1,1,1,36,0,36,0,352.5714697,,,,,,,,,,,,,,,352.5612181,352.5714697,353.4788398,352.5714697,352.5714697,355.1793345,j,0,2.605246,None,right,16,"[14, 15, 14, 15, 12, 13, 11, 12, 11, 12, 11, 12, 11, 12, 10, 13, 12, 13, 12, 13, 12]",21,gaze_R_16.png,j,0,2,results33,1,2026-04-20_15h29.21.872,mogelijke versie adaptive staircase builder,,2026.1.3,59.98325268,2026-04-20 15h29.22.227789 +0200
12.5,ecc0,mid,37,0,37,j,0,2.8343916,None,0,1,1,1,37,0,37,0,355.2703288,,,,,,,,,,,,,,,355.2594742,355.2703288,356.1788585,355.2703288,355.2703288,358.1125335,j,0,2.8343916,None,right,17,"[14, 15, 14, 15, 12, 13, 11, 12, 11, 12, 11, 12, 11, 12, 10, 13, 12, 13, 12, 13, 12]",21,gaze_R_17.png,j,0,2,results33,1,2026-04-20_15h29.21.872,mogelijke versie adaptive staircase builder,,2026.1.3,59.98325268,2026-04-20 15h29.22.227789 +0200
12.5,ecc0,mid,38,0,38,f,0,2.4196965,None,0,1,1,1,38,0,38,0,358.2050849,,,,,,,,,,,,,,,358.1938802,358.2050849,359.1120345,358.2050849,358.2050849,360.6291279,f,0,2.4196965,None,direct,18,"[14, 15, 14, 15, 12, 13, 11, 12, 11, 12, 11, 12, 11, 12, 10, 13, 12, 13, 12, 13, 12]",21,direct_gaze.png,f,0,2,results33,1,2026-04-20_15h29.21.872,mogelijke versie adaptive staircase builder,,2026.1.3,59.98325268,2026-04-20 15h29.22.227789 +0200
12.5,ecc0,mid,39,0,39,f,1,4.9414724,None,0,1,1,1,39,0,39,0,360.7232554,,,,,,,,,,,,,,,360.7123092,360.7232554,361.6288061,360.7232554,360.7232554,365.679087,f,1,4.9414724,None,right,19,"[14, 15, 14, 15, 12, 13, 11, 12, 11, 12, 11, 12, 11, 12, 10, 13, 12, 13, 12, 13, 12, 19]",22,gaze_R_19.png,f,1,2,results33,1,2026-04-20_15h29.21.872,mogelijke versie adaptive staircase builder,,2026.1.3,59.98325268,2026-04-20 15h29.22.227789 +0200
12.5,ecc0,mid,40,0,40,j,0,5.1389824,None,0,1,1,1,40,0,40,0,365.7817353,,,,,,,,,,,,,,,365.7708869,365.7817353,366.6786498,365.7817353,365.7817353,370.9289304,j,0,5.1389824,None,left,18,"[14, 15, 14, 15, 12, 13, 11, 12, 11, 12, 11, 12, 11, 12, 10, 13, 12, 13, 12, 13, 12, 19, 18]",23,gaze_L_18.png,j,0,2,results33,1,2026-04-20_15h29.21.872,mogelijke versie adaptive staircase builder,,2026.1.3,59.98325268,2026-04-20 15h29.22.227789 +0200
12.5,ecc0,mid,41,0,41,f,1,4.2587634,None,0,1,1,1,41,0,41,0,371.0300395,,,,,,,,,,,,,,,371.0185912,371.0300395,371.9284781,371.0300395,371.0300395,375.295594,f,1,4.2587634,None,left,19,"[14, 15, 14, 15, 12, 13, 11, 12, 11, 12, 11, 12, 11, 12, 10, 13, 12, 13, 12, 13, 12, 19, 18, 19]",24,gaze_L_19.png,f,1,2,results33,1,2026-04-20_15h29.21.872,mogelijke versie adaptive staircase builder,,2026.1.3,59.98325268,2026-04-20 15h29.22.227789 +0200
12.5,ecc0,mid,42,0,42,j,1,3.5813209,None,0,1,1,1,42,0,42,0,375.3876634,,,,,,,,,,,,,,,375.3775075,375.3876634,376.2952592,375.3876634,375.3876634,378.9787226,j,1,3.5813209,None,direct,18,"[14, 15, 14, 15, 12, 13, 11, 12, 11, 12, 11, 12, 11, 12, 10, 13, 12, 13, 12, 13, 12, 19, 18, 19]",24,direct_gaze.png,j,1,2,results33,1,2026-04-20_15h29.21.872,mogelijke versie adaptive staircase builder,,2026.1.3,59.98325268,2026-04-20 15h29.22.227789 +0200
12.5,ecc0,mid,43,0,43,j,0,4.6254619,None,0,1,1,1,43,0,43,0,379.0712743,,,,,,,,,,,,,,,379.0604363,379.0712743,379.9783378,379.0712743,379.0712743,383.7122806,j,0,4.6254619,None,right,17,"[14, 15, 14, 15, 12, 13, 11, 12, 11, 12, 11, 12, 11, 12, 10, 13, 12, 13, 12, 13, 12, 19, 18, 19, 17]",25,gaze_R_17.png,j,0,2,results33,1,2026-04-20_15h29.21.872,mogelijke versie adaptive staircase builder,,2026.1.3,59.98325268,2026-04-20 15h29.22.227789 +0200
12.5,ecc0,mid,44,0,44,f,1,4.6459848,None,0,1,1,1,44,0,44,0,383.8027399,,,,,,,,,,,,,,,383.7922701,383.8027399,384.7118663,383.8027399,383.8027399,388.4622253,f,1,4.6459848,None,left,18,"[14, 15, 14, 15, 12, 13, 11, 12, 11, 12, 11, 12, 11, 12, 10, 13, 12, 13, 12, 13, 12, 19, 18, 19, 17, 18]",26,gaze_L_18.png,f,1,2,results33,1,2026-04-20_15h29.21.872,mogelijke versie adaptive staircase builder,,2026.1.3,59.98325268,2026-04-20 15h29.22.227789 +0200
12.5,ecc0,mid,45,0,45,j,1,2.0759713,None,0,1,1,1,45,0,45,0,388.5568163,,,,,,,,,,,,,,,388.5462931,388.5568163,389.4618038,388.5568163,388.5568163,390.6453614,j,1,2.0759713,None,direct,17,"[14, 15, 14, 15, 12, 13, 11, 12, 11, 12, 11, 12, 11, 12, 10, 13, 12, 13, 12, 13, 12, 19, 18, 19, 17, 18]",26,direct_gaze.png,j,1,2,results33,1,2026-04-20_15h29.21.872,mogelijke versie adaptive staircase builder,,2026.1.3,59.98325268,2026-04-20 15h29.22.227789 +0200
12.5,ecc0,mid,46,0,46,j,0,2.3198939,None,0,1,1,1,46,0,46,0,390.7368108,,,,,,,,,,,,,,,390.7255636,390.7368108,391.6452789,390.7368108,390.7368108,393.0621701,j,0,2.3198939,None,right,16,"[14, 15, 14, 15, 12, 13, 11, 12, 11, 12, 11, 12, 11, 12, 10, 13, 12, 13, 12, 13, 12, 19, 18, 19, 17, 18, 16]",27,gaze_R_16.png,j,0,2,results33,1,2026-04-20_15h29.21.872,mogelijke versie adaptive staircase builder,,2026.1.3,59.98325268,2026-04-20 15h29.22.227789 +0200
12.5,ecc0,mid,47,0,47,j,0,2.9835338,None,0,1,1,1,47,0,47,0,393.1532136,,,,,,,,,,,,,,,393.14244,393.1532136,394.061764,393.1532136,393.1532136,396.1453792,j,0,2.9835338,None,right,17,"[14, 15, 14, 15, 12, 13, 11, 12, 11, 12, 11, 12, 11, 12, 10, 13, 12, 13, 12, 13, 12, 19, 18, 19, 17, 18, 16]",27,gaze_R_17.png,j,0,2,results33,1,2026-04-20_15h29.21.872,mogelijke versie adaptive staircase builder,,2026.1.3,59.98325268,2026-04-20 15h29.22.227789 +0200
12.5,ecc0,mid,48,0,48,f,1,2.6934896,None,0,1,1,1,48,0,48,0,396.2432585,,,,,,,,,,,,,,,396.2326194,396.2432585,397.1451657,396.2432585,396.2432585,398.9457937,f,1,2.6934896,None,right,18,"[14, 15, 14, 15, 12, 13, 11, 12, 11, 12, 11, 12, 11, 12, 10, 13, 12, 13, 12, 13, 12, 19, 18, 19, 17, 18, 16, 18]",28,gaze_R_18.png,f,1,2,results33,1,2026-04-20_15h29.21.872,mogelijke versie adaptive staircase builder,,2026.1.3,59.98325268,2026-04-20 15h29.22.227789 +0200
12.5,ecc0,mid,49,0,49,j,0,3.646551,None,0,1,1,1,49,0,49,0,399.0583091,,,,,,,,,,,,,,,399.0466354,399.0583091,399.9453225,399.0583091,399.0583091,402.7120936,j,0,3.646551,None,left,17,"[14, 15, 14, 15, 12, 13, 11, 12, 11, 12, 11, 12, 11, 12, 10, 13, 12, 13, 12, 13, 12, 19, 18, 19, 17, 18, 16, 18, 17]",29,gaze_L_17.png,j,0,2,results33,1,2026-04-20_15h29.21.872,mogelijke versie adaptive staircase builder,,2026.1.3,59.98325268,2026-04-20 15h29.22.227789 +0200
12.5,ecc0,mid,50,0,50,f,1,3.8172272,None,0,1,1,1,50,0,50,0,402.8155911,,,,,,,,,,,,,,,402.8048428,402.8155911,403.7118409,402.8155911,402.8155911,406.6455519,f,1,3.8172272,None,left,18,"[14, 15, 14, 15, 12, 13, 11, 12, 11, 12, 11, 12, 11, 12, 10, 13, 12, 13, 12, 13, 12, 19, 18, 19, 17, 18, 16, 18, 17, 18]",30,gaze_L_18.png,f,1,2,results33,1,2026-04-20_15h29.21.872,mogelijke versie adaptive staircase builder,,2026.1.3,59.98325268,2026-04-20 15h29.22.227789 +0200
12.5,ecc0,mid,51,0,51,f,1,2.8843416,None,0,1,1,1,51,0,51,0,406.7484514,,,,,,,,,,,,,,,406.7359537,406.7484514,407.6619883,406.7484514,406.7484514,409.6453726,f,1,2.8843416,None,right,17,"[14, 15, 14, 15, 12, 13, 11, 12, 11, 12, 11, 12, 11, 12, 10, 13, 12, 13, 12, 13, 12, 19, 18, 19, 17, 18, 16, 18, 17, 18]",30,gaze_R_17.png,f,1,2,results33,1,2026-04-20_15h29.21.872,mogelijke versie adaptive staircase builder,,2026.1.3,59.98325268,2026-04-20 15h29.22.227789 +0200
12.5,ecc0,mid,52,0,52,j,0,3.3273959,None,0,1,1,1,52,0,52,0,409.7613543,,,,,,,,,,,,,,,409.74875,409.7613543,410.6450622,409.7613543,409.7613543,413.0955462,j,0,3.3273959,None,left,16,"[14, 15, 14, 15, 12, 13, 11, 12, 11, 12, 11, 12, 11, 12, 10, 13, 12, 13, 12, 13, 12, 19, 18, 19, 17, 18, 16, 18, 17, 18, 16]",31,gaze_L_16.png,j,0,2,results33,1,2026-04-20_15h29.21.872,mogelijke versie adaptive staircase builder,,2026.1.3,59.98325268,2026-04-20 15h29.22.227789 +0200
12.5,ecc0,mid,53,0,53,j,1,5.4562367,None,0,1,1,1,53,0,53,0,413.2005068,,,,,,,,,,,,,,,413.1884903,413.2005068,414.0948831,413.2005068,413.2005068,418.6619754,j,1,5.4562367,None,direct,17,"[14, 15, 14, 15, 12, 13, 11, 12, 11, 12, 11, 12, 11, 12, 10, 13, 12, 13, 12, 13, 12, 19, 18, 19, 17, 18, 16, 18, 17, 18, 16, 17]",32,direct_gaze.png,j,1,2,results33,1,2026-04-20_15h29.21.872,mogelijke versie adaptive staircase builder,,2026.1.3,59.98325268,2026-04-20 15h29.22.227789 +0200
12.5,ecc0,mid,54,0,54,j,0,2.1227093,None,0,1,1,1,54,0,54,0,418.7660408,,,,,,,,,,,,,,,418.7553631,418.7660408,419.6616554,418.7660408,418.7660408,420.8954109,j,0,2.1227093,None,left,16,"[14, 15, 14, 15, 12, 13, 11, 12, 11, 12, 11, 12, 11, 12, 10, 13, 12, 13, 12, 13, 12, 19, 18, 19, 17, 18, 16, 18, 17, 18, 16, 17, 16]",33,gaze_L_16.png,j,0,2,results33,1,2026-04-20_15h29.21.872,mogelijke versie adaptive staircase builder,,2026.1.3,59.98325268,2026-04-20 15h29.22.227789 +0200
12.5,ecc0,mid,55,0,55,j,0,2.2930779,None,0,1,1,1,55,0,55,0,420.9957606,,,,,,,,,,,,,,,420.9851637,420.9957606,421.8947363,420.9957606,420.9957606,423.2953532,j,0,2.2930779,None,left,17,"[14, 15, 14, 15, 12, 13, 11, 12, 11, 12, 11, 12, 11, 12, 10, 13, 12, 13, 12, 13, 12, 19, 18, 19, 17, 18, 16, 18, 17, 18, 16, 17, 16]",33,gaze_L_17.png,j,0,2,results33,1,2026-04-20_15h29.21.872,mogelijke versie adaptive staircase builder,,2026.1.3,59.98325268,2026-04-20 15h29.22.227789 +0200
12.5,ecc0,mid,56,0,56,f,1,3.0800047,None,0,1,1,1,56,0,56,0,423.4008162,,,,,,,,,,,,,,,423.3874047,423.4008162,424.2947129,423.4008162,423.4008162,426.4953157,f,1,3.0800047,None,right,18,"[14, 15, 14, 15, 12, 13, 11, 12, 11, 12, 11, 12, 11, 12, 10, 13, 12, 13, 12, 13, 12, 19, 18, 19, 17, 18, 16, 18, 17, 18, 16, 17, 16, 18]",34,gaze_R_18.png,f,1,2,results33,1,2026-04-20_15h29.21.872,mogelijke versie adaptive staircase builder,,2026.1.3,59.98325268,2026-04-20 15h29.22.227789 +0200
12.5,ecc0,mid,57,0,57,j,0,2.5244186,None,0,1,1,1,57,0,57,0,426.5963137,,,,,,,,,,,,,,,426.5850666,426.5963137,427.5115017,426.5963137,426.5963137,429.12866,j,0,2.5244186,None,left,17,"[14, 15, 14, 15, 12, 13, 11, 12, 11, 12, 11, 12, 11, 12, 10, 13, 12, 13, 12, 13, 12, 19, 18, 19, 17, 18, 16, 18, 17, 18, 16, 17, 16, 18, 17]",35,gaze_L_17.png,j,0,2,results33,1,2026-04-20_15h29.21.872,mogelijke versie adaptive staircase builder,,2026.1.3,59.98325268,2026-04-20 15h29.22.227789 +0200
12.5,ecc0,mid,58,0,58,j,0,2.1779859,None,0,1,1,1,58,0,58,0,429.2307928,,,,,,,,,,,,,,,429.2192638,429.2307928,430.1281501,429.2307928,429.2307928,431.4119848,j,0,2.1779859,None,left,18,"[14, 15, 14, 15, 12, 13, 11, 12, 11, 12, 11, 12, 11, 12, 10, 13, 12, 13, 12, 13, 12, 19, 18, 19, 17, 18, 16, 18, 17, 18, 16, 17, 16, 18, 17]",35,gaze_L_18.png,j,0,2,results33,1,2026-04-20_15h29.21.872,mogelijke versie adaptive staircase builder,,2026.1.3,59.98325268,2026-04-20 15h29.22.227789 +0200
12.5,ecc0,mid,59,0,59,f,1,2.0577735,None,0,1,1,1,59,0,59,0,431.519153,,,,,,,,,,,,,,,431.5058359,431.519153,432.4116244,431.519153,431.519153,433.5790998,f,1,2.0577735,None,right,19,"[14, 15, 14, 15, 12, 13, 11, 12, 11, 12, 11, 12, 11, 12, 10, 13, 12, 13, 12, 13, 12, 19, 18, 19, 17, 18, 16, 18, 17, 18, 16, 17, 16, 18, 17, 19]",36,gaze_R_19.png,f,1,2,results33,1,2026-04-20_15h29.21.872,mogelijke versie adaptive staircase builder,,2026.1.3,59.98325268,2026-04-20 15h29.22.227789 +0200
12.5,ecc0,mid,1,1,0,,,,,0,1,1,1,,,,,,,,,,,,,,,,,,,,,,,,,,,,,,,,,,,,,,results33,1,2026-04-20_15h29.21.872,mogelijke versie adaptive staircase builder,,2026.1.3,59.98325268,2026-04-20 15h29.22.227789 +0200
20.5,ecc10neg,right,0,0,0,f,1,5.7827314,None,0,2,2,2,0,0,0,0,433.6980908,,,,,,,,,,,,,433.5817486,433.5817941,433.6861374,433.6980908,433.6980908,434.594604,433.6980908,439.4951421,f,1,5.7827314,None,left,20,[],0,shiftedgaze_L_20.png,f,1,3,results33,1,2026-04-20_15h29.21.872,mogelijke versie adaptive staircase builder,,2026.1.3,59.98325268,2026-04-20 15h29.22.227789 +0200
20.5,ecc10neg,right,1,0,1,f,1,3.1436991,None,0,2,2,2,1,0,1,0,439.6331382,,,,,,,,,,,,,,,439.6202457,439.6331382,439.6331382,440.4947002,439.6331382,442.778498,f,1,3.1436991,None,right,19,[],0,shiftedgaze_R_19.png,f,1,3,results33,1,2026-04-20_15h29.21.872,mogelijke versie adaptive staircase builder,,2026.1.3,59.98325268,2026-04-20 15h29.22.227789 +0200
20.5,ecc10neg,right,2,0,2,f,1,5.4222795,None,0,2,2,2,2,0,2,0,442.9145091,,,,,,,,,,,,,,,442.9018336,442.9145091,442.9145091,443.7778255,442.9145091,448.3449613,f,1,5.4222795,None,left,18,[],0,shiftedgaze_L_18.png,f,1,3,results33,1,2026-04-20_15h29.21.872,mogelijke versie adaptive staircase builder,,2026.1.3,59.98325268,2026-04-20 15h29.22.227789 +0200
20.5,ecc10neg,right,3,0,3,f,1,2.871101,None,0,2,2,2,3,0,3,0,448.4576825,,,,,,,,,,,,,,,448.4462734,448.4576825,448.4576825,449.3446098,448.4576825,451.3450804,f,1,2.871101,None,left,17,[],0,shiftedgaze_L_17.png,f,1,3,results33,1,2026-04-20_15h29.21.872,mogelijke versie adaptive staircase builder,,2026.1.3,59.98325268,2026-04-20 15h29.22.227789 +0200
20.5,ecc10neg,right,4,0,4,f,1,3.3468084,None,0,2,2,2,4,0,4,0,451.4860324,,,,,,,,,,,,,,,451.473466,451.4860324,451.4860324,452.3443277,451.4860324,454.8447508,f,1,3.3468084,None,right,16,[],0,shiftedgaze_R_16.png,f,1,3,results33,1,2026-04-20_15h29.21.872,mogelijke versie adaptive staircase builder,,2026.1.3,59.98325268,2026-04-20 15h29.22.227789 +0200
20.5,ecc10neg,right,5,0,5,j,1,1.9561759,None,0,2,2,2,5,0,5,0,454.9646494,,,,,,,,,,,,,,,454.9525609,454.9646494,454.9646494,455.8445273,454.9646494,456.9281183,j,1,1.9561759,None,direct,15,[],0,shifteddirectgaze.png,j,1,3,results33,1,2026-04-20_15h29.21.872,mogelijke versie adaptive staircase builder,,2026.1.3,59.98325268,2026-04-20 15h29.22.227789 +0200
20.5,ecc10neg,right,6,0,6,j,0,2.1095942,None,0,2,2,2,6,0,6,0,457.0355722,,,,,,,,,,,,,,,457.0232224,457.0355722,457.0355722,457.9276611,457.0355722,459.1614546,j,0,2.1095942,None,left,14,[14],1,shiftedgaze_L_14.png,j,0,3,results33,1,2026-04-20_15h29.21.872,mogelijke versie adaptive staircase builder,,2026.1.3,59.98325268,2026-04-20 15h29.22.227789 +0200
20.5,ecc10neg,right,7,0,7,j,0,1.9854805,None,0,2,2,2,7,0,7,0,459.271322,,,,,,,,,,,,,,,459.2589002,459.271322,459.271322,460.1610318,459.271322,461.2614206,j,0,1.9854805,None,left,15,[14],1,shiftedgaze_L_15.png,j,0,3,results33,1,2026-04-20_15h29.21.872,mogelijke versie adaptive staircase builder,,2026.1.3,59.98325268,2026-04-20 15h29.22.227789 +0200
20.5,ecc10neg,right,8,0,8,j,1,2.1824102,None,0,2,2,2,8,0,8,0,461.3627415,,,,,,,,,,,,,,,461.3524184,461.3627415,461.3627415,462.2612184,461.3627415,463.5613674,j,1,2.1824102,None,direct,16,"[14, 16]",2,shifteddirectgaze.png,j,1,3,results33,1,2026-04-20_15h29.21.872,mogelijke versie adaptive staircase builder,,2026.1.3,59.98325268,2026-04-20 15h29.22.227789 +0200
20.5,ecc10neg,right,9,0,9,f,1,2.023705,None,0,2,2,2,9,0,9,0,463.6731104,,,,,,,,,,,,,,,463.6608984,463.6731104,463.6731104,464.5611003,463.6731104,465.7116043,f,1,2.023705,None,right,15,"[14, 16]",2,shiftedgaze_R_15.png,f,1,3,results33,1,2026-04-20_15h29.21.872,mogelijke versie adaptive staircase builder,,2026.1.3,59.98325268,2026-04-20 15h29.22.227789 +0200
20.5,ecc10neg,right,10,0,10,f,1,4.0261586,None,0,2,2,2,10,0,10,0,465.8227231,,,,,,,,,,,,,,,465.8122237,465.8227231,465.8227231,466.7109291,465.8227231,469.8612363,f,1,4.0261586,None,right,14,"[14, 16]",2,shiftedgaze_R_14.png,f,1,3,results33,1,2026-04-20_15h29.21.872,mogelijke versie adaptive staircase builder,,2026.1.3,59.98325268,2026-04-20 15h29.22.227789 +0200
20.5,ecc10neg,right,11,0,11,j,0,4.6066823,None,0,2,2,2,11,0,11,0,469.9701866,,,,,,,,,,,,,,,469.959313,469.9701866,469.9701866,470.8608861,469.9701866,474.5780414,j,0,4.6066823,None,left,13,"[14, 16, 13]",3,shiftedgaze_L_13.png,j,0,3,results33,1,2026-04-20_15h29.21.872,mogelijke versie adaptive staircase builder,,2026.1.3,59.98325268,2026-04-20 15h29.22.227789 +0200
20.5,ecc10neg,right,12,0,12,f,1,2.2240092,None,0,2,2,2,12,0,12,0,474.6808051,,,,,,,,,,,,,,,474.6695738,474.6808051,474.6808051,475.5777015,474.6808051,476.9111179,f,1,2.2240092,None,right,14,"[14, 16, 13, 14]",4,shiftedgaze_R_14.png,f,1,3,results33,1,2026-04-20_15h29.21.872,mogelijke versie adaptive staircase builder,,2026.1.3,59.98325268,2026-04-20 15h29.22.227789 +0200
20.5,ecc10neg,right,13,0,13,j,1,1.8477711,None,0,2,2,2,13,0,13,0,477.0010191,,,,,,,,,,,,,,,476.9906114,477.0010191,477.0010191,477.9106372,477.0010191,478.8610629,j,1,1.8477711,None,direct,13,"[14, 16, 13, 14]",4,shifteddirectgaze.png,j,1,3,results33,1,2026-04-20_15h29.21.872,mogelijke versie adaptive staircase builder,,2026.1.3,59.98325268,2026-04-20 15h29.22.227789 +0200
20.5,ecc10neg,right,14,0,14,j,0,2.2865705,None,0,2,2,2,14,0,14,0,478.9622232,,,,,,,,,,,,,,,478.9514225,478.9622232,478.9622232,479.8607016,478.9622232,481.2610419,j,0,2.2865705,None,left,12,"[14, 16, 13, 14, 12]",5,shiftedgaze_L_12.png,j,0,3,results33,1,2026-04-20_15h29.21.872,mogelijke versie adaptive staircase builder,,2026.1.3,59.98325268,2026-04-20 15h29.22.227789 +0200
20.5,ecc10neg,right,15,0,15,j,1,4.1021519,None,0,2,2,2,15,0,15,0,481.354642,,,,,,,,,,,,,,,481.3424516,481.354642,481.354642,482.2605363,481.354642,485.4609955,j,1,4.1021519,None,direct,13,"[14, 16, 13, 14, 12, 13]",6,shifteddirectgaze.png,j,1,3,results33,1,2026-04-20_15h29.21.872,mogelijke versie adaptive staircase builder,,2026.1.3,59.98325268,2026-04-20 15h29.22.227789 +0200
20.5,ecc10neg,right,16,0,16,j,0,2.0657828,None,0,2,2,2,16,0,16,0,485.5516533,,,,,,,,,,,,,,,485.5412198,485.5516533,485.5516533,486.4606383,485.5516533,487.6275837,j,0,2.0657828,None,left,12,"[14, 16, 13, 14, 12, 13, 12]",7,shiftedgaze_L_12.png,j,0,3,results33,1,2026-04-20_15h29.21.872,mogelijke versie adaptive staircase builder,,2026.1.3,59.98325268,2026-04-20 15h29.22.227789 +0200
20.5,ecc10neg,right,17,0,17,f,1,4.9304049,None,0,2,2,2,17,0,17,0,487.726459,,,,,,,,,,,,,,,487.7153134,487.726459,487.726459,488.6273148,487.726459,492.6607815,f,1,4.9304049,None,right,13,"[14, 16, 13, 14, 12, 13, 12, 13]",8,shiftedgaze_R_13.png,f,1,3,results33,1,2026-04-20_15h29.21.872,mogelijke versie adaptive staircase builder,,2026.1.3,59.98325268,2026-04-20 15h29.22.227789 +0200
20.5,ecc10neg,right,18,0,18,j,1,1.8631882,None,0,2,2,2,18,0,18,0,492.7545836,,,,,,,,,,,,,,,492.7442017,492.7545836,492.7545836,493.6604512,492.7545836,494.6276126,j,1,1.8631882,None,direct,12,"[14, 16, 13, 14, 12, 13, 12, 13]",8,shifteddirectgaze.png,j,1,3,results33,1,2026-04-20_15h29.21.872,mogelijke versie adaptive staircase builder,,2026.1.3,59.98325268,2026-04-20 15h29.22.227789 +0200
20.5,ecc10neg,right,19,0,19,j,0,1.8174147,None,0,2,2,2,19,0,19,0,494.7273942,,,,,,,,,,,,,,,494.7170814,494.7273942,494.7273942,495.6271131,494.7273942,496.5607864,j,0,1.8174147,None,left,11,"[14, 16, 13, 14, 12, 13, 12, 13, 11]",9,shiftedgaze_L_11.png,j,0,3,results33,1,2026-04-20_15h29.21.872,mogelijke versie adaptive staircase builder,,2026.1.3,59.98325268,2026-04-20 15h29.22.227789 +0200
20.5,ecc10neg,right,20,0,20,j,0,2.0438978,None,0,2,2,2,20,0,20,0,496.6768744,,,,,,,,,,,,,,,496.6666363,496.6768744,496.6768744,497.5605107,496.6768744,498.727445,j,0,2.0438978,None,right,12,"[14, 16, 13, 14, 12, 13, 12, 13, 11]",9,shiftedgaze_R_12.png,j,0,3,results33,1,2026-04-20_15h29.21.872,mogelijke versie adaptive staircase builder,,2026.1.3,59.98325268,2026-04-20 15h29.22.227789 +0200
20.5,ecc10neg,right,21,0,21,j,0,2.0272845,None,0,2,2,2,21,0,21,0,498.8375657,,,,,,,,,,,,,,,498.8270668,498.8375657,498.8375657,499.7270568,498.8375657,500.8774931,j,0,2.0272845,None,right,13,"[14, 16, 13, 14, 12, 13, 12, 13, 11]",9,shiftedgaze_R_13.png,j,0,3,results33,1,2026-04-20_15h29.21.872,mogelijke versie adaptive staircase builder,,2026.1.3,59.98325268,2026-04-20 15h29.22.227789 +0200
20.5,ecc10neg,right,22,0,22,j,0,1.8320192,None,0,2,2,2,22,0,22,0,500.9687936,,,,,,,,,,,,,,,500.957756,500.9687936,500.9687936,501.8770203,500.9687936,502.8107355,j,0,1.8320192,None,left,14,"[14, 16, 13, 14, 12, 13, 12, 13, 11]",9,shiftedgaze_L_14.png,j,0,3,results33,1,2026-04-20_15h29.21.872,mogelijke versie adaptive staircase builder,,2026.1.3,59.98325268,2026-04-20 15h29.22.227789 +0200
20.5,ecc10neg,right,23,0,23,f,1,2.1712372,None,0,2,2,2,23,0,23,0,502.9016345,,,,,,,,,,,,,,,502.8910491,502.9016345,502.9016345,503.8104058,502.9016345,505.077373,f,1,2.1712372,None,right,15,"[14, 16, 13, 14, 12, 13, 12, 13, 11, 15]",10,shiftedgaze_R_15.png,f,1,3,results33,1,2026-04-20_15h29.21.872,mogelijke versie adaptive staircase builder,,2026.1.3,59.98325268,2026-04-20 15h29.22.227789 +0200
20.5,ecc10neg,right,24,0,24,f,1,2.3738827,None,0,2,2,2,24,0,24,0,505.1709054,,,,,,,,,,,,,,,505.1594964,505.1709054,505.1709054,506.0769104,505.1709054,507.5606444,f,1,2.3738827,None,right,14,"[14, 16, 13, 14, 12, 13, 12, 13, 11, 15]",10,shiftedgaze_R_14.png,f,1,3,results33,1,2026-04-20_15h29.21.872,mogelijke versie adaptive staircase builder,,2026.1.3,59.98325268,2026-04-20 15h29.22.227789 +0200
20.5,ecc10neg,right,25,0,25,j,0,2.2756109,None,0,2,2,2,25,0,25,0,507.6531826,,,,,,,,,,,,,,,507.6428822,507.6531826,507.6531826,508.5602917,507.6531826,509.9440919,j,0,2.2756109,None,left,13,"[14, 16, 13, 14, 12, 13, 12, 13, 11, 15, 13]",11,shiftedgaze_L_13.png,j,0,3,results33,1,2026-04-20_15h29.21.872,mogelijke versie adaptive staircase builder,,2026.1.3,59.98325268,2026-04-20 15h29.22.227789 +0200
20.5,ecc10neg,right,26,0,26,f,1,2.3330883,None,0,2,2,2,26,0,26,0,510.0356688,,,,,,,,,,,,,,,510.0250384,510.0356688,510.0356688,510.9436828,510.0356688,512.377441,f,1,2.3330883,None,right,14,"[14, 16, 13, 14, 12, 13, 12, 13, 11, 15, 13, 14]",12,shiftedgaze_R_14.png,f,1,3,results33,1,2026-04-20_15h29.21.872,mogelijke versie adaptive staircase builder,,2026.1.3,59.98325268,2026-04-20 15h29.22.227789 +0200
20.5,ecc10neg,right,27,0,27,j,0,1.6020068,None,0,2,2,2,27,0,27,0,512.4708857,,,,,,,,,,,,,,,512.4593417,512.4708857,512.4708857,513.3770122,512.4708857,514.0774061,j,0,1.6020068,None,left,13,"[14, 16, 13, 14, 12, 13, 12, 13, 11, 15, 13, 14, 13]",13,shiftedgaze_L_13.png,j,0,3,results33,1,2026-04-20_15h29.21.872,mogelijke versie adaptive staircase builder,,2026.1.3,59.98325268,2026-04-20 15h29.22.227789 +0200
20.5,ecc10neg,right,28,0,28,j,0,2.3016691,None,0,2,2,2,28,0,28,0,514.1711603,,,,,,,,,,,,,,,514.160337,514.1711603,514.1711603,515.0768816,514.1711603,516.4773292,j,0,2.3016691,None,right,14,"[14, 16, 13, 14, 12, 13, 12, 13, 11, 15, 13, 14, 13]",13,shiftedgaze_R_14.png,j,0,3,results33,1,2026-04-20_15h29.21.872,mogelijke versie adaptive staircase builder,,2026.1.3,59.98325268,2026-04-20 15h29.22.227789 +0200
20.5,ecc10neg,right,29,0,29,j,0,1.6819649,None,0,2,2,2,29,0,29,0,516.566949,,,,,,,,,,,,,,,516.5566703,516.566949,516.566949,517.4768804,516.566949,518.2606401,j,0,1.6819649,None,right,15,"[14, 16, 13, 14, 12, 13, 12, 13, 11, 15, 13, 14, 13]",13,shiftedgaze_R_15.png,j,0,3,results33,1,2026-04-20_15h29.21.872,mogelijke versie adaptive staircase builder,,2026.1.3,59.98325268,2026-04-20 15h29.22.227789 +0200
20.5,ecc10neg,right,30,0,30,j,0,1.5746716,None,0,2,2,2,30,0,30,0,518.3621346,,,,,,,,,,,,,,,518.3510556,518.3621346,518.3621346,519.2600854,518.3621346,519.9439323,j,0,1.5746716,None,left,16,"[14, 16, 13, 14, 12, 13, 12, 13, 11, 15, 13, 14, 13]",13,shiftedgaze_L_16.png,j,0,3,results33,1,2026-04-20_15h29.21.872,mogelijke versie adaptive staircase builder,,2026.1.3,59.98325268,2026-04-20 15h29.22.227789 +0200
20.5,ecc10neg,right,31,0,31,j,1,2.0672009,None,0,2,2,2,31,0,31,0,520.0376449,,,,,,,,,,,,,,,520.0269022,520.0376449,520.0376449,520.9435004,520.0376449,522.1104207,j,1,2.0672009,None,direct,17,"[14, 16, 13, 14, 12, 13, 12, 13, 11, 15, 13, 14, 13, 17]",14,shifteddirectgaze.png,j,1,3,results33,1,2026-04-20_15h29.21.872,mogelijke versie adaptive staircase builder,,2026.1.3,59.98325268,2026-04-20 15h29.22.227789 +0200
20.5,ecc10neg,right,32,0,32,j,1,2.4081748,None,0,2,2,2,32,0,32,0,522.2007575,,,,,,,,,,,,,,,522.1898783,522.2007575,522.2007575,523.1101096,522.2007575,524.6105324,j,1,2.4081748,None,direct,16,"[14, 16, 13, 14, 12, 13, 12, 13, 11, 15, 13, 14, 13, 17]",14,shifteddirectgaze.png,j,1,3,results33,1,2026-04-20_15h29.21.872,mogelijke versie adaptive staircase builder,,2026.1.3,59.98325268,2026-04-20 15h29.22.227789 +0200
20.5,ecc10neg,right,33,0,33,j,0,2.3627103,None,0,2,2,2,33,0,33,0,524.7102025,,,,,,,,,,,,,,,524.6991227,524.7102025,524.7102025,525.6099537,524.7102025,527.0771284,j,0,2.3627103,None,left,15,"[14, 16, 13, 14, 12, 13, 12, 13, 11, 15, 13, 14, 13, 17, 15]",15,shiftedgaze_L_15.png,j,0,3,results33,1,2026-04-20_15h29.21.872,mogelijke versie adaptive staircase builder,,2026.1.3,59.98325268,2026-04-20 15h29.22.227789 +0200
20.5,ecc10neg,right,34,0,34,j,0,1.8174999,None,0,2,2,2,34,0,34,0,527.1753101,,,,,,,,,,,,,,,527.1648924,527.1753101,527.1753101,528.0766849,527.1753101,528.9938525,j,0,1.8174999,None,left,16,"[14, 16, 13, 14, 12, 13, 12, 13, 11, 15, 13, 14, 13, 17, 15]",15,shiftedgaze_L_16.png,j,0,3,results33,1,2026-04-20_15h29.21.872,mogelijke versie adaptive staircase builder,,2026.1.3,59.98325268,2026-04-20 15h29.22.227789 +0200
20.5,ecc10neg,right,35,0,35,j,0,1.8481321,None,0,2,2,2,35,0,35,0,529.0966661,,,,,,,,,,,,,,,529.0853273,529.0966661,529.0966661,529.9933547,529.0966661,530.9604885,j,0,1.8481321,None,left,17,"[14, 16, 13, 14, 12, 13, 12, 13, 11, 15, 13, 14, 13, 17, 15]",15,shiftedgaze_L_17.png,j,0,3,results33,1,2026-04-20_15h29.21.872,mogelijke versie adaptive staircase builder,,2026.1.3,59.98325268,2026-04-20 15h29.22.227789 +0200
20.5,ecc10neg,right,36,0,36,j,1,1.9728076,None,0,2,2,2,36,0,36,0,531.0609348,,,,,,,,,,,,,,,531.050346,531.0609348,531.0609348,531.9602002,531.0609348,533.0436783,j,1,1.9728076,None,direct,18,"[14, 16, 13, 14, 12, 13, 12, 13, 11, 15, 13, 14, 13, 17, 15, 18]",16,shifteddirectgaze.png,j,1,3,results33,1,2026-04-20_15h29.21.872,mogelijke versie adaptive staircase builder,,2026.1.3,59.98325268,2026-04-20 15h29.22.227789 +0200
20.5,ecc10neg,right,37,0,37,f,1,5.9689541,None,0,2,2,2,37,0,37,0,533.1678884,,,,,,,,,,,,,,,533.156195,533.1678884,533.1678884,534.043249,533.1678884,539.1436396,f,1,5.9689541,None,right,17,"[14, 16, 13, 14, 12, 13, 12, 13, 11, 15, 13, 14, 13, 17, 15, 18]",16,shiftedgaze_R_17.png,f,1,3,results33,1,2026-04-20_15h29.21.872,mogelijke versie adaptive staircase builder,,2026.1.3,59.98325268,2026-04-20 15h29.22.227789 +0200
20.5,ecc10neg,right,38,0,38,f,1,2.5028058,None,0,2,2,2,38,0,38,0,539.250093,,,,,,,,,,,,,,,539.2389505,539.250093,539.250093,540.1432413,539.250093,541.7603457,f,1,2.5028058,None,right,16,"[14, 16, 13, 14, 12, 13, 12, 13, 11, 15, 13, 14, 13, 17, 15, 18]",16,shiftedgaze_R_16.png,f,1,3,results33,1,2026-04-20_15h29.21.872,mogelijke versie adaptive staircase builder,,2026.1.3,59.98325268,2026-04-20 15h29.22.227789 +0200
20.5,ecc10neg,right,39,0,39,f,0,3.2980066,None,0,2,2,2,39,0,39,0,541.8708352,,,,,,,,,,,,,,,541.8594346,541.8708352,541.8708352,542.7599875,541.8708352,545.1769464,f,0,3.2980066,None,direct,15,"[14, 16, 13, 14, 12, 13, 12, 13, 11, 15, 13, 14, 13, 17, 15, 18, 15]",17,shifteddirectgaze.png,f,0,3,results33,1,2026-04-20_15h29.21.872,mogelijke versie adaptive staircase builder,,2026.1.3,59.98325268,2026-04-20 15h29.22.227789 +0200
20.5,ecc10neg,right,40,0,40,j,0,2.7880311,None,0,2,2,2,40,0,40,0,545.2928698,,,,,,,,,,,,,,,545.2811906,545.2928698,545.2928698,546.1766076,545.2928698,548.0935396,j,0,2.7880311,None,right,16,"[14, 16, 13, 14, 12, 13, 12, 13, 11, 15, 13, 14, 13, 17, 15, 18, 15]",17,shiftedgaze_R_16.png,j,0,3,results33,1,2026-04-20_15h29.21.872,mogelijke versie adaptive staircase builder,,2026.1.3,59.98325268,2026-04-20 15h29.22.227789 +0200
20.5,ecc10neg,right,41,0,41,j,1,1.9224314,None,0,2,2,2,41,0,41,0,548.2064948,,,,,,,,,,,,,,,548.1946048,548.2064948,548.2064948,549.0930655,548.2064948,550.1435746,j,1,1.9224314,None,direct,17,"[14, 16, 13, 14, 12, 13, 12, 13, 11, 15, 13, 14, 13, 17, 15, 18, 15, 17]",18,shifteddirectgaze.png,j,1,3,results33,1,2026-04-20_15h29.21.872,mogelijke versie adaptive staircase builder,,2026.1.3,59.98325268,2026-04-20 15h29.22.227789 +0200
20.5,ecc10neg,right,42,0,42,j,0,1.5578935,None,0,2,2,2,42,0,42,0,550.2350831,,,,,,,,,,,,,,,550.2248504,550.2350831,550.2350831,551.1431556,550.2350831,551.7934907,j,0,1.5578935,None,left,16,"[14, 16, 13, 14, 12, 13, 12, 13, 11, 15, 13, 14, 13, 17, 15, 18, 15, 17, 16]",19,shiftedgaze_L_16.png,j,0,3,results33,1,2026-04-20_15h29.21.872,mogelijke versie adaptive staircase builder,,2026.1.3,59.98325268,2026-04-20 15h29.22.227789 +0200
20.5,ecc10neg,right,43,0,43,j,0,1.4844415,None,0,2,2,2,43,0,43,0,551.8843876,,,,,,,,,,,,,,,551.8734838,551.8843876,551.8843876,552.7934788,551.8843876,553.3767753,j,0,1.4844415,None,left,17,"[14, 16, 13, 14, 12, 13, 12, 13, 11, 15, 13, 14, 13, 17, 15, 18, 15, 17, 16]",19,shiftedgaze_L_17.png,j,0,3,results33,1,2026-04-20_15h29.21.872,mogelijke versie adaptive staircase builder,,2026.1.3,59.98325268,2026-04-20 15h29.22.227789 +0200
20.5,ecc10neg,right,44,0,44,j,0,1.4789095,None,0,2,2,2,44,0,44,0,553.5381013,,,,,,,,,,,,,,,553.4909817,553.5381013,553.5381013,554.3764805,553.5381013,555.0268713,j,0,1.4789095,None,right,18,"[14, 16, 13, 14, 12, 13, 12, 13, 11, 15, 13, 14, 13, 17, 15, 18, 15, 17, 16]",19,shiftedgaze_R_18.png,j,0,3,results33,1,2026-04-20_15h29.21.872,mogelijke versie adaptive staircase builder,,2026.1.3,59.98325268,2026-04-20 15h29.22.227789 +0200
20.5,ecc10neg,right,45,0,45,j,0,1.7231988,None,0,2,2,2,45,0,45,0,555.1337325,,,,,,,,,,,,,,,555.1229238,555.1337325,555.1337325,556.026431,555.1337325,556.8603647,j,0,1.7231988,None,right,19,"[14, 16, 13, 14, 12, 13, 12, 13, 11, 15, 13, 14, 13, 17, 15, 18, 15, 17, 16]",19,shiftedgaze_R_19.png,j,0,3,results33,1,2026-04-20_15h29.21.872,mogelijke versie adaptive staircase builder,,2026.1.3,59.98325268,2026-04-20 15h29.22.227789 +0200
20.5,ecc10neg,right,46,0,46,j,1,1.6791327,None,0,2,2,2,46,0,46,0,556.9697416,,,,,,,,,,,,,,,556.9584631,556.9697416,556.9697416,557.8598848,556.9697416,558.660264,j,1,1.6791327,None,direct,20,"[14, 16, 13, 14, 12, 13, 12, 13, 11, 15, 13, 14, 13, 17, 15, 18, 15, 17, 16, 20]",20,shifteddirectgaze.png,j,1,3,results33,1,2026-04-20_15h29.21.872,mogelijke versie adaptive staircase builder,,2026.1.3,59.98325268,2026-04-20 15h29.22.227789 +0200
20.5,ecc10neg,right,47,0,47,j,0,1.8232425,None,0,2,2,2,47,0,47,0,558.7615965,,,,,,,,,,,,,,,558.7508387,558.7615965,558.7615965,559.6597291,558.7615965,560.5934545,j,0,1.8232425,None,left,19,"[14, 16, 13, 14, 12, 13, 12, 13, 11, 15, 13, 14, 13, 17, 15, 18, 15, 17, 16, 20, 19]",21,shiftedgaze_L_19.png,j,0,3,results33,1,2026-04-20_15h29.21.872,mogelijke versie adaptive staircase builder,,2026.1.3,59.98325268,2026-04-20 15h29.22.227789 +0200
20.5,ecc10neg,right,48,0,48,j,1,1.5696952,None,0,2,2,2,48,0,48,0,560.687164,,,,,,,,,,,,,,,560.6756419,560.687164,560.687164,561.5930086,560.687164,562.2601475,j,1,1.5696952,None,direct,20,"[14, 16, 13, 14, 12, 13, 12, 13, 11, 15, 13, 14, 13, 17, 15, 18, 15, 17, 16, 20, 19, 20]",22,shifteddirectgaze.png,j,1,3,results33,1,2026-04-20_15h29.21.872,mogelijke versie adaptive staircase builder,,2026.1.3,59.98325268,2026-04-20 15h29.22.227789 +0200
20.5,ecc10neg,right,49,0,49,j,0,1.9413569,None,0,2,2,2,49,0,49,0,562.3555008,,,,,,,,,,,,,,,562.3439371,562.3555008,562.3555008,563.2597419,562.3555008,564.3100925,j,0,1.9413569,None,left,19,"[14, 16, 13, 14, 12, 13, 12, 13, 11, 15, 13, 14, 13, 17, 15, 18, 15, 17, 16, 20, 19, 20, 19]",23,shiftedgaze_L_19.png,j,0,3,results33,1,2026-04-20_15h29.21.872,mogelijke versie adaptive staircase builder,,2026.1.3,59.98325268,2026-04-20 15h29.22.227789 +0200
20.5,ecc10neg,right,50,0,50,j,1,1.7105266,None,0,2,2,2,50,0,50,0,564.4023124,,,,,,,,,,,,,,,564.3920173,564.4023124,564.4023124,565.3096369,564.4023124,566.126681,j,1,1.7105266,None,direct,20,"[14, 16, 13, 14, 12, 13, 12, 13, 11, 15, 13, 14, 13, 17, 15, 18, 15, 17, 16, 20, 19, 20, 19, 20]",24,shifteddirectgaze.png,j,1,3,results33,1,2026-04-20_15h29.21.872,mogelijke versie adaptive staircase builder,,2026.1.3,59.98325268,2026-04-20 15h29.22.227789 +0200
20.5,ecc10neg,right,51,0,51,j,0,1.6629407,None,0,2,2,2,51,0,51,0,566.2179919,,,,,,,,,,,,,,,566.2068395,566.2179919,566.2179919,567.1262659,566.2179919,567.8933666,j,0,1.6629407,None,left,19,"[14, 16, 13, 14, 12, 13, 12, 13, 11, 15, 13, 14, 13, 17, 15, 18, 15, 17, 16, 20, 19, 20, 19, 20, 19]",25,shiftedgaze_L_19.png,j,0,3,results33,1,2026-04-20_15h29.21.872,mogelijke versie adaptive staircase builder,,2026.1.3,59.98325268,2026-04-20 15h29.22.227789 +0200
20.5,ecc10neg,right,52,0,52,f,1,2.0806109,None,0,2,2,2,52,0,52,0,568.0162396,,,,,,,,,,,,,,,568.004257,568.0162396,568.0162396,568.892837,568.0162396,570.110012,f,1,2.0806109,None,right,20,"[14, 16, 13, 14, 12, 13, 12, 13, 11, 15, 13, 14, 13, 17, 15, 18, 15, 17, 16, 20, 19, 20, 19, 20, 19, 20]",26,shiftedgaze_R_20.png,f,1,3,results33,1,2026-04-20_15h29.21.872,mogelijke versie adaptive staircase builder,,2026.1.3,59.98325268,2026-04-20 15h29.22.227789 +0200
20.5,ecc10neg,right,53,0,53,j,1,4.1809084,None,0,2,2,2,53,0,53,0,570.2200562,,,,,,,,,,,,,,,570.2088159,570.2200562,570.2200562,571.1097055,570.2200562,574.4099546,j,1,4.1809084,None,direct,19,"[14, 16, 13, 14, 12, 13, 12, 13, 11, 15, 13, 14, 13, 17, 15, 18, 15, 17, 16, 20, 19, 20, 19, 20, 19, 20]",26,shifteddirectgaze.png,j,1,3,results33,1,2026-04-20_15h29.21.872,mogelijke versie adaptive staircase builder,,2026.1.3,59.98325268,2026-04-20 15h29.22.227789 +0200
20.5,ecc10neg,right,54,0,54,f,1,4.8109116,None,0,2,2,2,54,0,54,0,574.5259593,,,,,,,,,,,,,,,574.5142848,574.5259593,574.5259593,575.4095993,574.5259593,579.343259,f,1,4.8109116,None,right,18,"[14, 16, 13, 14, 12, 13, 12, 13, 11, 15, 13, 14, 13, 17, 15, 18, 15, 17, 16, 20, 19, 20, 19, 20, 19, 20]",26,shiftedgaze_R_18.png,f,1,3,results33,1,2026-04-20_15h29.21.872,mogelijke versie adaptive staircase builder,,2026.1.3,59.98325268,2026-04-20 15h29.22.227789 +0200
20.5,ecc10neg,right,55,0,55,f,1,1.9757783,None,0,2,2,2,55,0,55,0,579.4410779,,,,,,,,,,,,,,,579.4296968,579.4410779,579.4410779,580.3428688,579.4410779,581.4266372,f,1,1.9757783,None,right,17,"[14, 16, 13, 14, 12, 13, 12, 13, 11, 15, 13, 14, 13, 17, 15, 18, 15, 17, 16, 20, 19, 20, 19, 20, 19, 20]",26,shiftedgaze_R_17.png,f,1,3,results33,1,2026-04-20_15h29.21.872,mogelijke versie adaptive staircase builder,,2026.1.3,59.98325268,2026-04-20 15h29.22.227789 +0200
20.5,ecc10neg,right,56,0,56,f,0,2.765588,None,0,2,2,2,56,0,56,0,581.5393481,,,,,,,,,,,,,,,581.527787,581.5393481,581.5393481,582.4260391,581.5393481,584.3097853,f,0,2.765588,None,direct,16,"[14, 16, 13, 14, 12, 13, 12, 13, 11, 15, 13, 14, 13, 17, 15, 18, 15, 17, 16, 20, 19, 20, 19, 20, 19, 20, 16]",27,shifteddirectgaze.png,f,0,3,results33,1,2026-04-20_15h29.21.872,mogelijke versie adaptive staircase builder,,2026.1.3,59.98325268,2026-04-20 15h29.22.227789 +0200
20.5,ecc10neg,right,57,0,57,j,1,2.0856268,None,0,2,2,2,57,0,57,0,584.4033199,,,,,,,,,,,,,,,584.3922239,584.4033199,584.4033199,585.3093771,584.4033199,586.4932121,j,1,2.0856268,None,direct,17,"[14, 16, 13, 14, 12, 13, 12, 13, 11, 15, 13, 14, 13, 17, 15, 18, 15, 17, 16, 20, 19, 20, 19, 20, 19, 20, 16, 17]",28,shifteddirectgaze.png,j,1,3,results33,1,2026-04-20_15h29.21.872,mogelijke versie adaptive staircase builder,,2026.1.3,59.98325268,2026-04-20 15h29.22.227789 +0200
20.5,ecc10neg,right,58,0,58,j,1,1.911751,None,0,2,2,2,58,0,58,0,586.5852183,,,,,,,,,,,,,,,586.5745817,586.5852183,586.5852183,587.4928118,586.5852183,588.5096834,j,1,1.911751,None,direct,16,"[14, 16, 13, 14, 12, 13, 12, 13, 11, 15, 13, 14, 13, 17, 15, 18, 15, 17, 16, 20, 19, 20, 19, 20, 19, 20, 16, 17]",28,shifteddirectgaze.png,j,1,3,results33,1,2026-04-20_15h29.21.872,mogelijke versie adaptive staircase builder,,2026.1.3,59.98325268,2026-04-20 15h29.22.227789 +0200
20.5,ecc10neg,right,59,0,59,j,0,1.8474553,None,0,2,2,2,59,0,59,0,588.6094226,,,,,,,,,,,,,,,588.598825,588.6094226,588.6094226,589.509253,588.6094226,590.4597165,j,0,1.8474553,None,right,15,"[14, 16, 13, 14, 12, 13, 12, 13, 11, 15, 13, 14, 13, 17, 15, 18, 15, 17, 16, 20, 19, 20, 19, 20, 19, 20, 16, 17, 15]",29,shiftedgaze_R_15.png,j,0,3,results33,1,2026-04-20_15h29.21.872,mogelijke versie adaptive staircase builder,,2026.1.3,59.98325268,2026-04-20 15h29.22.227789 +0200
20.5,ecc10neg,right,2,2,0,,,,,0,2,2,2,,,,,,,,,,,,,,,,,,,,,,,,,,,,,,,,,,,,,,results33,1,2026-04-20_15h29.21.872,mogelijke versie adaptive staircase builder,,2026.1.3,59.98325268,2026-04-20 15h29.22.227789 +0200
