xPos,stimulusSet,whichImage,thisN,thisTrialN,thisRepN,key_resp.keys,key_resp.corr,key_resp.rt,key_resp.duration,blocks.thisRepN,blocks.thisTrialN,blocks.thisN,blocks.thisIndex,trials.thisRepN,trials.thisTrialN,trials.thisN,trials.thisIndex,thisRow.t,notes,piloting,intro.started,introinstructions.started,intro_key.started,demo_image_left.started,demo_image_middle.started,demo_image_right.started,intro.stopped,intro_key.keys,intro_key.rt,intro_key.duration,block_start.started,block_start.stopped,trial.started,key_resp.started,middle_image.started,right_image.started,left_image.started,trial.stopped,trials.key_resp.keys,trials.key_resp.corr,trials.key_resp.rt,trials.key_resp.duration,direction,angle,reversal_intensities,number_reversals,stimulus,response,correct,blockNumber,participant,session,date,expName,expVersion,psychopyVersion,frameRate,expStart,
,,,,,,,,,,,,,,,,,,,,False,0.04883200000040233,0.05649479999920004,0.05649479999920004,0.05649479999920004,0.05649479999920004,0.05649479999920004,1433.0891735999976,space,1432.9025889000004,0.12792669999907957,,,,,,,,,,,,,,,,,,,,,results32,001,2026-04-20_14h36.39.423,mogelijke versie adaptive staircase builder,,2026.1.3,60.051259755465466,2026-04-20 14h36.39.812482 +0200,
4.5,ecc10pos,left,0,0,0,f,0,24.162970600002154,None,0,0,0,0,0,0,0,0,1433.411969599998,,,,,,,,,,,,,1433.2983318999977,1433.2983819999972,1433.401581099999,1433.411969599998,1433.411969599998,1433.411969599998,1434.3053532999984,1457.5888189999969,f,0,24.162970600002154,None,direct,20,[],0,shifteddirectgaze.png,f,0,1,results32,001,2026-04-20_14h36.39.423,mogelijke versie adaptive staircase builder,,2026.1.3,60.051259755465466,2026-04-20 14h36.39.812482 +0200,
4.5,ecc10pos,left,1,0,1,j,0,49.55362010000317,None,0,0,0,0,1,0,1,0,1457.6854036999976,,,,,,,,,,,,,,,1457.6738339000003,1457.6854036999976,1457.6854036999976,1457.6854036999976,1458.5882528000002,1507.2548414999983,j,0,49.55362010000317,None,right,20,[],0,shiftedgaze_R_20.png,j,0,1,results32,001,2026-04-20_14h36.39.423,mogelijke versie adaptive staircase builder,,2026.1.3,60.051259755465466,2026-04-20 14h36.39.812482 +0200,
4.5,ecc10pos,left,2,0,2,j,0,6.595433399998001,None,0,0,0,0,2,0,2,0,1507.379544299998,,,,,,,,,,,,,,,1507.3680118999982,1507.379544299998,1507.379544299998,1507.379544299998,1508.2543479999986,1513.9881236999972,j,0,6.595433399998001,None,left,20,[],0,shiftedgaze_L_20.png,j,0,1,results32,001,2026-04-20_14h36.39.423,mogelijke versie adaptive staircase builder,,2026.1.3,60.051259755465466,2026-04-20 14h36.39.812482 +0200,
4.5,ecc10pos,left,3,0,3,f,1,4.318203800001356,None,0,0,0,0,3,0,3,0,1514.104852499997,,,,,,,,,,,,,,,1514.0940267999977,1514.104852499997,1514.104852499997,1514.104852499997,1514.9876315000001,1518.4382334999973,f,1,4.318203800001356,None,right,20,[20],1,shiftedgaze_R_20.png,f,1,1,results32,001,2026-04-20_14h36.39.423,mogelijke versie adaptive staircase builder,,2026.1.3,60.051259755465466,2026-04-20 14h36.39.812482 +0200,
4.5,ecc10pos,left,4,0,4,f,1,8.461846800000785,None,0,0,0,0,4,0,4,0,1518.5611575000003,,,,,,,,,,,,,,,1518.5500398000004,1518.5611575000003,1518.5611575000003,1518.5611575000003,1519.4376542999998,1527.0378060000003,f,1,8.461846800000785,None,left,19,[20],1,shiftedgaze_L_19.png,f,1,1,results32,001,2026-04-20_14h36.39.423,mogelijke versie adaptive staircase builder,,2026.1.3,60.051259755465466,2026-04-20 14h36.39.812482 +0200,
4.5,ecc10pos,left,5,0,5,j,0,5.41224389999843,None,0,0,0,0,5,0,5,0,1527.1548369999982,,,,,,,,,,,,,,,1527.1435853999974,1527.1548369999982,1527.1548369999982,1527.1548369999982,1528.0372930999984,1532.5712036000004,j,0,5.41224389999843,None,right,18,"[20, 18]",2,shiftedgaze_R_18.png,j,0,1,results32,001,2026-04-20_14h36.39.423,mogelijke versie adaptive staircase builder,,2026.1.3,60.051259755465466,2026-04-20 14h36.39.812482 +0200,
4.5,ecc10pos,left,6,0,6,f,1,9.653325700001005,None,0,0,0,0,6,0,6,0,1532.6818557999977,,,,,,,,,,,,,,,1532.6708956000002,1532.6818557999977,1532.6818557999977,1532.6818557999977,1533.5708209000004,1542.3378735999977,f,1,9.653325700001005,None,right,19,"[20, 18, 19]",3,shiftedgaze_R_19.png,f,1,1,results32,001,2026-04-20_14h36.39.423,mogelijke versie adaptive staircase builder,,2026.1.3,60.051259755465466,2026-04-20 14h36.39.812482 +0200,
4.5,ecc10pos,left,7,0,7,f,1,3.2873073000009754,None,0,0,0,0,7,0,7,0,1542.4638522999994,,,,,,,,,,,,,,,1542.4523956999983,1542.4638522999994,1542.4638522999994,1542.4638522999994,1543.3372158999991,1545.7541963999975,f,1,3.2873073000009754,None,left,18,"[20, 18, 19]",3,shiftedgaze_L_18.png,f,1,1,results32,001,2026-04-20_14h36.39.423,mogelijke versie adaptive staircase builder,,2026.1.3,60.051259755465466,2026-04-20 14h36.39.812482 +0200,
4.5,ecc10pos,left,8,0,8,j,1,4.232613399999536,None,0,0,0,0,8,0,8,0,1545.8704838999984,,,,,,,,,,,,,,,1545.8589477999994,1545.8704838999984,1545.8704838999984,1545.8704838999984,1546.7538779999995,1550.1043020999969,j,1,4.232613399999536,None,direct,17,"[20, 18, 19]",3,shifteddirectgaze.png,j,1,1,results32,001,2026-04-20_14h36.39.423,mogelijke versie adaptive staircase builder,,2026.1.3,60.051259755465466,2026-04-20 14h36.39.812482 +0200,
4.5,ecc10pos,left,9,0,9,f,1,6.019461700001557,None,0,0,0,0,9,0,9,0,1550.2355306999998,,,,,,,,,,,,,,,1550.2234640999995,1550.2355306999998,1550.2355306999998,1550.2355306999998,1551.1036932999996,1556.270861099998,f,1,6.019461700001557,None,left,16,"[20, 18, 19]",3,shiftedgaze_L_16.png,f,1,1,results32,001,2026-04-20_14h36.39.423,mogelijke versie adaptive staircase builder,,2026.1.3,60.051259755465466,2026-04-20 14h36.39.812482 +0200,
4.5,ecc10pos,left,10,0,10,j,0,4.9006990999987465,None,0,0,0,0,10,0,10,0,1556.3944927999983,,,,,,,,,,,,,,,1556.3829657999995,1556.3944927999983,1556.3944927999983,1556.3944927999983,1557.2703743999991,1561.3040806999998,j,0,4.9006990999987465,None,left,15,"[20, 18, 19, 15]",4,shiftedgaze_L_15.png,j,0,1,results32,001,2026-04-20_14h36.39.423,mogelijke versie adaptive staircase builder,,2026.1.3,60.051259755465466,2026-04-20 14h36.39.812482 +0200,
4.5,ecc10pos,left,11,0,11,j,0,6.3560436999978265,None,0,0,0,0,11,0,11,0,1561.419000599999,,,,,,,,,,,,,,,1561.408754,1561.419000599999,1561.419000599999,1561.419000599999,1562.3035968999975,1567.787370799997,j,0,6.3560436999978265,None,right,16,"[20, 18, 19, 15]",4,shiftedgaze_R_16.png,j,0,1,results32,001,2026-04-20_14h36.39.423,mogelijke versie adaptive staircase builder,,2026.1.3,60.051259755465466,2026-04-20 14h36.39.812482 +0200,
4.5,ecc10pos,left,12,0,12,f,1,4.747964700000011,None,0,0,0,0,12,0,12,0,1567.8831552999982,,,,,,,,,,,,,,,1567.8721776999992,1567.8831552999982,1567.8831552999982,1567.8831552999982,1568.786818499997,1572.6372448000002,f,1,4.747964700000011,None,right,17,"[20, 18, 19, 15, 17]",5,shiftedgaze_R_17.png,f,1,1,results32,001,2026-04-20_14h36.39.423,mogelijke versie adaptive staircase builder,,2026.1.3,60.051259755465466,2026-04-20 14h36.39.812482 +0200,
4.5,ecc10pos,left,13,0,13,f,1,6.869358600000851,None,0,0,0,0,13,0,13,0,1572.7537225999986,,,,,,,,,,,,,,,1572.741575199998,1572.7537225999986,1572.7537225999986,1572.7537225999986,1573.6369357999974,1579.6371875999976,f,1,6.869358600000851,None,left,16,"[20, 18, 19, 15, 17]",5,shiftedgaze_L_16.png,f,1,1,results32,001,2026-04-20_14h36.39.423,mogelijke versie adaptive staircase builder,,2026.1.3,60.051259755465466,2026-04-20 14h36.39.812482 +0200,
4.5,ecc10pos,left,14,0,14,j,0,4.771358000001783,None,0,0,0,0,14,0,14,0,1579.756040199998,,,,,,,,,,,,,,,1579.7448483999979,1579.756040199998,1579.756040199998,1579.756040199998,1580.6367195999992,1584.5371341999999,j,0,4.771358000001783,None,right,15,"[20, 18, 19, 15, 17, 15]",6,shiftedgaze_R_15.png,j,0,1,results32,001,2026-04-20_14h36.39.423,mogelijke versie adaptive staircase builder,,2026.1.3,60.051259755465466,2026-04-20 14h36.39.812482 +0200,
4.5,ecc10pos,left,15,0,15,j,1,6.200291799999832,None,0,0,0,0,15,0,15,0,1584.6307830999976,,,,,,,,,,,,,,,1584.617865799999,1584.6307830999976,1584.6307830999976,1584.6307830999976,1585.5367320999976,1590.8371559999978,j,1,6.200291799999832,None,direct,16,"[20, 18, 19, 15, 17, 15, 16]",7,shifteddirectgaze.png,j,1,1,results32,001,2026-04-20_14h36.39.423,mogelijke versie adaptive staircase builder,,2026.1.3,60.051259755465466,2026-04-20 14h36.39.812482 +0200,
4.5,ecc10pos,left,16,0,16,f,1,7.124579999999696,None,0,0,0,0,16,0,16,0,1590.9386148999984,,,,,,,,,,,,,,,1590.9285874999987,1590.9386148999984,1590.9386148999984,1590.9386148999984,1591.8370894,1598.0703348999996,f,1,7.124579999999696,None,left,15,"[20, 18, 19, 15, 17, 15, 16]",7,shiftedgaze_L_15.png,f,1,1,results32,001,2026-04-20_14h36.39.423,mogelijke versie adaptive staircase builder,,2026.1.3,60.051259755465466,2026-04-20 14h36.39.812482 +0200,
4.5,ecc10pos,left,17,0,17,f,1,5.467657999997755,None,0,0,0,0,17,0,17,0,1598.1794754000002,,,,,,,,,,,,,,,1598.1697442000004,1598.1794754000002,1598.1794754000002,1598.1794754000002,1599.0699803999996,1603.653633599999,f,1,5.467657999997755,None,left,14,"[20, 18, 19, 15, 17, 15, 16]",7,shiftedgaze_L_14.png,f,1,1,results32,001,2026-04-20_14h36.39.423,mogelijke versie adaptive staircase builder,,2026.1.3,60.051259755465466,2026-04-20 14h36.39.812482 +0200,
4.5,ecc10pos,left,18,0,18,j,0,4.9346456000021135,None,0,0,0,0,18,0,18,0,1603.7523900999986,,,,,,,,,,,,,,,1603.7414458999992,1603.7523900999986,1603.7523900999986,1603.7523900999986,1604.6531388000003,1608.7034194999978,j,0,4.9346456000021135,None,right,13,"[20, 18, 19, 15, 17, 15, 16, 13]",8,shiftedgaze_R_13.png,j,0,1,results32,001,2026-04-20_14h36.39.423,mogelijke versie adaptive staircase builder,,2026.1.3,60.051259755465466,2026-04-20 14h36.39.812482 +0200,
4.5,ecc10pos,left,19,0,19,j,0,4.965400600001885,None,0,0,0,0,19,0,19,0,1608.801770799997,,,,,,,,,,,,,,,1608.7911399999975,1608.801770799997,1608.801770799997,1608.801770799997,1609.7029432999989,1613.7700759,j,0,4.965400600001885,None,right,14,"[20, 18, 19, 15, 17, 15, 16, 13]",8,shiftedgaze_R_14.png,j,0,1,results32,001,2026-04-20_14h36.39.423,mogelijke versie adaptive staircase builder,,2026.1.3,60.051259755465466,2026-04-20 14h36.39.812482 +0200,
4.5,ecc10pos,left,20,0,20,j,1,5.664561999998114,None,0,0,0,0,20,0,20,0,1613.8625140999975,,,,,,,,,,,,,,,1613.851109299998,1613.8625140999975,1613.8625140999975,1613.8625140999975,1614.769615899997,1619.5365961999996,j,1,5.664561999998114,None,direct,15,"[20, 18, 19, 15, 17, 15, 16, 13, 15]",9,shifteddirectgaze.png,j,1,1,results32,001,2026-04-20_14h36.39.423,mogelijke versie adaptive staircase builder,,2026.1.3,60.051259755465466,2026-04-20 14h36.39.812482 +0200,
4.5,ecc10pos,left,21,0,21,f,1,9.138241499997093,None,0,0,0,0,21,0,21,0,1619.6288488999999,,,,,,,,,,,,,,,1619.617761999998,1619.6288488999999,1619.6288488999999,1619.6288488999999,1620.5362986,1628.7697585999995,f,1,9.138241499997093,None,right,14,"[20, 18, 19, 15, 17, 15, 16, 13, 15]",9,shiftedgaze_R_14.png,f,1,1,results32,001,2026-04-20_14h36.39.423,mogelijke versie adaptive staircase builder,,2026.1.3,60.051259755465466,2026-04-20 14h36.39.812482 +0200,
4.5,ecc10pos,left,22,0,22,j,0,6.305689700002404,None,0,0,0,0,22,0,22,0,1628.8694877999988,,,,,,,,,,,,,,,1628.858472099997,1628.8694877999988,1628.8694877999988,1628.8694877999988,1629.769415499999,1635.1864394000004,j,0,6.305689700002404,None,left,13,"[20, 18, 19, 15, 17, 15, 16, 13, 15, 13]",10,shiftedgaze_L_13.png,j,0,1,results32,001,2026-04-20_14h36.39.423,mogelijke versie adaptive staircase builder,,2026.1.3,60.051259755465466,2026-04-20 14h36.39.812482 +0200,
4.5,ecc10pos,left,23,0,23,j,1,6.761140200000227,None,0,0,0,0,23,0,23,0,1635.2780219999986,,,,,,,,,,,,,,,1635.2666659999995,1635.2780219999986,1635.2780219999986,1635.2780219999986,1636.1861867999978,1642.0530026999986,j,1,6.761140200000227,None,direct,14,"[20, 18, 19, 15, 17, 15, 16, 13, 15, 13, 14]",11,shifteddirectgaze.png,j,1,1,results32,001,2026-04-20_14h36.39.423,mogelijke versie adaptive staircase builder,,2026.1.3,60.051259755465466,2026-04-20 14h36.39.812482 +0200,
4.5,ecc10pos,left,24,0,24,f,1,5.350620900000649,None,0,0,0,0,24,0,24,0,1642.1444843999998,,,,,,,,,,,,,,,1642.1337720999982,1642.1444843999998,1642.1444843999998,1642.1444843999998,1643.0525519999974,1647.5028582999985,f,1,5.350620900000649,None,right,13,"[20, 18, 19, 15, 17, 15, 16, 13, 15, 13, 14]",11,shiftedgaze_R_13.png,f,1,1,results32,001,2026-04-20_14h36.39.423,mogelijke versie adaptive staircase builder,,2026.1.3,60.051259755465466,2026-04-20 14h36.39.812482 +0200,
4.5,ecc10pos,left,25,0,25,f,1,7.844886999999289,None,0,0,0,0,25,0,25,0,1647.6023051999982,,,,,,,,,,,,,,,1647.5914925999969,1647.6023051999982,1647.6023051999982,1647.6023051999982,1648.5024233000004,1655.4527866999997,f,1,7.844886999999289,None,right,12,"[20, 18, 19, 15, 17, 15, 16, 13, 15, 13, 14]",11,shiftedgaze_R_12.png,f,1,1,results32,001,2026-04-20_14h36.39.423,mogelijke versie adaptive staircase builder,,2026.1.3,60.051259755465466,2026-04-20 14h36.39.812482 +0200,
4.5,ecc10pos,left,26,0,26,j,0,8.57491989999835,None,0,0,0,0,26,0,26,0,1655.5522932999993,,,,,,,,,,,,,,,1655.540764199999,1655.5522932999993,1655.5522932999993,1655.5522932999993,1656.4524695,1664.1361125000003,j,0,8.57491989999835,None,right,11,"[20, 18, 19, 15, 17, 15, 16, 13, 15, 13, 14, 11]",12,shiftedgaze_R_11.png,j,0,1,results32,001,2026-04-20_14h36.39.423,mogelijke versie adaptive staircase builder,,2026.1.3,60.051259755465466,2026-04-20 14h36.39.812482 +0200,
4.5,ecc10pos,left,27,0,27,f,0,5.979798400003347,None,0,0,0,0,27,0,27,0,1664.2273902999987,,,,,,,,,,,,,,,1664.216622099997,1664.2273902999987,1664.2273902999987,1664.2273902999987,1665.135787299998,1670.2202639999996,f,0,5.979798400003347,None,direct,12,"[20, 18, 19, 15, 17, 15, 16, 13, 15, 13, 14, 11]",12,shifteddirectgaze.png,f,0,1,results32,001,2026-04-20_14h36.39.423,mogelijke versie adaptive staircase builder,,2026.1.3,60.051259755465466,2026-04-20 14h36.39.812482 +0200,
4.5,ecc10pos,left,28,0,28,j,0,4.528137699999206,None,0,0,0,0,28,0,28,0,1670.3112589999982,,,,,,,,,,,,,,,1670.300357799999,1670.3112589999982,1670.3112589999982,1670.3112589999982,1671.2193162999974,1674.8526743000002,j,0,4.528137699999206,None,right,13,"[20, 18, 19, 15, 17, 15, 16, 13, 15, 13, 14, 11]",12,shiftedgaze_R_13.png,j,0,1,results32,001,2026-04-20_14h36.39.423,mogelijke versie adaptive staircase builder,,2026.1.3,60.051259755465466,2026-04-20 14h36.39.812482 +0200,
4.5,ecc10pos,left,29,0,29,j,0,5.50111459999971,None,0,0,0,0,29,0,29,0,1674.946127799998,,,,,,,,,,,,,,,1674.9343869000004,1674.946127799998,1674.946127799998,1674.946127799998,1675.852262999997,1680.4527882999973,j,0,5.50111459999971,None,left,14,"[20, 18, 19, 15, 17, 15, 16, 13, 15, 13, 14, 11]",12,shiftedgaze_L_14.png,j,0,1,results32,001,2026-04-20_14h36.39.423,mogelijke versie adaptive staircase builder,,2026.1.3,60.051259755465466,2026-04-20 14h36.39.812482 +0200,
4.5,ecc10pos,left,30,0,30,j,1,8.820952699999907,None,0,0,0,0,30,0,30,0,1680.5463181999985,,,,,,,,,,,,,,,1680.5351187999986,1680.5463181999985,1680.5463181999985,1680.5463181999985,1681.4520774999983,1689.3691021999985,j,1,8.820952699999907,None,direct,15,"[20, 18, 19, 15, 17, 15, 16, 13, 15, 13, 14, 11, 15]",13,shifteddirectgaze.png,j,1,1,results32,001,2026-04-20_14h36.39.423,mogelijke versie adaptive staircase builder,,2026.1.3,60.051259755465466,2026-04-20 14h36.39.812482 +0200,
4.5,ecc10pos,left,31,0,31,f,1,4.7211869999991904,None,0,0,0,0,31,0,31,0,1689.462019999999,,,,,,,,,,,,,,,1689.4502859999993,1689.462019999999,1689.462019999999,1689.462019999999,1690.368915799998,1694.1858319999992,f,1,4.7211869999991904,None,left,14,"[20, 18, 19, 15, 17, 15, 16, 13, 15, 13, 14, 11, 15]",13,shiftedgaze_L_14.png,f,1,1,results32,001,2026-04-20_14h36.39.423,mogelijke versie adaptive staircase builder,,2026.1.3,60.051259755465466,2026-04-20 14h36.39.812482 +0200,
4.5,ecc10pos,left,32,0,32,j,1,3.560682100000122,None,0,0,0,0,32,0,32,0,1694.286481199997,,,,,,,,,,,,,,,1694.2764076999993,1694.286481199997,1694.286481199997,1694.286481199997,1695.185469699998,1697.8525771999994,j,1,3.560682100000122,None,direct,13,"[20, 18, 19, 15, 17, 15, 16, 13, 15, 13, 14, 11, 15]",13,shifteddirectgaze.png,j,1,1,results32,001,2026-04-20_14h36.39.423,mogelijke versie adaptive staircase builder,,2026.1.3,60.051259755465466,2026-04-20 14h36.39.812482 +0200,
4.5,ecc10pos,left,33,0,33,f,1,2.2428741000003356,None,0,0,0,0,33,0,33,0,1697.956296799999,,,,,,,,,,,,,,,1697.9441382000005,1697.956296799999,1697.956296799999,1697.956296799999,1698.852288799997,1700.202706,f,1,2.2428741000003356,None,right,12,"[20, 18, 19, 15, 17, 15, 16, 13, 15, 13, 14, 11, 15]",13,shiftedgaze_R_12.png,f,1,1,results32,001,2026-04-20_14h36.39.423,mogelijke versie adaptive staircase builder,,2026.1.3,60.051259755465466,2026-04-20 14h36.39.812482 +0200,
4.5,ecc10pos,left,34,0,34,j,0,5.440047299998696,None,0,0,0,0,34,0,34,0,1700.3115502,,,,,,,,,,,,,,,1700.2966734999973,1700.3115502,1700.3115502,1700.3115502,1701.2020601999975,1705.752474099998,j,0,5.440047299998696,None,right,11,"[20, 18, 19, 15, 17, 15, 16, 13, 15, 13, 14, 11, 15, 11]",14,shiftedgaze_R_11.png,j,0,1,results32,001,2026-04-20_14h36.39.423,mogelijke versie adaptive staircase builder,,2026.1.3,60.051259755465466,2026-04-20 14h36.39.812482 +0200,
4.5,ecc10pos,left,35,0,35,j,1,4.217077599998447,None,0,0,0,0,35,0,35,0,1705.8541646999984,,,,,,,,,,,,,,,1705.8432613000004,1705.8541646999984,1705.8541646999984,1705.8541646999984,1706.7520820999998,1710.0855230999987,j,1,4.217077599998447,None,direct,12,"[20, 18, 19, 15, 17, 15, 16, 13, 15, 13, 14, 11, 15, 11, 12]",15,shifteddirectgaze.png,j,1,1,results32,001,2026-04-20_14h36.39.423,mogelijke versie adaptive staircase builder,,2026.1.3,60.051259755465466,2026-04-20 14h36.39.812482 +0200,
4.5,ecc10pos,left,36,0,36,f,0,4.876281099997868,None,0,0,0,0,36,0,36,0,1710.1788901,,,,,,,,,,,,,,,1710.16806,1710.1788901,1710.1788901,1710.1788901,1711.0850309999987,1715.0686960999992,f,0,4.876281099997868,None,direct,11,"[20, 18, 19, 15, 17, 15, 16, 13, 15, 13, 14, 11, 15, 11, 12, 11]",16,shifteddirectgaze.png,f,0,1,results32,001,2026-04-20_14h36.39.423,mogelijke versie adaptive staircase builder,,2026.1.3,60.051259755465466,2026-04-20 14h36.39.812482 +0200,
4.5,ecc10pos,left,37,0,37,f,1,2.6706979000009596,None,0,0,0,0,37,0,37,0,1715.1604754,,,,,,,,,,,,,,,1715.1501009999993,1715.1604754,1715.1604754,1715.1604754,1716.0686504000005,1717.8353128999988,f,1,2.6706979000009596,None,right,12,"[20, 18, 19, 15, 17, 15, 16, 13, 15, 13, 14, 11, 15, 11, 12, 11, 12]",17,shiftedgaze_R_12.png,f,1,1,results32,001,2026-04-20_14h36.39.423,mogelijke versie adaptive staircase builder,,2026.1.3,60.051259755465466,2026-04-20 14h36.39.812482 +0200,
4.5,ecc10pos,left,38,0,38,j,1,3.808415999999852,None,0,0,0,0,38,0,38,0,1717.9270290999993,,,,,,,,,,,,,,,1717.916198699997,1717.9270290999993,1717.9270290999993,1717.9270290999993,1718.835258799998,1721.7521739999975,j,1,3.808415999999852,None,direct,11,"[20, 18, 19, 15, 17, 15, 16, 13, 15, 13, 14, 11, 15, 11, 12, 11, 12]",17,shifteddirectgaze.png,j,1,1,results32,001,2026-04-20_14h36.39.423,mogelijke versie adaptive staircase builder,,2026.1.3,60.051259755465466,2026-04-20 14h36.39.812482 +0200,
4.5,ecc10pos,left,39,0,39,f,0,5.50578189999942,None,0,0,0,0,39,0,39,0,1721.8455155999982,,,,,,,,,,,,,,,1721.8343000999994,1721.8455155999982,1721.8455155999982,1721.8455155999982,1722.7516187,1727.3518962999988,f,0,5.50578189999942,None,direct,10,"[20, 18, 19, 15, 17, 15, 16, 13, 15, 13, 14, 11, 15, 11, 12, 11, 12, 10]",18,shifteddirectgaze.png,f,0,1,results32,001,2026-04-20_14h36.39.423,mogelijke versie adaptive staircase builder,,2026.1.3,60.051259755465466,2026-04-20 14h36.39.812482 +0200,
4.5,ecc10pos,left,40,0,40,j,0,5.025992300001235,None,0,0,0,0,40,0,40,0,1727.4693135999987,,,,,,,,,,,,,,,1727.459379099997,1727.4693135999987,1727.4693135999987,1727.4693135999987,1728.3517040999977,1732.5019422999976,j,0,5.025992300001235,None,left,11,"[20, 18, 19, 15, 17, 15, 16, 13, 15, 13, 14, 11, 15, 11, 12, 11, 12, 10]",18,shiftedgaze_L_11.png,j,0,1,results32,001,2026-04-20_14h36.39.423,mogelijke versie adaptive staircase builder,,2026.1.3,60.051259755465466,2026-04-20 14h36.39.812482 +0200,
4.5,ecc10pos,left,41,0,41,j,0,3.4123084000020754,None,0,0,0,0,41,0,41,0,1732.6108902999986,,,,,,,,,,,,,,,1732.5995347999997,1732.6108902999986,1732.6108902999986,1732.6108902999986,1733.5015289000003,1736.0349754999988,j,0,3.4123084000020754,None,right,12,"[20, 18, 19, 15, 17, 15, 16, 13, 15, 13, 14, 11, 15, 11, 12, 11, 12, 10]",18,shiftedgaze_R_12.png,j,0,1,results32,001,2026-04-20_14h36.39.423,mogelijke versie adaptive staircase builder,,2026.1.3,60.051259755465466,2026-04-20 14h36.39.812482 +0200,
4.5,ecc10pos,left,42,0,42,f,1,3.0176189000012528,None,0,0,0,0,42,0,42,0,1736.125586799997,,,,,,,,,,,,,,,1736.1148099999991,1736.125586799997,1736.125586799997,1736.125586799997,1737.0346551000002,1739.1517351999973,f,1,3.0176189000012528,None,right,13,"[20, 18, 19, 15, 17, 15, 16, 13, 15, 13, 14, 11, 15, 11, 12, 11, 12, 10, 13]",19,shiftedgaze_R_13.png,f,1,1,results32,001,2026-04-20_14h36.39.423,mogelijke versie adaptive staircase builder,,2026.1.3,60.051259755465466,2026-04-20 14h36.39.812482 +0200,
4.5,ecc10pos,left,43,0,43,j,0,3.4809515999986615,None,0,0,0,0,43,0,43,0,1739.246222499998,,,,,,,,,,,,,,,1739.235332199998,1739.246222499998,1739.246222499998,1739.246222499998,1740.1512913999977,1742.735218599999,j,0,3.4809515999986615,None,right,12,"[20, 18, 19, 15, 17, 15, 16, 13, 15, 13, 14, 11, 15, 11, 12, 11, 12, 10, 13, 12]",20,shiftedgaze_R_12.png,j,0,1,results32,001,2026-04-20_14h36.39.423,mogelijke versie adaptive staircase builder,,2026.1.3,60.051259755465466,2026-04-20 14h36.39.812482 +0200,
4.5,ecc10pos,left,44,0,44,f,0,6.251188199999888,None,0,0,0,0,44,0,44,0,1742.8280591000002,,,,,,,,,,,,,,,1742.8163970999994,1742.8280591000002,1742.8280591000002,1742.8280591000002,1743.7349283999974,1749.0849904999995,f,0,6.251188199999888,None,direct,13,"[20, 18, 19, 15, 17, 15, 16, 13, 15, 13, 14, 11, 15, 11, 12, 11, 12, 10, 13, 12]",20,shifteddirectgaze.png,f,0,1,results32,001,2026-04-20_14h36.39.423,mogelijke versie adaptive staircase builder,,2026.1.3,60.051259755465466,2026-04-20 14h36.39.812482 +0200,
4.5,ecc10pos,left,45,0,45,j,1,3.7585671999986516,None,0,0,0,0,45,0,45,0,1749.1766604999975,,,,,,,,,,,,,,,1749.1663050999996,1749.1766604999975,1749.1766604999975,1749.1766604999975,1750.0848162999973,1752.9518415999992,j,1,3.7585671999986516,None,direct,14,"[20, 18, 19, 15, 17, 15, 16, 13, 15, 13, 14, 11, 15, 11, 12, 11, 12, 10, 13, 12, 14]",21,shifteddirectgaze.png,j,1,1,results32,001,2026-04-20_14h36.39.423,mogelijke versie adaptive staircase builder,,2026.1.3,60.051259755465466,2026-04-20 14h36.39.812482 +0200,
4.5,ecc10pos,left,46,0,46,j,0,3.177908199999365,None,0,0,0,0,46,0,46,0,1753.0452869999972,,,,,,,,,,,,,,,1753.0336454999997,1753.0452869999972,1753.0452869999972,1753.0452869999972,1753.9512646000003,1756.2357295000002,j,0,3.177908199999365,None,left,13,"[20, 18, 19, 15, 17, 15, 16, 13, 15, 13, 14, 11, 15, 11, 12, 11, 12, 10, 13, 12, 14, 13]",22,shiftedgaze_L_13.png,j,0,1,results32,001,2026-04-20_14h36.39.423,mogelijke versie adaptive staircase builder,,2026.1.3,60.051259755465466,2026-04-20 14h36.39.812482 +0200,
4.5,ecc10pos,left,47,0,47,f,0,5.010532100001001,None,0,0,0,0,47,0,47,0,1756.3408979999986,,,,,,,,,,,,,,,1756.3280275999969,1756.3408979999986,1756.3408979999986,1756.3408979999986,1757.2512098999978,1761.3683827999994,f,0,5.010532100001001,None,direct,14,"[20, 18, 19, 15, 17, 15, 16, 13, 15, 13, 14, 11, 15, 11, 12, 11, 12, 10, 13, 12, 14, 13]",22,shifteddirectgaze.png,f,0,1,results32,001,2026-04-20_14h36.39.423,mogelijke versie adaptive staircase builder,,2026.1.3,60.051259755465466,2026-04-20 14h36.39.812482 +0200,
4.5,ecc10pos,left,48,0,48,f,1,4.751097899999877,None,0,0,0,0,48,0,48,0,1761.4720667000001,,,,,,,,,,,,,,,1761.461854899997,1761.4720667000001,1761.4720667000001,1761.4720667000001,1762.3677707999996,1766.2349551999978,f,1,4.751097899999877,None,left,15,"[20, 18, 19, 15, 17, 15, 16, 13, 15, 13, 14, 11, 15, 11, 12, 11, 12, 10, 13, 12, 14, 13, 15]",23,shiftedgaze_L_15.png,f,1,1,results32,001,2026-04-20_14h36.39.423,mogelijke versie adaptive staircase builder,,2026.1.3,60.051259755465466,2026-04-20 14h36.39.812482 +0200,
4.5,ecc10pos,left,49,0,49,j,0,2.8757416999978886,None,0,0,0,0,49,0,49,0,1766.339539499997,,,,,,,,,,,,,,,1766.3287700999972,1766.339539499997,1766.339539499997,1766.339539499997,1767.2343968999994,1769.2182887999988,j,0,2.8757416999978886,None,left,14,"[20, 18, 19, 15, 17, 15, 16, 13, 15, 13, 14, 11, 15, 11, 12, 11, 12, 10, 13, 12, 14, 13, 15, 14]",24,shiftedgaze_L_14.png,j,0,1,results32,001,2026-04-20_14h36.39.423,mogelijke versie adaptive staircase builder,,2026.1.3,60.051259755465466,2026-04-20 14h36.39.812482 +0200,
4.5,ecc10pos,left,50,0,50,j,1,4.833157900000515,None,0,0,0,0,50,0,50,0,1769.3103278999988,,,,,,,,,,,,,,,1769.2993222000005,1769.3103278999988,1769.3103278999988,1769.3103278999988,1770.2177558999974,1774.1514395999984,j,1,4.833157900000515,None,direct,15,"[20, 18, 19, 15, 17, 15, 16, 13, 15, 13, 14, 11, 15, 11, 12, 11, 12, 10, 13, 12, 14, 13, 15, 14, 15]",25,shifteddirectgaze.png,j,1,1,results32,001,2026-04-20_14h36.39.423,mogelijke versie adaptive staircase builder,,2026.1.3,60.051259755465466,2026-04-20 14h36.39.812482 +0200,
4.5,ecc10pos,left,51,0,51,f,1,2.8723508000002766,None,0,0,0,0,51,0,51,0,1774.246901999999,,,,,,,,,,,,,,,1774.2340358000001,1774.246901999999,1774.246901999999,1774.246901999999,1775.151113699998,1777.1347862999974,f,1,2.8723508000002766,None,right,14,"[20, 18, 19, 15, 17, 15, 16, 13, 15, 13, 14, 11, 15, 11, 12, 11, 12, 10, 13, 12, 14, 13, 15, 14, 15]",25,shiftedgaze_R_14.png,f,1,1,results32,001,2026-04-20_14h36.39.423,mogelijke versie adaptive staircase builder,,2026.1.3,60.051259755465466,2026-04-20 14h36.39.812482 +0200,
4.5,ecc10pos,left,52,0,52,j,0,5.275185299997247,None,0,0,0,0,52,0,52,0,1777.2282151,,,,,,,,,,,,,,,1777.217273299997,1777.2282151,1777.2282151,1777.2282151,1778.1343495999972,1782.5179190999988,j,0,5.275185299997247,None,right,13,"[20, 18, 19, 15, 17, 15, 16, 13, 15, 13, 14, 11, 15, 11, 12, 11, 12, 10, 13, 12, 14, 13, 15, 14, 15, 13]",26,shiftedgaze_R_13.png,j,0,1,results32,001,2026-04-20_14h36.39.423,mogelijke versie adaptive staircase builder,,2026.1.3,60.051259755465466,2026-04-20 14h36.39.812482 +0200,
4.5,ecc10pos,left,53,0,53,f,1,4.874281600001268,None,0,0,0,0,53,0,53,0,1782.6130703999988,,,,,,,,,,,,,,,1782.6020473999997,1782.6130703999988,1782.6130703999988,1782.6130703999988,1783.5174468000005,1787.5012604999974,f,1,4.874281600001268,None,left,14,"[20, 18, 19, 15, 17, 15, 16, 13, 15, 13, 14, 11, 15, 11, 12, 11, 12, 10, 13, 12, 14, 13, 15, 14, 15, 13, 14]",27,shiftedgaze_L_14.png,f,1,1,results32,001,2026-04-20_14h36.39.423,mogelijke versie adaptive staircase builder,,2026.1.3,60.051259755465466,2026-04-20 14h36.39.812482 +0200,
4.5,ecc10pos,left,54,0,54,j,0,4.760544199998549,None,0,0,0,0,54,0,54,0,1787.5986959999973,,,,,,,,,,,,,,,1787.5881131999995,1787.5986959999973,1787.5986959999973,1787.5986959999973,1788.5007437999993,1792.3678775999979,j,0,4.760544199998549,None,left,13,"[20, 18, 19, 15, 17, 15, 16, 13, 15, 13, 14, 11, 15, 11, 12, 11, 12, 10, 13, 12, 14, 13, 15, 14, 15, 13, 14, 13]",28,shiftedgaze_L_13.png,j,0,1,results32,001,2026-04-20_14h36.39.423,mogelijke versie adaptive staircase builder,,2026.1.3,60.051259755465466,2026-04-20 14h36.39.812482 +0200,
4.5,ecc10pos,left,55,0,55,f,1,5.980132500000764,None,0,0,0,0,55,0,55,0,1792.4592664999982,,,,,,,,,,,,,,,1792.4486125999974,1792.4592664999982,1792.4592664999982,1792.4592664999982,1793.3677320999996,1798.451192299999,f,1,5.980132500000764,None,left,14,"[20, 18, 19, 15, 17, 15, 16, 13, 15, 13, 14, 11, 15, 11, 12, 11, 12, 10, 13, 12, 14, 13, 15, 14, 15, 13, 14, 13, 14]",29,shiftedgaze_L_14.png,f,1,1,results32,001,2026-04-20_14h36.39.423,mogelijke versie adaptive staircase builder,,2026.1.3,60.051259755465466,2026-04-20 14h36.39.812482 +0200,
4.5,ecc10pos,left,56,0,56,j,0,7.11108239999885,None,0,0,0,0,56,0,56,0,1798.5442046999997,,,,,,,,,,,,,,,1798.5327338999996,1798.5442046999997,1798.5442046999997,1798.5442046999997,1799.4507210999982,1805.6676797999971,j,0,7.11108239999885,None,left,13,"[20, 18, 19, 15, 17, 15, 16, 13, 15, 13, 14, 11, 15, 11, 12, 11, 12, 10, 13, 12, 14, 13, 15, 14, 15, 13, 14, 13, 14, 13]",30,shiftedgaze_L_13.png,j,0,1,results32,001,2026-04-20_14h36.39.423,mogelijke versie adaptive staircase builder,,2026.1.3,60.051259755465466,2026-04-20 14h36.39.812482 +0200,
4.5,ecc10pos,left,57,0,57,f,1,3.4949338999977044,None,0,0,0,0,57,0,57,0,1805.7603791999973,,,,,,,,,,,,,,,1805.7497134999976,1805.7603791999973,1805.7603791999973,1805.7603791999973,1806.6672279999984,1809.2676197,f,1,3.4949338999977044,None,left,14,"[20, 18, 19, 15, 17, 15, 16, 13, 15, 13, 14, 11, 15, 11, 12, 11, 12, 10, 13, 12, 14, 13, 15, 14, 15, 13, 14, 13, 14, 13, 14]",31,shiftedgaze_L_14.png,f,1,1,results32,001,2026-04-20_14h36.39.423,mogelijke versie adaptive staircase builder,,2026.1.3,60.051259755465466,2026-04-20 14h36.39.812482 +0200,
4.5,ecc10pos,left,58,0,58,f,1,2.4239750999986427,None,0,0,0,0,58,0,58,0,1809.3594548999972,,,,,,,,,,,,,,,1809.3485551999984,1809.3594548999972,1809.3594548999972,1809.3594548999972,1810.267221299997,1811.784258599997,f,1,2.4239750999986427,None,right,13,"[20, 18, 19, 15, 17, 15, 16, 13, 15, 13, 14, 11, 15, 11, 12, 11, 12, 10, 13, 12, 14, 13, 15, 14, 15, 13, 14, 13, 14, 13, 14]",31,shiftedgaze_R_13.png,f,1,1,results32,001,2026-04-20_14h36.39.423,mogelijke versie adaptive staircase builder,,2026.1.3,60.051259755465466,2026-04-20 14h36.39.812482 +0200,
4.5,ecc10pos,left,59,0,59,j,0,3.776935899997625,None,0,0,0,0,59,0,59,0,1811.8864297,,,,,,,,,,,,,,,1811.8749399999979,1811.8864297,1811.8864297,1811.8864297,1812.7838295000001,1815.6675111000004,j,0,3.776935899997625,None,left,12,"[20, 18, 19, 15, 17, 15, 16, 13, 15, 13, 14, 11, 15, 11, 12, 11, 12, 10, 13, 12, 14, 13, 15, 14, 15, 13, 14, 13, 14, 13, 14, 12]",32,shiftedgaze_L_12.png,j,0,1,results32,001,2026-04-20_14h36.39.423,mogelijke versie adaptive staircase builder,,2026.1.3,60.051259755465466,2026-04-20 14h36.39.812482 +0200,
4.5,ecc10pos,left,0,0,0,,,,,0,0,0,0,,,,,,,,,,,,,,,,,,,,,,,,,,,,,,,,,,,,,,results32,001,2026-04-20_14h36.39.423,mogelijke versie adaptive staircase builder,,2026.1.3,60.051259755465466,2026-04-20 14h36.39.812482 +0200,
12.5,ecc0,mid,0,0,0,f,1,5.7254289999982575,None,0,1,1,1,0,0,0,0,1815.7619381999975,,,,,,,,,,,,,1815.6699889999982,1815.670023999999,1815.751602999997,1815.7619381999975,1816.6838358999994,1815.7619381999975,1815.7619381999975,1821.5008581000002,f,1,5.7254289999982575,None,right,20,[],0,gaze_R_20.png,f,1,2,results32,001,2026-04-20_14h36.39.423,mogelijke versie adaptive staircase builder,,2026.1.3,60.051259755465466,2026-04-20 14h36.39.812482 +0200,
12.5,ecc0,mid,1,0,1,f,0,3.4355308999984118,None,0,1,1,1,1,0,1,0,1821.5957184,,,,,,,,,,,,,,,1821.5849772999973,1821.5957184,1822.500586799997,1821.5957184,1821.5957184,1825.0339786000004,f,0,3.4355308999984118,None,direct,19,[19],1,direct_gaze.png,f,0,2,results32,001,2026-04-20_14h36.39.423,mogelijke versie adaptive staircase builder,,2026.1.3,60.051259755465466,2026-04-20 14h36.39.812482 +0200,
12.5,ecc0,mid,2,0,2,j,0,3.528778300002159,None,0,1,1,1,2,0,2,0,1825.1264629999969,,,,,,,,,,,,,,,1825.1156386999974,1825.1264629999969,1826.0337473,1825.1264629999969,1825.1264629999969,1828.667362799999,j,0,3.528778300002159,None,right,20,[19],1,gaze_R_20.png,j,0,2,results32,001,2026-04-20_14h36.39.423,mogelijke versie adaptive staircase builder,,2026.1.3,60.051259755465466,2026-04-20 14h36.39.812482 +0200,
12.5,ecc0,mid,3,0,3,j,0,4.055653799998254,None,0,1,1,1,3,0,3,0,1828.7595900999986,,,,,,,,,,,,,,,1828.7488577999975,1828.7595900999986,1829.6669884999974,1828.7595900999986,1828.7595900999986,1832.8172123000004,j,0,4.055653799998254,None,right,20,[19],1,gaze_R_20.png,j,0,2,results32,001,2026-04-20_14h36.39.423,mogelijke versie adaptive staircase builder,,2026.1.3,60.051259755465466,2026-04-20 14h36.39.812482 +0200,
12.5,ecc0,mid,4,0,4,j,1,2.9295624000005773,None,0,1,1,1,4,0,4,0,1832.9098169999997,,,,,,,,,,,,,,,1832.898438799999,1832.9098169999997,1833.8170406999998,1832.9098169999997,1832.9098169999997,1835.8506433999974,j,1,2.9295624000005773,None,direct,20,"[19, 20]",2,direct_gaze.png,j,1,2,results32,001,2026-04-20_14h36.39.423,mogelijke versie adaptive staircase builder,,2026.1.3,60.051259755465466,2026-04-20 14h36.39.812482 +0200,
12.5,ecc0,mid,5,0,5,f,1,4.952795700002753,None,0,1,1,1,5,0,5,0,1835.9424330000002,,,,,,,,,,,,,,,1835.9318206999997,1835.9424330000002,1836.8502257999971,1835.9424330000002,1835.9424330000002,1840.9004306999996,f,1,4.952795700002753,None,right,19,"[19, 20]",2,gaze_R_19.png,f,1,2,results32,001,2026-04-20_14h36.39.423,mogelijke versie adaptive staircase builder,,2026.1.3,60.051259755465466,2026-04-20 14h36.39.812482 +0200,
12.5,ecc0,mid,6,0,6,j,0,5.885475299997779,None,0,1,1,1,6,0,6,0,1840.9938846999976,,,,,,,,,,,,,,,1840.982915499997,1840.9938846999976,1841.9001086999997,1840.9938846999976,1840.9938846999976,1846.8837131,j,0,5.885475299997779,None,left,18,"[19, 20, 18]",3,gaze_L_18.png,j,0,2,results32,001,2026-04-20_14h36.39.423,mogelijke versie adaptive staircase builder,,2026.1.3,60.051259755465466,2026-04-20 14h36.39.812482 +0200,
12.5,ecc0,mid,7,0,7,f,0,28.158440299997892,None,0,1,1,1,7,0,7,0,1846.9769409999972,,,,,,,,,,,,,,,1846.9652274,1846.9769409999972,1847.883510599997,1846.9769409999972,1846.9769409999972,1875.1503639999974,f,0,28.158440299997892,None,direct,19,"[19, 20, 18]",3,direct_gaze.png,f,0,2,results32,001,2026-04-20_14h36.39.423,mogelijke versie adaptive staircase builder,,2026.1.3,60.051259755465466,2026-04-20 14h36.39.812482 +0200,
12.5,ecc0,mid,8,0,8,f,0,2.8024272000002384,None,0,1,1,1,8,0,8,0,1875.244816399998,,,,,,,,,,,,,,,1875.2337513999992,1875.244816399998,1876.1500613999997,1875.244816399998,1875.244816399998,1878.0502940999977,f,0,2.8024272000002384,None,direct,20,"[19, 20, 18]",3,direct_gaze.png,f,0,2,results32,001,2026-04-20_14h36.39.423,mogelijke versie adaptive staircase builder,,2026.1.3,60.051259755465466,2026-04-20 14h36.39.812482 +0200,
12.5,ecc0,mid,9,0,9,f,1,3.8407685000020138,None,0,1,1,1,9,0,9,0,1878.1505718999979,,,,,,,,,,,,,,,1878.1401549999973,1878.1505718999979,1879.0497751999974,1878.1505718999979,1878.1505718999979,1882.0001097999993,f,1,3.8407685000020138,None,right,20,"[19, 20, 18, 20]",4,gaze_R_20.png,f,1,2,results32,001,2026-04-20_14h36.39.423,mogelijke versie adaptive staircase builder,,2026.1.3,60.051259755465466,2026-04-20 14h36.39.812482 +0200,
12.5,ecc0,mid,10,0,10,j,1,2.7612125999985437,None,0,1,1,1,10,0,10,0,1882.1020878999989,,,,,,,,,,,,,,,1882.09145,1882.1020878999989,1882.9998041,1882.1020878999989,1882.1020878999989,1884.8668287999972,j,1,2.7612125999985437,None,direct,19,"[19, 20, 18, 20]",4,direct_gaze.png,j,1,2,results32,001,2026-04-20_14h36.39.423,mogelijke versie adaptive staircase builder,,2026.1.3,60.051259755465466,2026-04-20 14h36.39.812482 +0200,
12.5,ecc0,mid,11,0,11,f,1,6.47011349999957,None,0,1,1,1,11,0,11,0,1884.9699849999997,,,,,,,,,,,,,,,1884.959679399999,1884.9699849999997,1885.866367999999,1884.9699849999997,1884.9699849999997,1891.4498879999992,f,1,6.47011349999957,None,right,18,"[19, 20, 18, 20]",4,gaze_R_18.png,f,1,2,results32,001,2026-04-20_14h36.39.423,mogelijke versie adaptive staircase builder,,2026.1.3,60.051259755465466,2026-04-20 14h36.39.812482 +0200,
12.5,ecc0,mid,12,0,12,f,0,2.9935654000000795,None,0,1,1,1,12,0,12,0,1891.5417366000001,,,,,,,,,,,,,,,1891.5303772999978,1891.5417366000001,1892.4496172,1891.5417366000001,1891.5417366000001,1894.549842299999,f,0,2.9935654000000795,None,direct,17,"[19, 20, 18, 20, 17]",5,direct_gaze.png,f,0,2,results32,001,2026-04-20_14h36.39.423,mogelijke versie adaptive staircase builder,,2026.1.3,60.051259755465466,2026-04-20 14h36.39.812482 +0200,
12.5,ecc0,mid,13,0,13,j,0,2.3275698000034026,None,0,1,1,1,13,0,13,0,1894.6478489,,,,,,,,,,,,,,,1894.6373461999974,1894.6478489,1895.5494609999987,1894.6478489,1894.6478489,1896.983257699998,j,0,2.3275698000034026,None,left,18,"[19, 20, 18, 20, 17]",5,gaze_L_18.png,j,0,2,results32,001,2026-04-20_14h36.39.423,mogelijke versie adaptive staircase builder,,2026.1.3,60.051259755465466,2026-04-20 14h36.39.812482 +0200,
12.5,ecc0,mid,14,0,14,j,0,4.43534709999949,None,0,1,1,1,14,0,14,0,1897.0839511999984,,,,,,,,,,,,,,,1897.0734095999978,1897.0839511999984,1897.9829267999994,1897.0839511999984,1897.0839511999984,1901.5331683000004,j,0,4.43534709999949,None,left,19,"[19, 20, 18, 20, 17]",5,gaze_L_19.png,j,0,2,results32,001,2026-04-20_14h36.39.423,mogelijke versie adaptive staircase builder,,2026.1.3,60.051259755465466,2026-04-20 14h36.39.812482 +0200,
12.5,ecc0,mid,15,0,15,f,0,4.328496800000721,None,0,1,1,1,15,0,15,0,1901.6228024999982,,,,,,,,,,,,,,,1901.6123165999998,1901.6228024999982,1902.5329058999996,1901.6228024999982,1901.6228024999982,1905.9665056999984,f,0,4.328496800000721,None,direct,20,"[19, 20, 18, 20, 17]",5,direct_gaze.png,f,0,2,results32,001,2026-04-20_14h36.39.423,mogelijke versie adaptive staircase builder,,2026.1.3,60.051259755465466,2026-04-20 14h36.39.812482 +0200,
12.5,ecc0,mid,16,0,16,j,0,6.14090109999961,None,0,1,1,1,16,0,16,0,1906.0585771999977,,,,,,,,,,,,,,,1906.0481158999974,1906.0585771999977,1906.9659772999985,1906.0585771999977,1906.0585771999977,1912.1998466000005,j,0,6.14090109999961,None,right,20,"[19, 20, 18, 20, 17]",5,gaze_R_20.png,j,0,2,results32,001,2026-04-20_14h36.39.423,mogelijke versie adaptive staircase builder,,2026.1.3,60.051259755465466,2026-04-20 14h36.39.812482 +0200,
12.5,ecc0,mid,17,0,17,j,0,3.002588100000139,None,0,1,1,1,17,0,17,0,1912.3006897999985,,,,,,,,,,,,,,,1912.2895852999973,1912.3006897999985,1913.1994367999978,1912.3006897999985,1912.3006897999985,1915.3162398999993,j,0,3.002588100000139,None,left,20,"[19, 20, 18, 20, 17]",5,gaze_L_20.png,j,0,2,results32,001,2026-04-20_14h36.39.423,mogelijke versie adaptive staircase builder,,2026.1.3,60.051259755465466,2026-04-20 14h36.39.812482 +0200,
12.5,ecc0,mid,18,0,18,f,1,4.79109790000075,None,0,1,1,1,18,0,18,0,1915.4087508999983,,,,,,,,,,,,,,,1915.397925199999,1915.4087508999983,1916.3160750999996,1915.4087508999983,1915.4087508999983,1920.2162798999998,f,1,4.79109790000075,None,right,20,"[19, 20, 18, 20, 17, 20]",6,gaze_R_20.png,f,1,2,results32,001,2026-04-20_14h36.39.423,mogelijke versie adaptive staircase builder,,2026.1.3,60.051259755465466,2026-04-20 14h36.39.812482 +0200,
12.5,ecc0,mid,19,0,19,j,1,5.10850180000125,None,0,1,1,1,19,0,19,0,1920.3068141999975,,,,,,,,,,,,,,,1920.2962814999992,1920.3068141999975,1921.2160140999986,1920.3068141999975,1920.3068141999975,1925.4162775000004,j,1,5.10850180000125,None,direct,19,"[19, 20, 18, 20, 17, 20]",6,direct_gaze.png,j,1,2,results32,001,2026-04-20_14h36.39.423,mogelijke versie adaptive staircase builder,,2026.1.3,60.051259755465466,2026-04-20 14h36.39.812482 +0200,
12.5,ecc0,mid,20,0,20,j,0,3.388629299999593,None,0,1,1,1,20,0,20,0,1925.5147311,,,,,,,,,,,,,,,1925.5034732999993,1925.5147311,1926.4157562,1925.5147311,1925.5147311,1928.9161406999992,j,0,3.388629299999593,None,right,18,"[19, 20, 18, 20, 17, 20, 18]",7,gaze_R_18.png,j,0,2,results32,001,2026-04-20_14h36.39.423,mogelijke versie adaptive staircase builder,,2026.1.3,60.051259755465466,2026-04-20 14h36.39.812482 +0200,
12.5,ecc0,mid,21,0,21,f,0,3.607735900000989,None,0,1,1,1,21,0,21,0,1929.0076491,,,,,,,,,,,,,,,1928.997080199999,1929.0076491,1929.9159290999996,1929.0076491,1929.0076491,1932.6161565000002,f,0,3.607735900000989,None,direct,19,"[19, 20, 18, 20, 17, 20, 18]",7,direct_gaze.png,f,0,2,results32,001,2026-04-20_14h36.39.423,mogelijke versie adaptive staircase builder,,2026.1.3,60.051259755465466,2026-04-20 14h36.39.812482 +0200,
12.5,ecc0,mid,22,0,22,j,1,3.7138525000009395,None,0,1,1,1,22,0,22,0,1932.7094999999972,,,,,,,,,,,,,,,1932.6982406999996,1932.7094999999972,1933.6158082000002,1932.7094999999972,1932.7094999999972,1936.4328609999975,j,1,3.7138525000009395,None,direct,20,"[19, 20, 18, 20, 17, 20, 18, 20]",8,direct_gaze.png,j,1,2,results32,001,2026-04-20_14h36.39.423,mogelijke versie adaptive staircase builder,,2026.1.3,60.051259755465466,2026-04-20 14h36.39.812482 +0200,
12.5,ecc0,mid,23,0,23,f,0,4.473282099999778,None,0,1,1,1,23,0,23,0,1936.5262470999987,,,,,,,,,,,,,,,1936.5143652999977,1936.5262470999987,1937.4325540999998,1936.5262470999987,1936.5262470999987,1941.016109799999,f,0,4.473282099999778,None,direct,19,"[19, 20, 18, 20, 17, 20, 18, 20, 19]",9,direct_gaze.png,f,0,2,results32,001,2026-04-20_14h36.39.423,mogelijke versie adaptive staircase builder,,2026.1.3,60.051259755465466,2026-04-20 14h36.39.812482 +0200,
12.5,ecc0,mid,24,0,24,f,1,3.0396119999968505,None,0,1,1,1,24,0,24,0,1941.111721899997,,,,,,,,,,,,,,,1941.098363699999,1941.111721899997,1942.0158816999974,1941.111721899997,1941.111721899997,1944.1662504999986,f,1,3.0396119999968505,None,right,20,"[19, 20, 18, 20, 17, 20, 18, 20, 19, 20]",10,gaze_R_20.png,f,1,2,results32,001,2026-04-20_14h36.39.423,mogelijke versie adaptive staircase builder,,2026.1.3,60.051259755465466,2026-04-20 14h36.39.812482 +0200,
12.5,ecc0,mid,25,0,25,j,1,2.453106500001013,None,0,1,1,1,25,0,25,0,1944.2582172999973,,,,,,,,,,,,,,,1944.2471778,1944.2582172999973,1945.1656425,1944.2582172999973,1944.2582172999973,1946.7159377999997,j,1,2.453106500001013,None,direct,19,"[19, 20, 18, 20, 17, 20, 18, 20, 19, 20]",10,direct_gaze.png,j,1,2,results32,001,2026-04-20_14h36.39.423,mogelijke versie adaptive staircase builder,,2026.1.3,60.051259755465466,2026-04-20 14h36.39.812482 +0200,
12.5,ecc0,mid,26,0,26,j,0,6.899659300001076,None,0,1,1,1,26,0,26,0,1946.8116502999983,,,,,,,,,,,,,,,1946.801056799999,1946.8116502999983,1947.7156084999988,1946.8116502999983,1946.8116502999983,1953.7158977,j,0,6.899659300001076,None,left,18,"[19, 20, 18, 20, 17, 20, 18, 20, 19, 20, 18]",11,gaze_L_18.png,j,0,2,results32,001,2026-04-20_14h36.39.423,mogelijke versie adaptive staircase builder,,2026.1.3,60.051259755465466,2026-04-20 14h36.39.812482 +0200,
12.5,ecc0,mid,27,0,27,f,0,4.428732399999717,None,0,1,1,1,27,0,27,0,1953.810625799997,,,,,,,,,,,,,,,1953.7996630999987,1953.810625799997,1954.715375599997,1953.810625799997,1953.810625799997,1958.2491164999992,f,0,4.428732399999717,None,direct,19,"[19, 20, 18, 20, 17, 20, 18, 20, 19, 20, 18]",11,direct_gaze.png,f,0,2,results32,001,2026-04-20_14h36.39.423,mogelijke versie adaptive staircase builder,,2026.1.3,60.051259755465466,2026-04-20 14h36.39.812482 +0200,
12.5,ecc0,mid,28,0,28,j,0,3.0487467000020843,None,0,1,1,1,28,0,28,0,1958.3425776999975,,,,,,,,,,,,,,,1958.3311673999997,1958.3425776999975,1959.2490108999991,1958.3425776999975,1958.3425776999975,1961.3990715,j,0,3.0487467000020843,None,left,20,"[19, 20, 18, 20, 17, 20, 18, 20, 19, 20, 18]",11,gaze_L_20.png,j,0,2,results32,001,2026-04-20_14h36.39.423,mogelijke versie adaptive staircase builder,,2026.1.3,60.051259755465466,2026-04-20 14h36.39.812482 +0200,
12.5,ecc0,mid,29,0,29,j,0,3.837205799998628,None,0,1,1,1,29,0,29,0,1961.4902408999988,,,,,,,,,,,,,,,1961.4798028999976,1961.4902408999988,1962.3988506999995,1961.4902408999988,1961.4902408999988,1965.3325828999987,j,0,3.837205799998628,None,left,20,"[19, 20, 18, 20, 17, 20, 18, 20, 19, 20, 18]",11,gaze_L_20.png,j,0,2,results32,001,2026-04-20_14h36.39.423,mogelijke versie adaptive staircase builder,,2026.1.3,60.051259755465466,2026-04-20 14h36.39.812482 +0200,
12.5,ecc0,mid,30,0,30,f,1,3.8460805999966396,None,0,1,1,1,30,0,30,0,1965.4253018999989,,,,,,,,,,,,,,,1965.4142415999995,1965.4253018999989,1966.3321815999989,1965.4253018999989,1965.4253018999989,1969.2822770999992,f,1,3.8460805999966396,None,right,20,"[19, 20, 18, 20, 17, 20, 18, 20, 19, 20, 18, 20]",12,gaze_R_20.png,f,1,2,results32,001,2026-04-20_14h36.39.423,mogelijke versie adaptive staircase builder,,2026.1.3,60.051259755465466,2026-04-20 14h36.39.812482 +0200,
12.5,ecc0,mid,31,0,31,j,0,4.275453900001594,None,0,1,1,1,31,0,31,0,1969.372096199997,,,,,,,,,,,,,,,1969.3603796999996,1969.372096199997,1970.2821043999975,1969.372096199997,1969.372096199997,1973.6489294999992,j,0,4.275453900001594,None,left,19,"[19, 20, 18, 20, 17, 20, 18, 20, 19, 20, 18, 20, 19]",13,gaze_L_19.png,j,0,2,results32,001,2026-04-20_14h36.39.423,mogelijke versie adaptive staircase builder,,2026.1.3,60.051259755465466,2026-04-20 14h36.39.812482 +0200,
12.5,ecc0,mid,32,0,32,f,1,3.003159500000038,None,0,1,1,1,32,0,32,0,1973.740230299998,,,,,,,,,,,,,,,1973.7297977999988,1973.740230299998,1974.6488675999972,1973.740230299998,1973.740230299998,1976.7490564,f,1,3.003159500000038,None,left,20,"[19, 20, 18, 20, 17, 20, 18, 20, 19, 20, 18, 20, 19, 20]",14,gaze_L_20.png,f,1,2,results32,001,2026-04-20_14h36.39.423,mogelijke versie adaptive staircase builder,,2026.1.3,60.051259755465466,2026-04-20 14h36.39.812482 +0200,
12.5,ecc0,mid,33,0,33,f,1,2.2607648000011977,None,0,1,1,1,33,0,33,0,1976.850580299997,,,,,,,,,,,,,,,1976.8395144999995,1976.850580299997,1977.7487443999999,1976.850580299997,1976.850580299997,1979.115642599998,f,1,2.2607648000011977,None,right,19,"[19, 20, 18, 20, 17, 20, 18, 20, 19, 20, 18, 20, 19, 20]",14,gaze_R_19.png,f,1,2,results32,001,2026-04-20_14h36.39.423,mogelijke versie adaptive staircase builder,,2026.1.3,60.051259755465466,2026-04-20 14h36.39.812482 +0200,
12.5,ecc0,mid,34,0,34,j,0,3.8676629000001412,None,0,1,1,1,34,0,34,0,1979.204389999999,,,,,,,,,,,,,,,1979.1931829999994,1979.204389999999,1980.1154425999994,1979.204389999999,1979.204389999999,1983.0820597999991,j,0,3.8676629000001412,None,right,18,"[19, 20, 18, 20, 17, 20, 18, 20, 19, 20, 18, 20, 19, 20, 18]",15,gaze_R_18.png,j,0,2,results32,001,2026-04-20_14h36.39.423,mogelijke versie adaptive staircase builder,,2026.1.3,60.051259755465466,2026-04-20 14h36.39.812482 +0200,
12.5,ecc0,mid,35,0,35,f,1,2.99478199999794,None,0,1,1,1,35,0,35,0,1983.172621499998,,,,,,,,,,,,,,,1983.1620194999996,1983.172621499998,1984.0819486999972,1983.172621499998,1983.172621499998,1986.1822481999989,f,1,2.99478199999794,None,left,19,"[19, 20, 18, 20, 17, 20, 18, 20, 19, 20, 18, 20, 19, 20, 18, 19]",16,gaze_L_19.png,f,1,2,results32,001,2026-04-20_14h36.39.423,mogelijke versie adaptive staircase builder,,2026.1.3,60.051259755465466,2026-04-20 14h36.39.812482 +0200,
12.5,ecc0,mid,36,0,36,j,0,2.490801100000681,None,0,1,1,1,36,0,36,0,1986.276656799997,,,,,,,,,,,,,,,1986.2655734999971,1986.276656799997,1987.1819316,1986.276656799997,1986.276656799997,1988.7824731,j,0,2.490801100000681,None,left,18,"[19, 20, 18, 20, 17, 20, 18, 20, 19, 20, 18, 20, 19, 20, 18, 19, 18]",17,gaze_L_18.png,j,0,2,results32,001,2026-04-20_14h36.39.423,mogelijke versie adaptive staircase builder,,2026.1.3,60.051259755465466,2026-04-20 14h36.39.812482 +0200,
12.5,ecc0,mid,37,0,37,f,1,4.2305721000011545,None,0,1,1,1,37,0,37,0,1988.872765,,,,,,,,,,,,,,,1988.8625079999983,1988.872765,1989.7820857999977,1988.872765,1988.872765,1993.115300399997,f,1,4.2305721000011545,None,left,19,"[19, 20, 18, 20, 17, 20, 18, 20, 19, 20, 18, 20, 19, 20, 18, 19, 18, 19]",18,gaze_L_19.png,f,1,2,results32,001,2026-04-20_14h36.39.423,mogelijke versie adaptive staircase builder,,2026.1.3,60.051259755465466,2026-04-20 14h36.39.812482 +0200,
12.5,ecc0,mid,38,0,38,j,0,7.305120999997598,None,0,1,1,1,38,0,38,0,1993.2063420999984,,,,,,,,,,,,,,,1993.1959294999979,1993.2063420999984,1994.1153766999996,1993.2063420999984,1993.2063420999984,2000.515382499998,j,0,7.305120999997598,None,right,18,"[19, 20, 18, 20, 17, 20, 18, 20, 19, 20, 18, 20, 19, 20, 18, 19, 18, 19, 18]",19,gaze_R_18.png,j,0,2,results32,001,2026-04-20_14h36.39.423,mogelijke versie adaptive staircase builder,,2026.1.3,60.051259755465466,2026-04-20 14h36.39.812482 +0200,
12.5,ecc0,mid,39,0,39,f,1,2.454721599999175,None,0,1,1,1,39,0,39,0,2000.6087052000003,,,,,,,,,,,,,,,2000.5965198999984,2000.6087052000003,2001.5150837,2000.6087052000003,2000.6087052000003,2003.0652527999991,f,1,2.454721599999175,None,right,19,"[19, 20, 18, 20, 17, 20, 18, 20, 19, 20, 18, 20, 19, 20, 18, 19, 18, 19, 18, 19]",20,gaze_R_19.png,f,1,2,results32,001,2026-04-20_14h36.39.423,mogelijke versie adaptive staircase builder,,2026.1.3,60.051259755465466,2026-04-20 14h36.39.812482 +0200,
12.5,ecc0,mid,40,0,40,j,0,4.0605184999985795,None,0,1,1,1,40,0,40,0,2003.1549210999983,,,,,,,,,,,,,,,2003.1448490000002,2003.1549210999983,2004.0649486000002,2003.1549210999983,2003.1549210999983,2007.2319437999977,j,0,4.0605184999985795,None,left,18,"[19, 20, 18, 20, 17, 20, 18, 20, 19, 20, 18, 20, 19, 20, 18, 19, 18, 19, 18, 19, 18]",21,gaze_L_18.png,j,0,2,results32,001,2026-04-20_14h36.39.423,mogelijke versie adaptive staircase builder,,2026.1.3,60.051259755465466,2026-04-20 14h36.39.812482 +0200,
12.5,ecc0,mid,41,0,41,f,0,6.977648099997168,None,0,1,1,1,41,0,41,0,2007.3258334999991,,,,,,,,,,,,,,,2007.3153497999992,2007.3258334999991,2008.2315483999992,2007.3258334999991,2007.3258334999991,2014.315164399999,f,0,6.977648099997168,None,direct,19,"[19, 20, 18, 20, 17, 20, 18, 20, 19, 20, 18, 20, 19, 20, 18, 19, 18, 19, 18, 19, 18]",21,direct_gaze.png,f,0,2,results32,001,2026-04-20_14h36.39.423,mogelijke versie adaptive staircase builder,,2026.1.3,60.051259755465466,2026-04-20 14h36.39.812482 +0200,
12.5,ecc0,mid,42,0,42,j,0,3.12086249999993,None,0,1,1,1,42,0,42,0,2014.406665999999,,,,,,,,,,,,,,,2014.3956512999976,2014.406665999999,2015.314895899999,2014.406665999999,2014.406665999999,2017.5319960999987,j,0,3.12086249999993,None,left,20,"[19, 20, 18, 20, 17, 20, 18, 20, 19, 20, 18, 20, 19, 20, 18, 19, 18, 19, 18, 19, 18]",21,gaze_L_20.png,j,0,2,results32,001,2026-04-20_14h36.39.423,mogelijke versie adaptive staircase builder,,2026.1.3,60.051259755465466,2026-04-20 14h36.39.812482 +0200,
12.5,ecc0,mid,43,0,43,f,1,3.9293980000002193,None,0,1,1,1,43,0,43,0,2017.6220566999982,,,,,,,,,,,,,,,2017.611599099997,2017.6220566999982,2018.5317708999974,2017.6220566999982,2017.6220566999982,2021.5650981,f,1,3.9293980000002193,None,right,20,"[19, 20, 18, 20, 17, 20, 18, 20, 19, 20, 18, 20, 19, 20, 18, 19, 18, 19, 18, 19, 18, 20]",22,gaze_R_20.png,f,1,2,results32,001,2026-04-20_14h36.39.423,mogelijke versie adaptive staircase builder,,2026.1.3,60.051259755465466,2026-04-20 14h36.39.812482 +0200,
12.5,ecc0,mid,44,0,44,f,1,3.457156299999042,None,0,1,1,1,44,0,44,0,2021.6543103999975,,,,,,,,,,,,,,,2021.642430099997,2021.6543103999975,2022.564825399997,2021.6543103999975,2021.6543103999975,2025.115168999997,f,1,3.457156299999042,None,right,19,"[19, 20, 18, 20, 17, 20, 18, 20, 19, 20, 18, 20, 19, 20, 18, 19, 18, 19, 18, 19, 18, 20]",22,gaze_R_19.png,f,1,2,results32,001,2026-04-20_14h36.39.423,mogelijke versie adaptive staircase builder,,2026.1.3,60.051259755465466,2026-04-20 14h36.39.812482 +0200,
12.5,ecc0,mid,45,0,45,j,0,2.5613028000007034,None,0,1,1,1,45,0,45,0,2025.2061796999988,,,,,,,,,,,,,,,2025.1959274,2025.2061796999988,2026.114790599997,2025.2061796999988,2025.2061796999988,2027.781913499999,j,0,2.5613028000007034,None,left,18,"[19, 20, 18, 20, 17, 20, 18, 20, 19, 20, 18, 20, 19, 20, 18, 19, 18, 19, 18, 19, 18, 20, 18]",23,gaze_L_18.png,j,0,2,results32,001,2026-04-20_14h36.39.423,mogelijke versie adaptive staircase builder,,2026.1.3,60.051259755465466,2026-04-20 14h36.39.812482 +0200,
12.5,ecc0,mid,46,0,46,j,1,7.867402599997149,None,0,1,1,1,46,0,46,0,2027.8761046,,,,,,,,,,,,,,,2027.8639676999992,2027.8761046,2028.781586899997,2027.8761046,2027.8761046,2035.7482909999999,j,1,7.867402599997149,None,direct,19,"[19, 20, 18, 20, 17, 20, 18, 20, 19, 20, 18, 20, 19, 20, 18, 19, 18, 19, 18, 19, 18, 20, 18, 19]",24,direct_gaze.png,j,1,2,results32,001,2026-04-20_14h36.39.423,mogelijke versie adaptive staircase builder,,2026.1.3,60.051259755465466,2026-04-20 14h36.39.812482 +0200,
12.5,ecc0,mid,47,0,47,f,0,4.711404900001071,None,0,1,1,1,47,0,47,0,2035.8401878000004,,,,,,,,,,,,,,,2035.8280739000002,2035.8401878000004,2036.7480378999971,2035.8401878000004,2035.8401878000004,2040.564919499997,f,0,4.711404900001071,None,direct,18,"[19, 20, 18, 20, 17, 20, 18, 20, 19, 20, 18, 20, 19, 20, 18, 19, 18, 19, 18, 19, 18, 20, 18, 19, 18]",25,direct_gaze.png,f,0,2,results32,001,2026-04-20_14h36.39.423,mogelijke versie adaptive staircase builder,,2026.1.3,60.051259755465466,2026-04-20 14h36.39.812482 +0200,
12.5,ecc0,mid,48,0,48,f,0,2.848457200001576,None,0,1,1,1,48,0,48,0,2040.6550543999983,,,,,,,,,,,,,,,2040.644838199998,2040.6550543999983,2041.5646812999985,2040.6550543999983,2040.6550543999983,2043.5148799999988,f,0,2.848457200001576,None,direct,19,"[19, 20, 18, 20, 17, 20, 18, 20, 19, 20, 18, 20, 19, 20, 18, 19, 18, 19, 18, 19, 18, 20, 18, 19, 18]",25,direct_gaze.png,f,0,2,results32,001,2026-04-20_14h36.39.423,mogelijke versie adaptive staircase builder,,2026.1.3,60.051259755465466,2026-04-20 14h36.39.812482 +0200,
12.5,ecc0,mid,49,0,49,j,0,2.440122200001497,None,0,1,1,1,49,0,49,0,2043.6075433999977,,,,,,,,,,,,,,,2043.5964075999982,2043.6075433999977,2044.514422199998,2043.6075433999977,2043.6075433999977,2046.0481690999986,j,0,2.440122200001497,None,right,20,"[19, 20, 18, 20, 17, 20, 18, 20, 19, 20, 18, 20, 19, 20, 18, 19, 18, 19, 18, 19, 18, 20, 18, 19, 18]",25,gaze_R_20.png,j,0,2,results32,001,2026-04-20_14h36.39.423,mogelijke versie adaptive staircase builder,,2026.1.3,60.051259755465466,2026-04-20 14h36.39.812482 +0200,
12.5,ecc0,mid,50,0,50,j,0,3.5382310999993933,None,0,1,1,1,50,0,50,0,2046.1416544999993,,,,,,,,,,,,,,,2046.130576399999,2046.1416544999993,2047.0478724999994,2046.1416544999993,2046.1416544999993,2049.681547799999,j,0,3.5382310999993933,None,left,20,"[19, 20, 18, 20, 17, 20, 18, 20, 19, 20, 18, 20, 19, 20, 18, 19, 18, 19, 18, 19, 18, 20, 18, 19, 18]",25,gaze_L_20.png,j,0,2,results32,001,2026-04-20_14h36.39.423,mogelijke versie adaptive staircase builder,,2026.1.3,60.051259755465466,2026-04-20 14h36.39.812482 +0200,
12.5,ecc0,mid,51,0,51,f,1,3.743236499998602,None,0,1,1,1,51,0,51,0,2049.7761060999983,,,,,,,,,,,,,,,2049.7636521999993,2049.7761060999983,2050.681240599999,2049.7761060999983,2049.7761060999983,2053.5313970999996,f,1,3.743236499998602,None,left,20,"[19, 20, 18, 20, 17, 20, 18, 20, 19, 20, 18, 20, 19, 20, 18, 19, 18, 19, 18, 19, 18, 20, 18, 19, 18, 20]",26,gaze_L_20.png,f,1,2,results32,001,2026-04-20_14h36.39.423,mogelijke versie adaptive staircase builder,,2026.1.3,60.051259755465466,2026-04-20 14h36.39.812482 +0200,
12.5,ecc0,mid,52,0,52,j,0,4.087080999997852,None,0,1,1,1,52,0,52,0,2053.624305399997,,,,,,,,,,,,,,,2053.6130736999985,2053.624305399997,2054.5308308999993,2053.624305399997,2053.624305399997,2057.7146245999975,j,0,4.087080999997852,None,left,19,"[19, 20, 18, 20, 17, 20, 18, 20, 19, 20, 18, 20, 19, 20, 18, 19, 18, 19, 18, 19, 18, 20, 18, 19, 18, 20, 19]",27,gaze_L_19.png,j,0,2,results32,001,2026-04-20_14h36.39.423,mogelijke versie adaptive staircase builder,,2026.1.3,60.051259755465466,2026-04-20 14h36.39.812482 +0200,
12.5,ecc0,mid,53,0,53,j,1,4.5414572000008775,None,0,1,1,1,53,0,53,0,2057.8100317999997,,,,,,,,,,,,,,,2057.7999137999977,2057.8100317999997,2058.7143031999985,2057.8100317999997,2057.8100317999997,2062.364722299997,j,1,4.5414572000008775,None,direct,20,"[19, 20, 18, 20, 17, 20, 18, 20, 19, 20, 18, 20, 19, 20, 18, 19, 18, 19, 18, 19, 18, 20, 18, 19, 18, 20, 19, 20]",28,direct_gaze.png,j,1,2,results32,001,2026-04-20_14h36.39.423,mogelijke versie adaptive staircase builder,,2026.1.3,60.051259755465466,2026-04-20 14h36.39.812482 +0200,
12.5,ecc0,mid,54,0,54,f,0,4.32086750000235,None,0,1,1,1,54,0,54,0,2062.4546120999985,,,,,,,,,,,,,,,2062.4436640999993,2062.4546120999985,2063.3640634000003,2062.4546120999985,2062.4546120999985,2066.781637199998,f,0,4.32086750000235,None,direct,19,"[19, 20, 18, 20, 17, 20, 18, 20, 19, 20, 18, 20, 19, 20, 18, 19, 18, 19, 18, 19, 18, 20, 18, 19, 18, 20, 19, 20, 19]",29,direct_gaze.png,f,0,2,results32,001,2026-04-20_14h36.39.423,mogelijke versie adaptive staircase builder,,2026.1.3,60.051259755465466,2026-04-20 14h36.39.812482 +0200,
12.5,ecc0,mid,55,0,55,j,1,4.388153699997929,None,0,1,1,1,55,0,55,0,2066.8753522999978,,,,,,,,,,,,,,,2066.863425299998,2066.8753522999978,2067.7975106999984,2066.8753522999978,2066.8753522999978,2071.2644567999996,j,1,4.388153699997929,None,direct,20,"[19, 20, 18, 20, 17, 20, 18, 20, 19, 20, 18, 20, 19, 20, 18, 19, 18, 19, 18, 19, 18, 20, 18, 19, 18, 20, 19, 20, 19, 20]",30,direct_gaze.png,j,1,2,results32,001,2026-04-20_14h36.39.423,mogelijke versie adaptive staircase builder,,2026.1.3,60.051259755465466,2026-04-20 14h36.39.812482 +0200,
12.5,ecc0,mid,56,0,56,f,0,5.754971900001692,None,0,1,1,1,56,0,56,0,2071.356460699997,,,,,,,,,,,,,,,2071.3461183,2071.356460699997,2072.264272799999,2071.356460699997,2071.356460699997,2077.114593299997,f,0,5.754971900001692,None,direct,19,"[19, 20, 18, 20, 17, 20, 18, 20, 19, 20, 18, 20, 19, 20, 18, 19, 18, 19, 18, 19, 18, 20, 18, 19, 18, 20, 19, 20, 19, 20, 19]",31,direct_gaze.png,f,0,2,results32,001,2026-04-20_14h36.39.423,mogelijke versie adaptive staircase builder,,2026.1.3,60.051259755465466,2026-04-20 14h36.39.812482 +0200,
12.5,ecc0,mid,57,0,57,j,0,3.3453848999997717,None,0,1,1,1,57,0,57,0,2077.206098399998,,,,,,,,,,,,,,,2077.195179999999,2077.206098399998,2078.1142010999974,2077.206098399998,2077.206098399998,2080.5645528999994,j,0,3.3453848999997717,None,left,20,"[19, 20, 18, 20, 17, 20, 18, 20, 19, 20, 18, 20, 19, 20, 18, 19, 18, 19, 18, 19, 18, 20, 18, 19, 18, 20, 19, 20, 19, 20, 19]",31,gaze_L_20.png,j,0,2,results32,001,2026-04-20_14h36.39.423,mogelijke versie adaptive staircase builder,,2026.1.3,60.051259755465466,2026-04-20 14h36.39.812482 +0200,
12.5,ecc0,mid,58,0,58,f,0,3.5678397999981826,None,0,1,1,1,58,0,58,0,2080.655681199998,,,,,,,,,,,,,,,2080.6447358999976,2080.655681199998,2081.5642523999995,2080.655681199998,2080.655681199998,2084.231018899998,f,0,3.5678397999981826,None,direct,20,"[19, 20, 18, 20, 17, 20, 18, 20, 19, 20, 18, 20, 19, 20, 18, 19, 18, 19, 18, 19, 18, 20, 18, 19, 18, 20, 19, 20, 19, 20, 19]",31,direct_gaze.png,f,0,2,results32,001,2026-04-20_14h36.39.423,mogelijke versie adaptive staircase builder,,2026.1.3,60.051259755465466,2026-04-20 14h36.39.812482 +0200,
12.5,ecc0,mid,59,0,59,f,1,2.7228677999992215,None,0,1,1,1,59,0,59,0,2084.3246645,,,,,,,,,,,,,,,2084.3141047999998,2084.3246645,2085.230720299998,2084.3246645,2084.3246645,2087.0479186999983,f,1,2.7228677999992215,None,left,20,"[19, 20, 18, 20, 17, 20, 18, 20, 19, 20, 18, 20, 19, 20, 18, 19, 18, 19, 18, 19, 18, 20, 18, 19, 18, 20, 19, 20, 19, 20, 19, 20]",32,gaze_L_20.png,f,1,2,results32,001,2026-04-20_14h36.39.423,mogelijke versie adaptive staircase builder,,2026.1.3,60.051259755465466,2026-04-20 14h36.39.812482 +0200,
12.5,ecc0,mid,1,1,0,,,,,0,1,1,1,,,,,,,,,,,,,,,,,,,,,,,,,,,,,,,,,,,,,,results32,001,2026-04-20_14h36.39.423,mogelijke versie adaptive staircase builder,,2026.1.3,60.051259755465466,2026-04-20 14h36.39.812482 +0200,
20.5,ecc10neg,right,0,0,0,j,1,4.8191616000003705,None,0,2,2,2,0,0,0,0,2087.1723408,,,,,,,,,,,,,2087.0702144999996,2087.0702692999985,2087.1613144000003,2087.1723408,2087.1723408,2088.0807633000004,2087.1723408,2091.997587099999,j,1,4.8191616000003705,None,direct,20,[],0,shifteddirectgaze.png,j,1,3,results32,001,2026-04-20_14h36.39.423,mogelijke versie adaptive staircase builder,,2026.1.3,60.051259755465466,2026-04-20 14h36.39.812482 +0200,
20.5,ecc10neg,right,1,0,1,f,1,3.3030048000000534,None,0,2,2,2,1,0,1,0,2092.1204259999977,,,,,,,,,,,,,,,2092.1084937999985,2092.1204259999977,2092.1204259999977,2092.9971544,2092.1204259999977,2095.4310057000002,f,1,3.3030048000000534,None,right,19,[],0,shiftedgaze_R_19.png,f,1,3,results32,001,2026-04-20_14h36.39.423,mogelijke versie adaptive staircase builder,,2026.1.3,60.051259755465466,2026-04-20 14h36.39.812482 +0200,
20.5,ecc10neg,right,2,0,2,f,1,2.761070300002757,None,0,2,2,2,2,0,2,0,2095.534362899998,,,,,,,,,,,,,,,2095.5231252999984,2095.534362899998,2095.534362899998,2096.4307861999987,2095.534362899998,2098.298042399998,f,1,2.761070300002757,None,right,18,[],0,shiftedgaze_R_18.png,f,1,3,results32,001,2026-04-20_14h36.39.423,mogelijke versie adaptive staircase builder,,2026.1.3,60.051259755465466,2026-04-20 14h36.39.812482 +0200,
20.5,ecc10neg,right,3,0,3,j,1,2.433245899999747,None,0,2,2,2,3,0,3,0,2098.4061846999975,,,,,,,,,,,,,,,2098.3946822,2098.4061846999975,2098.4061846999975,2099.313802499997,2098.4061846999975,2100.847571099999,j,1,2.433245899999747,None,direct,17,[],0,shifteddirectgaze.png,j,1,3,results32,001,2026-04-20_14h36.39.423,mogelijke versie adaptive staircase builder,,2026.1.3,60.051259755465466,2026-04-20 14h36.39.812482 +0200,
20.5,ecc10neg,right,4,0,4,j,0,3.1883170000000973,None,0,2,2,2,4,0,4,0,2100.9471553999974,,,,,,,,,,,,,,,2100.936027099997,2100.9471553999974,2100.9471553999974,2101.8474676999977,2100.9471553999974,2104.1477653999973,j,0,3.1883170000000973,None,left,16,[16],1,shiftedgaze_L_16.png,j,0,3,results32,001,2026-04-20_14h36.39.423,mogelijke versie adaptive staircase builder,,2026.1.3,60.051259755465466,2026-04-20 14h36.39.812482 +0200,
20.5,ecc10neg,right,5,0,5,f,1,1.7066268999988097,None,0,2,2,2,5,0,5,0,2104.2450274999974,,,,,,,,,,,,,,,2104.2340552999995,2104.2450274999974,2104.2450274999974,2105.147276399999,2104.2450274999974,2105.964241599999,f,1,1.7066268999988097,None,left,17,"[16, 17]",2,shiftedgaze_L_17.png,f,1,3,results32,001,2026-04-20_14h36.39.423,mogelijke versie adaptive staircase builder,,2026.1.3,60.051259755465466,2026-04-20 14h36.39.812482 +0200,
20.5,ecc10neg,right,6,0,6,f,1,1.9096553999988828,None,0,2,2,2,6,0,6,0,2106.089732299999,,,,,,,,,,,,,,,2106.0786762999996,2106.089732299999,2106.089732299999,2106.9638995999994,2106.089732299999,2108.0142392999987,f,1,1.9096553999988828,None,right,16,"[16, 17]",2,shiftedgaze_R_16.png,f,1,3,results32,001,2026-04-20_14h36.39.423,mogelijke versie adaptive staircase builder,,2026.1.3,60.051259755465466,2026-04-20 14h36.39.812482 +0200,
20.5,ecc10neg,right,7,0,7,j,0,2.5631324000023596,None,0,2,2,2,7,0,7,0,2108.132473999998,,,,,,,,,,,,,,,2108.1212763000003,2108.132473999998,2108.132473999998,2109.0140844999987,2108.132473999998,2110.697163099998,j,0,2.5631324000023596,None,left,15,"[16, 17, 15]",3,shiftedgaze_L_15.png,j,0,3,results32,001,2026-04-20_14h36.39.423,mogelijke versie adaptive staircase builder,,2026.1.3,60.051259755465466,2026-04-20 14h36.39.812482 +0200,
20.5,ecc10neg,right,8,0,8,j,0,3.2646672000009858,None,0,2,2,2,8,0,8,0,2110.7908314999986,,,,,,,,,,,,,,,2110.780072999998,2110.7908314999986,2110.7908314999986,2111.6970812,2110.7908314999986,2114.064010599999,j,0,3.2646672000009858,None,left,16,"[16, 17, 15]",3,shiftedgaze_L_16.png,j,0,3,results32,001,2026-04-20_14h36.39.423,mogelijke versie adaptive staircase builder,,2026.1.3,60.051259755465466,2026-04-20 14h36.39.812482 +0200,
20.5,ecc10neg,right,9,0,9,f,0,3.634320299999672,None,0,2,2,2,9,0,9,0,2114.1571530999972,,,,,,,,,,,,,,,2114.145579,2114.1571530999972,2114.1571530999972,2115.0639082999987,2114.1571530999972,2117.7977570999974,f,0,3.634320299999672,None,direct,17,"[16, 17, 15]",3,shifteddirectgaze.png,f,0,3,results32,001,2026-04-20_14h36.39.423,mogelijke versie adaptive staircase builder,,2026.1.3,60.051259755465466,2026-04-20 14h36.39.812482 +0200,
20.5,ecc10neg,right,10,0,10,f,0,3.2410330999991857,None,0,2,2,2,10,0,10,0,2117.9025167,,,,,,,,,,,,,,,2117.8913452999986,2117.9025167,2117.9025167,2118.797434,2117.9025167,2121.1474466,f,0,3.2410330999991857,None,direct,18,"[16, 17, 15]",3,shifteddirectgaze.png,f,0,3,results32,001,2026-04-20_14h36.39.423,mogelijke versie adaptive staircase builder,,2026.1.3,60.051259755465466,2026-04-20 14h36.39.812482 +0200,
20.5,ecc10neg,right,11,0,11,f,0,3.193147099998896,None,0,2,2,2,11,0,11,0,2121.2544727999993,,,,,,,,,,,,,,,2121.242489799999,2121.2544727999993,2121.2544727999993,2122.147356199999,2121.2544727999993,2124.4644222999996,f,0,3.193147099998896,None,direct,19,"[16, 17, 15]",3,shifteddirectgaze.png,f,0,3,results32,001,2026-04-20_14h36.39.423,mogelijke versie adaptive staircase builder,,2026.1.3,60.051259755465466,2026-04-20 14h36.39.812482 +0200,
20.5,ecc10neg,right,12,0,12,f,0,3.5729640999998082,None,0,2,2,2,12,0,12,0,2124.570565599999,,,,,,,,,,,,,,,2124.560188899999,2124.570565599999,2124.570565599999,2125.4639554999994,2124.570565599999,2128.1479575999983,f,0,3.5729640999998082,None,direct,20,"[16, 17, 15]",3,shifteddirectgaze.png,f,0,3,results32,001,2026-04-20_14h36.39.423,mogelijke versie adaptive staircase builder,,2026.1.3,60.051259755465466,2026-04-20 14h36.39.812482 +0200,
20.5,ecc10neg,right,13,0,13,j,0,1.7595613000012236,None,0,2,2,2,13,0,13,0,2128.2639087999996,,,,,,,,,,,,,,,2128.2533674999977,2128.2639087999996,2128.2639087999996,2129.163864799997,2128.2639087999996,2130.0305770999985,j,0,1.7595613000012236,None,left,20,"[16, 17, 15]",3,shiftedgaze_L_20.png,j,0,3,results32,001,2026-04-20_14h36.39.423,mogelijke versie adaptive staircase builder,,2026.1.3,60.051259755465466,2026-04-20 14h36.39.812482 +0200,
20.5,ecc10neg,right,14,0,14,f,1,3.01321100000132,None,0,2,2,2,14,0,14,0,2130.170396999998,,,,,,,,,,,,,,,2130.158871599997,2130.170396999998,2130.170396999998,2131.0304130999975,2130.170396999998,2133.1975139999995,f,1,3.01321100000132,None,right,20,"[16, 17, 15, 20]",4,shiftedgaze_R_20.png,f,1,3,results32,001,2026-04-20_14h36.39.423,mogelijke versie adaptive staircase builder,,2026.1.3,60.051259755465466,2026-04-20 14h36.39.812482 +0200,
20.5,ecc10neg,right,15,0,15,f,1,2.459425899996859,None,0,2,2,2,15,0,15,0,2133.3082098999985,,,,,,,,,,,,,,,2133.2960157999987,2133.3082098999985,2133.3082098999985,2134.1972996000004,2133.3082098999985,2135.7810685000004,f,1,2.459425899996859,None,right,19,"[16, 17, 15, 20]",4,shiftedgaze_R_19.png,f,1,3,results32,001,2026-04-20_14h36.39.423,mogelijke versie adaptive staircase builder,,2026.1.3,60.051259755465466,2026-04-20 14h36.39.812482 +0200,
20.5,ecc10neg,right,16,0,16,j,0,2.888650199998665,None,0,2,2,2,16,0,16,0,2135.919033099999,,,,,,,,,,,,,,,2135.906201499998,2135.919033099999,2135.919033099999,2136.7973265,2135.919033099999,2138.814908199998,j,0,2.888650199998665,None,left,18,"[16, 17, 15, 20, 18]",5,shiftedgaze_L_18.png,j,0,3,results32,001,2026-04-20_14h36.39.423,mogelijke versie adaptive staircase builder,,2026.1.3,60.051259755465466,2026-04-20 14h36.39.812482 +0200,
20.5,ecc10neg,right,17,0,17,j,0,1.978449999998702,None,0,2,2,2,17,0,17,0,2138.933080699997,,,,,,,,,,,,,,,2138.9202643999997,2138.933080699997,2138.933080699997,2139.8304559999997,2138.933080699997,2140.9142864999994,j,0,1.978449999998702,None,left,19,"[16, 17, 15, 20, 18]",5,shiftedgaze_L_19.png,j,0,3,results32,001,2026-04-20_14h36.39.423,mogelijke versie adaptive staircase builder,,2026.1.3,60.051259755465466,2026-04-20 14h36.39.812482 +0200,
20.5,ecc10neg,right,18,0,18,j,0,4.561632100001589,None,0,2,2,2,18,0,18,0,2141.021947699999,,,,,,,,,,,,,,,2141.011623899998,2141.021947699999,2141.021947699999,2141.9302965999996,2141.021947699999,2145.5982836000003,j,0,4.561632100001589,None,left,20,"[16, 17, 15, 20, 18]",5,shiftedgaze_L_20.png,j,0,3,results32,001,2026-04-20_14h36.39.423,mogelijke versie adaptive staircase builder,,2026.1.3,60.051259755465466,2026-04-20 14h36.39.812482 +0200,
20.5,ecc10neg,right,19,0,19,j,1,3.337499699999171,None,0,2,2,2,19,0,19,0,2145.702193199999,,,,,,,,,,,,,,,2145.689781699999,2145.702193199999,2145.702193199999,2146.6138986999977,2145.702193199999,2149.0478089999997,j,1,3.337499699999171,None,direct,20,"[16, 17, 15, 20, 18, 20]",6,shifteddirectgaze.png,j,1,3,results32,001,2026-04-20_14h36.39.423,mogelijke versie adaptive staircase builder,,2026.1.3,60.051259755465466,2026-04-20 14h36.39.812482 +0200,
20.5,ecc10neg,right,20,0,20,f,1,2.191017200002534,None,0,2,2,2,20,0,20,0,2149.184593099999,,,,,,,,,,,,,,,2149.1718736999974,2149.184593099999,2149.184593099999,2150.0471450999976,2149.184593099999,2151.382106899997,f,1,2.191017200002534,None,right,19,"[16, 17, 15, 20, 18, 20]",6,shiftedgaze_R_19.png,f,1,3,results32,001,2026-04-20_14h36.39.423,mogelijke versie adaptive staircase builder,,2026.1.3,60.051259755465466,2026-04-20 14h36.39.812482 +0200,
20.5,ecc10neg,right,21,0,21,f,1,4.216912700001558,None,0,2,2,2,21,0,21,0,2151.494730299997,,,,,,,,,,,,,,,2151.483553599999,2151.494730299997,2151.494730299997,2152.3968499999974,2151.494730299997,2155.714047399997,f,1,4.216912700001558,None,right,18,"[16, 17, 15, 20, 18, 20]",6,shiftedgaze_R_18.png,f,1,3,results32,001,2026-04-20_14h36.39.423,mogelijke versie adaptive staircase builder,,2026.1.3,60.051259755465466,2026-04-20 14h36.39.812482 +0200,
20.5,ecc10neg,right,22,0,22,j,1,1.8429723999979615,None,0,2,2,2,22,0,22,0,2155.8447536999993,,,,,,,,,,,,,,,2155.8336788999986,2155.8447536999993,2155.8447536999993,2156.7137970999975,2155.8447536999993,2157.6972284000003,j,1,1.8429723999979615,None,direct,17,"[16, 17, 15, 20, 18, 20]",6,shifteddirectgaze.png,j,1,3,results32,001,2026-04-20_14h36.39.423,mogelijke versie adaptive staircase builder,,2026.1.3,60.051259755465466,2026-04-20 14h36.39.812482 +0200,
20.5,ecc10neg,right,23,0,23,j,0,2.9002332000018214,None,0,2,2,2,23,0,23,0,2157.835382699999,,,,,,,,,,,,,,,2157.8227095,2157.835382699999,2157.835382699999,2158.696641999999,2157.835382699999,2160.746957899999,j,0,2.9002332000018214,None,right,16,"[16, 17, 15, 20, 18, 20, 16]",7,shiftedgaze_R_16.png,j,0,3,results32,001,2026-04-20_14h36.39.423,mogelijke versie adaptive staircase builder,,2026.1.3,60.051259755465466,2026-04-20 14h36.39.812482 +0200,
20.5,ecc10neg,right,24,0,24,j,1,2.7751562999983435,None,0,2,2,2,24,0,24,0,2160.8803444999976,,,,,,,,,,,,,,,2160.8682840999973,2160.8803444999976,2160.8803444999976,2161.7470735999996,2160.8803444999976,2163.6638408,j,1,2.7751562999983435,None,direct,17,"[16, 17, 15, 20, 18, 20, 16, 17]",8,shifteddirectgaze.png,j,1,3,results32,001,2026-04-20_14h36.39.423,mogelijke versie adaptive staircase builder,,2026.1.3,60.051259755465466,2026-04-20 14h36.39.812482 +0200,
20.5,ecc10neg,right,25,0,25,f,1,1.8559735999988334,None,0,2,2,2,25,0,25,0,2163.8080426999986,,,,,,,,,,,,,,,2163.7967365000004,2163.8080426999986,2163.8080426999986,2164.6633944999994,2163.8080426999986,2165.6806598999974,f,1,1.8559735999988334,None,right,16,"[16, 17, 15, 20, 18, 20, 16, 17]",8,shiftedgaze_R_16.png,f,1,3,results32,001,2026-04-20_14h36.39.423,mogelijke versie adaptive staircase builder,,2026.1.3,60.051259755465466,2026-04-20 14h36.39.812482 +0200,
20.5,ecc10neg,right,26,0,26,f,0,2.0240772000033758,None,0,2,2,2,26,0,26,0,2165.8153883999985,,,,,,,,,,,,,,,2165.804492199997,2165.8153883999985,2165.8153883999985,2166.696667999997,2165.8153883999985,2167.8467533999974,f,0,2.0240772000033758,None,direct,15,"[16, 17, 15, 20, 18, 20, 16, 17, 15]",9,shifteddirectgaze.png,f,0,3,results32,001,2026-04-20_14h36.39.423,mogelijke versie adaptive staircase builder,,2026.1.3,60.051259755465466,2026-04-20 14h36.39.812482 +0200,
20.5,ecc10neg,right,27,0,27,j,0,2.0064134000022023,None,0,2,2,2,27,0,27,0,2167.9451529,,,,,,,,,,,,,,,2167.9341492999993,2167.9451529,2167.9451529,2168.8468356999983,2167.9451529,2169.9635544999983,j,0,2.0064134000022023,None,left,16,"[16, 17, 15, 20, 18, 20, 16, 17, 15]",9,shiftedgaze_L_16.png,j,0,3,results32,001,2026-04-20_14h36.39.423,mogelijke versie adaptive staircase builder,,2026.1.3,60.051259755465466,2026-04-20 14h36.39.812482 +0200,
20.5,ecc10neg,right,28,0,28,f,0,3.8005620000003546,None,0,2,2,2,28,0,28,0,2170.0549243999994,,,,,,,,,,,,,,,2170.045103499997,2170.0549243999994,2170.0549243999994,2170.9630069999985,2170.0549243999994,2173.863284699997,f,0,3.8005620000003546,None,direct,17,"[16, 17, 15, 20, 18, 20, 16, 17, 15]",9,shifteddirectgaze.png,f,0,3,results32,001,2026-04-20_14h36.39.423,mogelijke versie adaptive staircase builder,,2026.1.3,60.051259755465466,2026-04-20 14h36.39.812482 +0200,
20.5,ecc10neg,right,29,0,29,j,1,4.736835699997755,None,0,2,2,2,29,0,29,0,2173.9586399,,,,,,,,,,,,,,,2173.9481247000003,2173.9586399,2173.9586399,2174.8629551999984,2173.9586399,2178.696954699997,j,1,4.736835699997755,None,direct,18,"[16, 17, 15, 20, 18, 20, 16, 17, 15, 18]",10,shifteddirectgaze.png,j,1,3,results32,001,2026-04-20_14h36.39.423,mogelijke versie adaptive staircase builder,,2026.1.3,60.051259755465466,2026-04-20 14h36.39.812482 +0200,
20.5,ecc10neg,right,30,0,30,f,1,3.172968499999115,None,0,2,2,2,30,0,30,0,2178.826524199998,,,,,,,,,,,,,,,2178.8141160999985,2178.826524199998,2178.826524199998,2179.696335599998,2178.826524199998,2182.0131053999976,f,1,3.172968499999115,None,right,17,"[16, 17, 15, 20, 18, 20, 16, 17, 15, 18]",10,shiftedgaze_R_17.png,f,1,3,results32,001,2026-04-20_14h36.39.423,mogelijke versie adaptive staircase builder,,2026.1.3,60.051259755465466,2026-04-20 14h36.39.812482 +0200,
20.5,ecc10neg,right,31,0,31,f,1,3.058296100000007,None,0,2,2,2,31,0,31,0,2182.1172718999987,,,,,,,,,,,,,,,2182.1059258999994,2182.1172718999987,2182.1172718999987,2183.0129130999994,2182.1172718999987,2185.1799681999983,f,1,3.058296100000007,None,right,16,"[16, 17, 15, 20, 18, 20, 16, 17, 15, 18]",10,shiftedgaze_R_16.png,f,1,3,results32,001,2026-04-20_14h36.39.423,mogelijke versie adaptive staircase builder,,2026.1.3,60.051259755465466,2026-04-20 14h36.39.812482 +0200,
20.5,ecc10neg,right,32,0,32,j,0,2.261676800000714,None,0,2,2,2,32,0,32,0,2185.2978718999984,,,,,,,,,,,,,,,2185.286691999998,2185.2978718999984,2185.2978718999984,2186.1795821999985,2185.2978718999984,2187.5634573999996,j,0,2.261676800000714,None,left,15,"[16, 17, 15, 20, 18, 20, 16, 17, 15, 18, 15]",11,shiftedgaze_L_15.png,j,0,3,results32,001,2026-04-20_14h36.39.423,mogelijke versie adaptive staircase builder,,2026.1.3,60.051259755465466,2026-04-20 14h36.39.812482 +0200,
20.5,ecc10neg,right,33,0,33,f,1,4.621216700001241,None,0,2,2,2,33,0,33,0,2187.6903521999993,,,,,,,,,,,,,,,2187.6792287999997,2187.6903521999993,2187.6903521999993,2188.5632272999974,2187.6903521999993,2192.313305599997,f,1,4.621216700001241,None,right,16,"[16, 17, 15, 20, 18, 20, 16, 17, 15, 18, 15, 16]",12,shiftedgaze_R_16.png,f,1,3,results32,001,2026-04-20_14h36.39.423,mogelijke versie adaptive staircase builder,,2026.1.3,60.051259755465466,2026-04-20 14h36.39.812482 +0200,
20.5,ecc10neg,right,34,0,34,j,0,4.849721400001727,None,0,2,2,2,34,0,34,0,2192.437815199999,,,,,,,,,,,,,,,2192.426549099997,2192.437815199999,2192.437815199999,2193.312976899997,2192.437815199999,2197.2969040999997,j,0,4.849721400001727,None,right,15,"[16, 17, 15, 20, 18, 20, 16, 17, 15, 18, 15, 16, 15]",13,shiftedgaze_R_15.png,j,0,3,results32,001,2026-04-20_14h36.39.423,mogelijke versie adaptive staircase builder,,2026.1.3,60.051259755465466,2026-04-20 14h36.39.812482 +0200,
20.5,ecc10neg,right,35,0,35,j,0,2.3275298999978986,None,0,2,2,2,35,0,35,0,2197.3920247999995,,,,,,,,,,,,,,,2197.3810935,2197.3920247999995,2197.3920247999995,2198.313086899998,2197.3920247999995,2199.7297026999986,j,0,2.3275298999978986,None,left,16,"[16, 17, 15, 20, 18, 20, 16, 17, 15, 18, 15, 16, 15]",13,shiftedgaze_L_16.png,j,0,3,results32,001,2026-04-20_14h36.39.423,mogelijke versie adaptive staircase builder,,2026.1.3,60.051259755465466,2026-04-20 14h36.39.812482 +0200,
20.5,ecc10neg,right,36,0,36,f,1,2.638470400001097,None,0,2,2,2,36,0,36,0,2199.8251681999973,,,,,,,,,,,,,,,2199.814635699997,2199.8251681999973,2199.8251681999973,2200.7292098,2199.8251681999973,2202.4796481999983,f,1,2.638470400001097,None,left,17,"[16, 17, 15, 20, 18, 20, 16, 17, 15, 18, 15, 16, 15, 17]",14,shiftedgaze_L_17.png,f,1,3,results32,001,2026-04-20_14h36.39.423,mogelijke versie adaptive staircase builder,,2026.1.3,60.051259755465466,2026-04-20 14h36.39.812482 +0200,
20.5,ecc10neg,right,37,0,37,j,0,5.695315200002369,None,0,2,2,2,37,0,37,0,2202.576188199997,,,,,,,,,,,,,,,2202.566042999999,2202.576188199997,2202.576188199997,2203.4791829999995,2202.576188199997,2208.279588999998,j,0,5.695315200002369,None,left,16,"[16, 17, 15, 20, 18, 20, 16, 17, 15, 18, 15, 16, 15, 17, 16]",15,shiftedgaze_L_16.png,j,0,3,results32,001,2026-04-20_14h36.39.423,mogelijke versie adaptive staircase builder,,2026.1.3,60.051259755465466,2026-04-20 14h36.39.812482 +0200,
20.5,ecc10neg,right,38,0,38,f,1,2.656508899999608,None,0,2,2,2,38,0,38,0,2208.4071772999996,,,,,,,,,,,,,,,2208.3957979999977,2208.4071772999996,2208.4071772999996,2209.2791413999985,2208.4071772999996,2211.0796324999974,f,1,2.656508899999608,None,right,17,"[16, 17, 15, 20, 18, 20, 16, 17, 15, 18, 15, 16, 15, 17, 16, 17]",16,shiftedgaze_R_17.png,f,1,3,results32,001,2026-04-20_14h36.39.423,mogelijke versie adaptive staircase builder,,2026.1.3,60.051259755465466,2026-04-20 14h36.39.812482 +0200,
20.5,ecc10neg,right,39,0,39,f,1,4.283811199999036,None,0,2,2,2,39,0,39,0,2211.187800599997,,,,,,,,,,,,,,,2211.1761761999987,2211.187800599997,2211.187800599997,2212.0790737999996,2211.187800599997,2215.4794729999994,f,1,4.283811199999036,None,right,16,"[16, 17, 15, 20, 18, 20, 16, 17, 15, 18, 15, 16, 15, 17, 16, 17]",16,shiftedgaze_R_16.png,f,1,3,results32,001,2026-04-20_14h36.39.423,mogelijke versie adaptive staircase builder,,2026.1.3,60.051259755465466,2026-04-20 14h36.39.812482 +0200,
20.5,ecc10neg,right,40,0,40,j,0,2.050959000000148,None,0,2,2,2,40,0,40,0,2215.596696999997,,,,,,,,,,,,,,,2215.5855693999983,2215.596696999997,2215.596696999997,2216.4793489000003,2215.596696999997,2217.701398199999,j,0,2.050959000000148,None,left,15,"[16, 17, 15, 20, 18, 20, 16, 17, 15, 18, 15, 16, 15, 17, 16, 17, 15]",17,shiftedgaze_L_15.png,j,0,3,results32,001,2026-04-20_14h36.39.423,mogelijke versie adaptive staircase builder,,2026.1.3,60.051259755465466,2026-04-20 14h36.39.812482 +0200,
20.5,ecc10neg,right,41,0,41,j,0,3.435212699998374,None,0,2,2,2,41,0,41,0,2217.7963334999986,,,,,,,,,,,,,,,2217.7853168,2217.7963334999986,2217.7963334999986,2218.712442099997,2217.7963334999986,2221.246155599998,j,0,3.435212699998374,None,left,16,"[16, 17, 15, 20, 18, 20, 16, 17, 15, 18, 15, 16, 15, 17, 16, 17, 15]",17,shiftedgaze_L_16.png,j,0,3,results32,001,2026-04-20_14h36.39.423,mogelijke versie adaptive staircase builder,,2026.1.3,60.051259755465466,2026-04-20 14h36.39.812482 +0200,
20.5,ecc10neg,right,42,0,42,f,0,2.6164253000024473,None,0,2,2,2,42,0,42,0,2221.3431850999987,,,,,,,,,,,,,,,2221.3328884999974,2221.3431850999987,2221.3431850999987,2222.2458071,2221.3431850999987,2223.9628572,f,0,2.6164253000024473,None,direct,17,"[16, 17, 15, 20, 18, 20, 16, 17, 15, 18, 15, 16, 15, 17, 16, 17, 15]",17,shifteddirectgaze.png,f,0,3,results32,001,2026-04-20_14h36.39.423,mogelijke versie adaptive staircase builder,,2026.1.3,60.051259755465466,2026-04-20 14h36.39.812482 +0200,
20.5,ecc10neg,right,43,0,43,j,1,3.3798829000006663,None,0,2,2,2,43,0,43,0,2224.059729299999,,,,,,,,,,,,,,,2224.049089099997,2224.059729299999,2224.059729299999,2224.9622232999973,2224.059729299999,2227.4462122999976,j,1,3.3798829000006663,None,direct,18,"[16, 17, 15, 20, 18, 20, 16, 17, 15, 18, 15, 16, 15, 17, 16, 17, 15, 18]",18,shifteddirectgaze.png,j,1,3,results32,001,2026-04-20_14h36.39.423,mogelijke versie adaptive staircase builder,,2026.1.3,60.051259755465466,2026-04-20 14h36.39.812482 +0200,
20.5,ecc10neg,right,44,0,44,f,1,2.8846231999996235,None,0,2,2,2,44,0,44,0,2227.5708559999985,,,,,,,,,,,,,,,2227.5592479999978,2227.5708559999985,2227.5708559999985,2228.4457810999993,2227.5708559999985,2230.4627874,f,1,2.8846231999996235,None,right,17,"[16, 17, 15, 20, 18, 20, 16, 17, 15, 18, 15, 16, 15, 17, 16, 17, 15, 18]",18,shiftedgaze_R_17.png,f,1,3,results32,001,2026-04-20_14h36.39.423,mogelijke versie adaptive staircase builder,,2026.1.3,60.051259755465466,2026-04-20 14h36.39.812482 +0200,
20.5,ecc10neg,right,45,0,45,f,1,3.0413546999989194,None,0,2,2,2,45,0,45,0,2230.582148999998,,,,,,,,,,,,,,,2230.5714004999973,2230.582148999998,2230.582148999998,2231.462318799997,2230.582148999998,2233.629450999997,f,1,3.0413546999989194,None,left,16,"[16, 17, 15, 20, 18, 20, 16, 17, 15, 18, 15, 16, 15, 17, 16, 17, 15, 18]",18,shiftedgaze_L_16.png,f,1,3,results32,001,2026-04-20_14h36.39.423,mogelijke versie adaptive staircase builder,,2026.1.3,60.051259755465466,2026-04-20 14h36.39.812482 +0200,
20.5,ecc10neg,right,46,0,46,f,1,2.9451727000014216,None,0,2,2,2,46,0,46,0,2233.7264139,,,,,,,,,,,,,,,2233.7160648999998,2233.7264139,2233.7264139,2234.6289507999973,2233.7264139,2236.6793290999994,f,1,2.9451727000014216,None,right,15,"[16, 17, 15, 20, 18, 20, 16, 17, 15, 18, 15, 16, 15, 17, 16, 17, 15, 18]",18,shiftedgaze_R_15.png,f,1,3,results32,001,2026-04-20_14h36.39.423,mogelijke versie adaptive staircase builder,,2026.1.3,60.051259755465466,2026-04-20 14h36.39.812482 +0200,
20.5,ecc10neg,right,47,0,47,f,1,2.5833916000010504,None,0,2,2,2,47,0,47,0,2236.7841800999995,,,,,,,,,,,,,,,2236.7726612999977,2236.7841800999995,2236.7841800999995,2237.6789511999996,2236.7841800999995,2239.3795075999988,f,1,2.5833916000010504,None,left,14,"[16, 17, 15, 20, 18, 20, 16, 17, 15, 18, 15, 16, 15, 17, 16, 17, 15, 18]",18,shiftedgaze_L_14.png,f,1,3,results32,001,2026-04-20_14h36.39.423,mogelijke versie adaptive staircase builder,,2026.1.3,60.051259755465466,2026-04-20 14h36.39.812482 +0200,
20.5,ecc10neg,right,48,0,48,f,1,2.0114439999997558,None,0,2,2,2,48,0,48,0,2239.4845338999985,,,,,,,,,,,,,,,2239.4740055999973,2239.4845338999985,2239.4845338999985,2240.395458799998,2239.4845338999985,2241.5125855999977,f,1,2.0114439999997558,None,right,13,"[16, 17, 15, 20, 18, 20, 16, 17, 15, 18, 15, 16, 15, 17, 16, 17, 15, 18]",18,shiftedgaze_R_13.png,f,1,3,results32,001,2026-04-20_14h36.39.423,mogelijke versie adaptive staircase builder,,2026.1.3,60.051259755465466,2026-04-20 14h36.39.812482 +0200,
20.5,ecc10neg,right,49,0,49,j,1,3.25322099999903,None,0,2,2,2,49,0,49,0,2241.6103059999987,,,,,,,,,,,,,,,2241.5999200999977,2241.6103059999987,2241.6103059999987,2242.5119902999977,2241.6103059999987,2244.879177699997,j,1,3.25322099999903,None,direct,12,"[16, 17, 15, 20, 18, 20, 16, 17, 15, 18, 15, 16, 15, 17, 16, 17, 15, 18]",18,shifteddirectgaze.png,j,1,3,results32,001,2026-04-20_14h36.39.423,mogelijke versie adaptive staircase builder,,2026.1.3,60.051259755465466,2026-04-20 14h36.39.812482 +0200,
20.5,ecc10neg,right,50,0,50,f,1,4.774882400000934,None,0,2,2,2,50,0,50,0,2244.9847200000004,,,,,,,,,,,,,,,2244.973800399999,2244.9847200000004,2244.9847200000004,2245.878827999997,2244.9847200000004,2249.7622733999997,f,1,4.774882400000934,None,right,11,"[16, 17, 15, 20, 18, 20, 16, 17, 15, 18, 15, 16, 15, 17, 16, 17, 15, 18]",18,shiftedgaze_R_11.png,f,1,3,results32,001,2026-04-20_14h36.39.423,mogelijke versie adaptive staircase builder,,2026.1.3,60.051259755465466,2026-04-20 14h36.39.812482 +0200,
20.5,ecc10neg,right,51,0,51,f,1,4.475442599999951,None,0,2,2,2,51,0,51,0,2249.8682365999994,,,,,,,,,,,,,,,2249.8576866999974,2249.8682365999994,2249.8682365999994,2250.7620967000003,2249.8682365999994,2254.345746699997,f,1,4.475442599999951,None,left,10,"[16, 17, 15, 20, 18, 20, 16, 17, 15, 18, 15, 16, 15, 17, 16, 17, 15, 18]",18,shiftedgaze_L_10.png,f,1,3,results32,001,2026-04-20_14h36.39.423,mogelijke versie adaptive staircase builder,,2026.1.3,60.051259755465466,2026-04-20 14h36.39.812482 +0200,
20.5,ecc10neg,right,52,0,52,f,0,2.8039873000016087,None,0,2,2,2,52,0,52,0,2254.4435416999986,,,,,,,,,,,,,,,2254.4326175999995,2254.4435416999986,2254.4435416999986,2255.345139699999,2254.4435416999986,2257.2622889999984,f,0,2.8039873000016087,None,direct,9,"[16, 17, 15, 20, 18, 20, 16, 17, 15, 18, 15, 16, 15, 17, 16, 17, 15, 18, 9]",19,shifteddirectgaze.png,f,0,3,results32,001,2026-04-20_14h36.39.423,mogelijke versie adaptive staircase builder,,2026.1.3,60.051259755465466,2026-04-20 14h36.39.812482 +0200,
20.5,ecc10neg,right,53,0,53,j,0,1.7270620000017516,None,0,2,2,2,53,0,53,0,2257.3689257999977,,,,,,,,,,,,,,,2257.358841999998,2257.3689257999977,2257.3689257999977,2258.2618390999996,2257.3689257999977,2259.112447899999,j,0,1.7270620000017516,None,right,10,"[16, 17, 15, 20, 18, 20, 16, 17, 15, 18, 15, 16, 15, 17, 16, 17, 15, 18, 9]",19,shiftedgaze_R_10.png,j,0,3,results32,001,2026-04-20_14h36.39.423,mogelijke versie adaptive staircase builder,,2026.1.3,60.051259755465466,2026-04-20 14h36.39.812482 +0200,
20.5,ecc10neg,right,54,0,54,j,1,2.768034799999441,None,0,2,2,2,54,0,54,0,2259.2075318999996,,,,,,,,,,,,,,,2259.1967645000004,2259.2075318999996,2259.2075318999996,2260.1120353999977,2259.2075318999996,2261.978729999999,j,1,2.768034799999441,None,direct,11,"[16, 17, 15, 20, 18, 20, 16, 17, 15, 18, 15, 16, 15, 17, 16, 17, 15, 18, 9, 11]",20,shifteddirectgaze.png,j,1,3,results32,001,2026-04-20_14h36.39.423,mogelijke versie adaptive staircase builder,,2026.1.3,60.051259755465466,2026-04-20 14h36.39.812482 +0200,
20.5,ecc10neg,right,55,0,55,j,0,2.647033699999156,None,0,2,2,2,55,0,55,0,2262.0805236999986,,,,,,,,,,,,,,,2262.0692175999975,2262.0805236999986,2262.0805236999986,2262.9785819999997,2262.0805236999986,2264.7290654999997,j,0,2.647033699999156,None,left,10,"[16, 17, 15, 20, 18, 20, 16, 17, 15, 18, 15, 16, 15, 17, 16, 17, 15, 18, 9, 11, 10]",21,shiftedgaze_L_10.png,j,0,3,results32,001,2026-04-20_14h36.39.423,mogelijke versie adaptive staircase builder,,2026.1.3,60.051259755465466,2026-04-20 14h36.39.812482 +0200,
20.5,ecc10neg,right,56,0,56,f,1,3.108896599998843,None,0,2,2,2,56,0,56,0,2264.827052499997,,,,,,,,,,,,,,,2264.817342899998,2264.827052499997,2264.827052499997,2265.7285782,2264.827052499997,2267.945398099997,f,1,3.108896599998843,None,right,11,"[16, 17, 15, 20, 18, 20, 16, 17, 15, 18, 15, 16, 15, 17, 16, 17, 15, 18, 9, 11, 10, 11]",22,shiftedgaze_R_11.png,f,1,3,results32,001,2026-04-20_14h36.39.423,mogelijke versie adaptive staircase builder,,2026.1.3,60.051259755465466,2026-04-20 14h36.39.812482 +0200,
20.5,ecc10neg,right,57,0,57,f,0,1.9190121999999974,None,0,2,2,2,57,0,57,0,2268.0405484000003,,,,,,,,,,,,,,,2268.029705599998,2268.0405484000003,2268.0405484000003,2268.944928099998,2268.0405484000003,2269.9623759999995,f,0,1.9190121999999974,None,direct,10,"[16, 17, 15, 20, 18, 20, 16, 17, 15, 18, 15, 16, 15, 17, 16, 17, 15, 18, 9, 11, 10, 11, 10]",23,shifteddirectgaze.png,f,0,3,results32,001,2026-04-20_14h36.39.423,mogelijke versie adaptive staircase builder,,2026.1.3,60.051259755465466,2026-04-20 14h36.39.812482 +0200,
20.5,ecc10neg,right,58,0,58,j,0,1.7872835999987728,None,0,2,2,2,58,0,58,0,2270.0603825,,,,,,,,,,,,,,,2270.0500785000004,2270.0603825,2270.0603825,2270.9782123000005,2270.0603825,2271.8622025999975,j,0,1.7872835999987728,None,left,11,"[16, 17, 15, 20, 18, 20, 16, 17, 15, 18, 15, 16, 15, 17, 16, 17, 15, 18, 9, 11, 10, 11, 10]",23,shiftedgaze_L_11.png,j,0,3,results32,001,2026-04-20_14h36.39.423,mogelijke versie adaptive staircase builder,,2026.1.3,60.051259755465466,2026-04-20 14h36.39.812482 +0200,
20.5,ecc10neg,right,59,0,59,f,1,2.276967499998136,None,0,2,2,2,59,0,59,0,2271.978581899999,,,,,,,,,,,,,,,2271.9682407,2271.978581899999,2271.978581899999,2272.861719999997,2271.978581899999,2274.2619041,f,1,2.276967499998136,None,right,12,"[16, 17, 15, 20, 18, 20, 16, 17, 15, 18, 15, 16, 15, 17, 16, 17, 15, 18, 9, 11, 10, 11, 10, 12]",24,shiftedgaze_R_12.png,f,1,3,results32,001,2026-04-20_14h36.39.423,mogelijke versie adaptive staircase builder,,2026.1.3,60.051259755465466,2026-04-20 14h36.39.812482 +0200,
20.5,ecc10neg,right,2,2,0,,,,,0,2,2,2,,,,,,,,,,,,,,,,,,,,,,,,,,,,,,,,,,,,,,results32,001,2026-04-20_14h36.39.423,mogelijke versie adaptive staircase builder,,2026.1.3,60.051259755465466,2026-04-20 14h36.39.812482 +0200,
