xPos,stimulusSet,whichImage,thisN,thisTrialN,thisRepN,key_resp.keys,key_resp.corr,key_resp.rt,key_resp.duration,blocks.thisRepN,blocks.thisTrialN,blocks.thisN,blocks.thisIndex,trials.thisRepN,trials.thisTrialN,trials.thisN,trials.thisIndex,thisRow.t,notes,piloting,intro.started,introinstructions.started,intro_key.started,demo_image_left.started,demo_image_middle.started,demo_image_right.started,intro.stopped,intro_key.keys,intro_key.rt,intro_key.duration,block_start.started,block_start.stopped,trial.started,key_resp.started,middle_image.started,right_image.started,left_image.started,trial.stopped,trials.key_resp.keys,trials.key_resp.corr,trials.key_resp.rt,trials.key_resp.duration,direction,angle,reversal_intensities,number_reversals,stimulus,response,correct,blockNumber,participant,session,date,expName,expVersion,psychopyVersion,frameRate,expStart,
,,,,,,,,,,,,,,,,,,,,False,0.07744590000220342,0.08916469999894616,0.08916469999894616,0.08916469999894616,0.08916469999894616,0.08916469999894616,30.177093099999183,space,29.965762300002098,0.12009149999721558,,,,,,,,,,,,,,,,,,,,,results7,001,2026-04-13_15h31.53.837,mogelijke versie adaptive staircase builder,,2026.1.3,60.026063316431014,2026-04-13 15h31.54.091276 +0200,
4.5,ecc10pos,left,0,0,0,f,1,3.950949000001856,None,0,0,0,0,0,0,0,0,30.599986199998966,,,,,,,,,,,,,30.39091710000139,30.390967999999702,30.58873660000245,30.599986199998966,30.599986199998966,30.599986199998966,31.393462300002284,34.56046640000204,f,1,3.950949000001856,None,left,20,[],0,shiftedgaze_L_20.png,f,1,1,results7,001,2026-04-13_15h31.53.837,mogelijke versie adaptive staircase builder,,2026.1.3,60.026063316431014,2026-04-13 15h31.54.091276 +0200,
4.5,ecc10pos,left,1,0,1,j,1,4.709522100001777,None,0,0,0,0,1,0,1,0,34.674360400000296,,,,,,,,,,,,,,,34.66145250000045,34.674360400000296,34.674360400000296,34.674360400000296,35.559856600000785,39.393424400001095,j,1,4.709522100001777,None,direct,19,[],0,shifteddirectgaze.png,j,1,1,results7,001,2026-04-13_15h31.53.837,mogelijke versie adaptive staircase builder,,2026.1.3,60.026063316431014,2026-04-13 15h31.54.091276 +0200,
4.5,ecc10pos,left,2,0,2,f,1,2.2740606000006665,None,0,0,0,0,2,0,2,0,39.580831700001,,,,,,,,,,,,,,,39.56928400000106,39.580831700001,39.580831700001,39.580831700001,40.39309630000207,41.860291699998925,f,1,2.2740606000006665,None,right,18,[],0,shiftedgaze_R_18.png,f,1,1,results7,001,2026-04-13_15h31.53.837,mogelijke versie adaptive staircase builder,,2026.1.3,60.026063316431014,2026-04-13 15h31.54.091276 +0200,
4.5,ecc10pos,left,3,0,3,f,1,2.0838708999981463,None,0,0,0,0,3,0,3,0,42.04318830000193,,,,,,,,,,,,,,,42.03261710000152,42.04318830000193,42.04318830000193,42.04318830000193,42.860907000002044,44.14452109999911,f,1,2.0838708999981463,None,right,17,[],0,shiftedgaze_R_17.png,f,1,1,results7,001,2026-04-13_15h31.53.837,mogelijke versie adaptive staircase builder,,2026.1.3,60.026063316431014,2026-04-13 15h31.54.091276 +0200,
4.5,ecc10pos,left,4,0,4,f,1,3.005138300002727,None,0,0,0,0,4,0,4,0,45.3618533000008,,,,,,,,,,,,,,,45.34871539999949,45.3618533000008,45.3618533000008,45.3618533000008,45.3618533000008,48.37678819999928,f,1,3.005138300002727,None,left,16,[],0,shiftedgaze_L_16.png,f,1,1,results7,001,2026-04-13_15h31.53.837,mogelijke versie adaptive staircase builder,,2026.1.3,60.026063316431014,2026-04-13 15h31.54.091276 +0200,
4.5,ecc10pos,left,5,0,5,f,1,2.8489312999990943,None,0,0,0,0,5,0,5,0,48.58998939999947,,,,,,,,,,,,,,,48.57775720000063,48.58998939999947,48.58998939999947,48.58998939999947,49.3763958999989,51.44345170000088,f,1,2.8489312999990943,None,right,15,[],0,shiftedgaze_R_15.png,f,1,1,results7,001,2026-04-13_15h31.53.837,mogelijke versie adaptive staircase builder,,2026.1.3,60.026063316431014,2026-04-13 15h31.54.091276 +0200,
4.5,ecc10pos,left,6,0,6,f,1,3.4418097000016132,None,0,0,0,0,6,0,6,0,51.62916980000227,,,,,,,,,,,,,,,51.61859800000093,51.62916980000227,51.62916980000227,51.62916980000227,52.443006100002094,55.07668919999924,f,1,3.4418097000016132,None,right,14,[],0,shiftedgaze_R_14.png,f,1,1,results7,001,2026-04-13_15h31.53.837,mogelijke versie adaptive staircase builder,,2026.1.3,60.026063316431014,2026-04-13 15h31.54.091276 +0200,
4.5,ecc10pos,left,7,0,7,j,1,3.1262075999984518,None,0,0,0,0,7,0,7,0,55.168685799999366,,,,,,,,,,,,,,,55.15778030000001,55.168685799999366,55.168685799999366,55.168685799999366,56.076293500002066,58.31005070000174,j,1,3.1262075999984518,None,direct,13,[],0,shifteddirectgaze.png,j,1,1,results7,001,2026-04-13_15h31.53.837,mogelijke versie adaptive staircase builder,,2026.1.3,60.026063316431014,2026-04-13 15h31.54.091276 +0200,
4.5,ecc10pos,left,8,0,8,j,0,3.612814399999479,None,0,0,0,0,8,0,8,0,58.49820510000063,,,,,,,,,,,,,,,58.48658520000026,58.49820510000063,58.49820510000063,58.49820510000063,59.309504600001674,62.126851299999544,j,0,3.612814399999479,None,right,12,[12],1,shiftedgaze_R_12.png,j,0,1,results7,001,2026-04-13_15h31.53.837,mogelijke versie adaptive staircase builder,,2026.1.3,60.026063316431014,2026-04-13 15h31.54.091276 +0200,
4.5,ecc10pos,left,9,0,9,f,1,2.688670600000478,None,0,0,0,0,9,0,9,0,62.31034910000017,,,,,,,,,,,,,,,62.300231900000654,62.31034910000017,62.31034910000017,62.31034910000017,63.126373400002194,65.00997120000102,f,1,2.688670600000478,None,left,13,"[12, 13]",2,shiftedgaze_L_13.png,f,1,1,results7,001,2026-04-13_15h31.53.837,mogelijke versie adaptive staircase builder,,2026.1.3,60.026063316431014,2026-04-13 15h31.54.091276 +0200,
4.5,ecc10pos,left,10,0,10,f,1,3.1048994999982824,None,0,0,0,0,10,0,10,0,65.10195430000022,,,,,,,,,,,,,,,65.09090560000186,65.10195430000022,65.10195430000022,65.10195430000022,66.00932570000077,68.20968740000171,f,1,3.1048994999982824,None,right,12,"[12, 13]",2,shiftedgaze_R_12.png,f,1,1,results7,001,2026-04-13_15h31.53.837,mogelijke versie adaptive staircase builder,,2026.1.3,60.026063316431014,2026-04-13 15h31.54.091276 +0200,
4.5,ecc10pos,left,11,0,11,j,1,2.552888599999278,None,0,0,0,0,11,0,11,0,68.30195050000111,,,,,,,,,,,,,,,68.29141810000147,68.30195050000111,68.30195050000111,68.30195050000111,69.20935910000117,70.85968380000122,j,1,2.552888599999278,None,direct,11,"[12, 13]",2,shifteddirectgaze.png,j,1,1,results7,001,2026-04-13_15h31.53.837,mogelijke versie adaptive staircase builder,,2026.1.3,60.026063316431014,2026-04-13 15h31.54.091276 +0200,
4.5,ecc10pos,left,12,0,12,f,0,2.798952700002701,None,0,0,0,0,12,0,12,0,70.95187029999943,,,,,,,,,,,,,,,70.94125400000121,70.95187029999943,70.95187029999943,70.95187029999943,71.85947569999917,73.75963860000047,f,0,2.798952700002701,None,direct,10,"[12, 13, 10]",3,shifteddirectgaze.png,f,0,1,results7,001,2026-04-13_15h31.53.837,mogelijke versie adaptive staircase builder,,2026.1.3,60.026063316431014,2026-04-13 15h31.54.091276 +0200,
4.5,ecc10pos,left,13,0,13,f,1,4.248338499997772,None,0,0,0,0,13,0,13,0,73.94257959999959,,,,,,,,,,,,,,,73.9318772000006,73.94257959999959,73.94257959999959,73.94257959999959,74.75947530000121,78.19284519999928,f,1,4.248338499997772,None,right,11,"[12, 13, 10, 11]",4,shiftedgaze_R_11.png,f,1,1,results7,001,2026-04-13_15h31.53.837,mogelijke versie adaptive staircase builder,,2026.1.3,60.026063316431014,2026-04-13 15h31.54.091276 +0200,
4.5,ecc10pos,left,14,0,14,f,1,1.9475476999978127,None,0,0,0,0,14,0,14,0,78.37943549999909,,,,,,,,,,,,,,,78.3688387000002,78.37943549999909,78.37943549999909,78.37943549999909,79.1926440999996,80.34287419999964,f,1,1.9475476999978127,None,left,10,"[12, 13, 10, 11]",4,shiftedgaze_L_10.png,f,1,1,results7,001,2026-04-13_15h31.53.837,mogelijke versie adaptive staircase builder,,2026.1.3,60.026063316431014,2026-04-13 15h31.54.091276 +0200,
4.5,ecc10pos,left,15,0,15,f,1,1.7699644999993325,None,0,0,0,0,15,0,15,0,80.53288320000138,,,,,,,,,,,,,,,80.5219591999994,80.53288320000138,80.53288320000138,80.53288320000138,81.34261770000012,82.30959210000219,f,1,1.7699644999993325,None,right,9,"[12, 13, 10, 11]",4,shiftedgaze_R_9.png,f,1,1,results7,001,2026-04-13_15h31.53.837,mogelijke versie adaptive staircase builder,,2026.1.3,60.026063316431014,2026-04-13 15h31.54.091276 +0200,
4.5,ecc10pos,left,16,0,16,j,1,2.0836428000002343,None,0,0,0,0,16,0,16,0,82.40319699999964,,,,,,,,,,,,,,,82.39159819999986,82.40319699999964,82.40319699999964,82.40319699999964,83.30923579999944,84.49305390000154,j,1,2.0836428000002343,None,direct,8,"[12, 13, 10, 11]",4,shifteddirectgaze.png,j,1,1,results7,001,2026-04-13_15h31.53.837,mogelijke versie adaptive staircase builder,,2026.1.3,60.026063316431014,2026-04-13 15h31.54.091276 +0200,
4.5,ecc10pos,left,17,0,17,j,0,2.760822800002643,None,0,0,0,0,17,0,17,0,84.84595640000043,,,,,,,,,,,,,,,84.83537830000205,84.84595640000043,84.84595640000043,84.84595640000043,85.49270389999947,87.60956570000053,j,0,2.760822800002643,None,left,7,"[12, 13, 10, 11, 7]",5,shiftedgaze_L_7.png,j,0,1,results7,001,2026-04-13_15h31.53.837,mogelijke versie adaptive staircase builder,,2026.1.3,60.026063316431014,2026-04-13 15h31.54.091276 +0200,
4.5,ecc10pos,left,18,0,18,f,1,3.1202260999998543,None,0,0,0,0,18,0,18,0,87.79857300000003,,,,,,,,,,,,,,,87.78758860000016,87.79857300000003,87.79857300000003,87.79857300000003,88.60914050000065,90.92621259999942,f,1,3.1202260999998543,None,left,8,"[12, 13, 10, 11, 7, 8]",6,shiftedgaze_L_8.png,f,1,1,results7,001,2026-04-13_15h31.53.837,mogelijke versie adaptive staircase builder,,2026.1.3,60.026063316431014,2026-04-13 15h31.54.091276 +0200,
4.5,ecc10pos,left,19,0,19,f,1,3.2746441999988747,None,0,0,0,0,19,0,19,0,91.02016530000037,,,,,,,,,,,,,,,91.00929380000161,91.02016530000037,91.02016530000037,91.02016530000037,91.92621130000043,94.30942850000065,f,1,3.2746441999988747,None,left,7,"[12, 13, 10, 11, 7, 8]",6,shiftedgaze_L_7.png,f,1,1,results7,001,2026-04-13_15h31.53.837,mogelijke versie adaptive staircase builder,,2026.1.3,60.026063316431014,2026-04-13 15h31.54.091276 +0200,
4.5,ecc10pos,left,20,0,20,f,1,3.3023825000018405,None,0,0,0,0,20,0,20,0,94.86450160000095,,,,,,,,,,,,,,,94.85354290000032,94.86450160000095,94.86450160000095,94.86450160000095,95.3091271000012,98.17604180000126,f,1,3.3023825000018405,None,right,6,"[12, 13, 10, 11, 7, 8]",6,shiftedgaze_R_6.png,f,1,1,results7,001,2026-04-13_15h31.53.837,mogelijke versie adaptive staircase builder,,2026.1.3,60.026063316431014,2026-04-13 15h31.54.091276 +0200,
4.5,ecc10pos,left,21,0,21,j,1,2.8570550000004005,None,0,0,0,0,21,0,21,0,98.26991249999992,,,,,,,,,,,,,,,98.25871539999935,98.26991249999992,98.26991249999992,98.26991249999992,99.17571690000113,101.14267380000092,j,1,2.8570550000004005,None,direct,5,"[12, 13, 10, 11, 7, 8]",6,shifteddirectgaze.png,j,1,1,results7,001,2026-04-13_15h31.53.837,mogelijke versie adaptive staircase builder,,2026.1.3,60.026063316431014,2026-04-13 15h31.54.091276 +0200,
4.5,ecc10pos,left,22,0,22,j,1,2.5647778999991715,None,0,0,0,0,22,0,22,0,101.23452760000146,,,,,,,,,,,,,,,101.22410310000123,101.23452760000146,101.23452760000146,101.23452760000146,102.14234149999902,103.80924760000198,j,1,2.5647778999991715,None,direct,4,"[12, 13, 10, 11, 7, 8]",6,shifteddirectgaze.png,j,1,1,results7,001,2026-04-13_15h31.53.837,mogelijke versie adaptive staircase builder,,2026.1.3,60.026063316431014,2026-04-13 15h31.54.091276 +0200,
4.5,ecc10pos,left,23,0,23,f,1,2.8056559000033303,None,0,0,0,0,23,0,23,0,103.99384629999986,,,,,,,,,,,,,,,103.9830987000023,103.99384629999986,103.99384629999986,103.99384629999986,104.80900950000068,106.80927150000207,f,1,2.8056559000033303,None,right,3,"[12, 13, 10, 11, 7, 8]",6,shiftedgaze_R_3.png,f,1,1,results7,001,2026-04-13_15h31.53.837,mogelijke versie adaptive staircase builder,,2026.1.3,60.026063316431014,2026-04-13 15h31.54.091276 +0200,
4.5,ecc10pos,left,24,0,24,f,0,2.2554323999975168,None,0,0,0,0,24,0,24,0,106.9035655000007,,,,,,,,,,,,,,,106.89216940000188,106.9035655000007,106.9035655000007,106.9035655000007,107.80879379999897,109.15934259999995,f,0,2.2554323999975168,None,direct,2,"[12, 13, 10, 11, 7, 8, 2]",7,shifteddirectgaze.png,f,0,1,results7,001,2026-04-13_15h31.53.837,mogelijke versie adaptive staircase builder,,2026.1.3,60.026063316431014,2026-04-13 15h31.54.091276 +0200,
4.5,ecc10pos,left,25,0,25,j,0,2.0253041999967536,None,0,0,0,0,25,0,25,0,109.25354770000195,,,,,,,,,,,,,,,109.24288370000068,109.25354770000195,109.25354770000195,109.25354770000195,110.1588527999993,111.29268310000043,j,0,2.0253041999967536,None,right,3,"[12, 13, 10, 11, 7, 8, 2]",7,shiftedgaze_R_3.png,j,0,1,results7,001,2026-04-13_15h31.53.837,mogelijke versie adaptive staircase builder,,2026.1.3,60.026063316431014,2026-04-13 15h31.54.091276 +0200,
4.5,ecc10pos,left,26,0,26,j,0,2.8030422999981965,None,0,0,0,0,26,0,26,0,111.47573869999906,,,,,,,,,,,,,,,111.46509850000075,111.47573869999906,111.47573869999906,111.47573869999906,112.29232039999988,114.29257879999932,j,0,2.8030422999981965,None,right,4,"[12, 13, 10, 11, 7, 8, 2]",7,shiftedgaze_R_4.png,j,0,1,results7,001,2026-04-13_15h31.53.837,mogelijke versie adaptive staircase builder,,2026.1.3,60.026063316431014,2026-04-13 15h31.54.091276 +0200,
4.5,ecc10pos,left,27,0,27,j,0,1.4731503999973938,None,0,0,0,0,27,0,27,0,115.74974060000022,,,,,,,,,,,,,,,115.73848720000024,115.74974060000022,115.74974060000022,115.74974060000022,115.74974060000022,117.2258972999989,j,0,1.4731503999973938,None,left,5,"[12, 13, 10, 11, 7, 8, 2]",7,shiftedgaze_L_5.png,j,0,1,results7,001,2026-04-13_15h31.53.837,mogelijke versie adaptive staircase builder,,2026.1.3,60.026063316431014,2026-04-13 15h31.54.091276 +0200,
4.5,ecc10pos,left,28,0,28,f,0,2.3677623000003223,None,0,0,0,0,28,0,28,0,117.31918159999987,,,,,,,,,,,,,,,117.30899080000017,117.31918159999987,117.31918159999987,117.31918159999987,118.22549920000165,119.69247860000178,f,0,2.3677623000003223,None,direct,6,"[12, 13, 10, 11, 7, 8, 2]",7,shifteddirectgaze.png,f,0,1,results7,001,2026-04-13_15h31.53.837,mogelijke versie adaptive staircase builder,,2026.1.3,60.026063316431014,2026-04-13 15h31.54.091276 +0200,
4.5,ecc10pos,left,29,0,29,f,1,3.419110800001363,None,0,0,0,0,29,0,29,0,119.7877421000012,,,,,,,,,,,,,,,119.77650300000096,119.7877421000012,119.7877421000012,119.7877421000012,120.69204499999978,123.20903969999927,f,1,3.419110800001363,None,left,7,"[12, 13, 10, 11, 7, 8, 2, 7]",8,shiftedgaze_L_7.png,f,1,1,results7,001,2026-04-13_15h31.53.837,mogelijke versie adaptive staircase builder,,2026.1.3,60.026063316431014,2026-04-13 15h31.54.091276 +0200,
4.5,ecc10pos,left,30,0,30,j,0,2.7615630000000237,None,0,0,0,0,30,0,30,0,123.38925030000246,,,,,,,,,,,,,,,123.37843870000142,123.38925030000246,123.38925030000246,123.38925030000246,124.20877300000211,126.1590466000016,j,0,2.7615630000000237,None,left,6,"[12, 13, 10, 11, 7, 8, 2, 7, 6]",9,shiftedgaze_L_6.png,j,0,1,results7,001,2026-04-13_15h31.53.837,mogelijke versie adaptive staircase builder,,2026.1.3,60.026063316431014,2026-04-13 15h31.54.091276 +0200,
4.5,ecc10pos,left,31,0,31,j,1,3.448768199999904,None,0,0,0,0,31,0,31,0,126.25402970000141,,,,,,,,,,,,,,,126.24222749999899,126.25402970000141,126.25402970000141,126.25402970000141,127.15875199999937,129.7089459000017,j,1,3.448768199999904,None,direct,7,"[12, 13, 10, 11, 7, 8, 2, 7, 6, 7]",10,shifteddirectgaze.png,j,1,1,results7,001,2026-04-13_15h31.53.837,mogelijke versie adaptive staircase builder,,2026.1.3,60.026063316431014,2026-04-13 15h31.54.091276 +0200,
4.5,ecc10pos,left,32,0,32,f,0,1.9793607000028715,None,0,0,0,0,32,0,32,0,129.80345809999926,,,,,,,,,,,,,,,129.79198960000213,129.80345809999926,129.80345809999926,129.80345809999926,130.70863219999956,131.79226290000224,f,0,1.9793607000028715,None,direct,6,"[12, 13, 10, 11, 7, 8, 2, 7, 6, 7, 6]",11,shifteddirectgaze.png,f,0,1,results7,001,2026-04-13_15h31.53.837,mogelijke versie adaptive staircase builder,,2026.1.3,60.026063316431014,2026-04-13 15h31.54.091276 +0200,
4.5,ecc10pos,left,33,0,33,f,1,1.685840999998618,None,0,0,0,0,33,0,33,0,132.36095000000205,,,,,,,,,,,,,,,132.35017399999924,132.36095000000205,132.36095000000205,132.36095000000205,132.791846600001,134.05892980000135,f,1,1.685840999998618,None,right,7,"[12, 13, 10, 11, 7, 8, 2, 7, 6, 7, 6, 7]",12,shiftedgaze_R_7.png,f,1,1,results7,001,2026-04-13_15h31.53.837,mogelijke versie adaptive staircase builder,,2026.1.3,60.026063316431014,2026-04-13 15h31.54.091276 +0200,
4.5,ecc10pos,left,34,0,34,j,1,2.3497109999989334,None,0,0,0,0,34,0,34,0,134.1531200999998,,,,,,,,,,,,,,,134.14211780000187,134.1531200999998,134.1531200999998,134.1531200999998,135.05837070000052,136.50892600000225,j,1,2.3497109999989334,None,direct,6,"[12, 13, 10, 11, 7, 8, 2, 7, 6, 7, 6, 7]",12,shifteddirectgaze.png,j,1,1,results7,001,2026-04-13_15h31.53.837,mogelijke versie adaptive staircase builder,,2026.1.3,60.026063316431014,2026-04-13 15h31.54.091276 +0200,
4.5,ecc10pos,left,35,0,35,f,0,2.132132900002034,None,0,0,0,0,35,0,35,0,136.60271619999912,,,,,,,,,,,,,,,136.5917694000018,136.60271619999912,136.60271619999912,136.60271619999912,137.50861950000035,138.7419512000015,f,0,2.132132900002034,None,direct,5,"[12, 13, 10, 11, 7, 8, 2, 7, 6, 7, 6, 7, 5]",13,shifteddirectgaze.png,f,0,1,results7,001,2026-04-13_15h31.53.837,mogelijke versie adaptive staircase builder,,2026.1.3,60.026063316431014,2026-04-13 15h31.54.091276 +0200,
4.5,ecc10pos,left,36,0,36,j,0,2.6218465999991167,None,0,0,0,0,36,0,36,0,138.83294939999905,,,,,,,,,,,,,,,138.82147819999955,138.83294939999905,138.83294939999905,138.83294939999905,139.7418432000013,141.458869099999,j,0,2.6218465999991167,None,left,6,"[12, 13, 10, 11, 7, 8, 2, 7, 6, 7, 6, 7, 5]",13,shiftedgaze_L_6.png,j,0,1,results7,001,2026-04-13_15h31.53.837,mogelijke versie adaptive staircase builder,,2026.1.3,60.026063316431014,2026-04-13 15h31.54.091276 +0200,
4.5,ecc10pos,left,37,0,37,f,1,2.3194446000015887,None,0,0,0,0,37,0,37,0,141.55155880000166,,,,,,,,,,,,,,,141.5403041999998,141.55155880000166,141.55155880000166,141.55155880000166,142.45845310000004,143.8751712000012,f,1,2.3194446000015887,None,right,7,"[12, 13, 10, 11, 7, 8, 2, 7, 6, 7, 6, 7, 5, 7]",14,shiftedgaze_R_7.png,f,1,1,results7,001,2026-04-13_15h31.53.837,mogelijke versie adaptive staircase builder,,2026.1.3,60.026063316431014,2026-04-13 15h31.54.091276 +0200,
4.5,ecc10pos,left,38,0,38,j,1,1.7262198999997054,None,0,0,0,0,38,0,38,0,143.96863440000016,,,,,,,,,,,,,,,143.95760599999994,143.96863440000016,143.96863440000016,143.96863440000016,144.87492770000244,145.7085678000003,j,1,1.7262198999997054,None,direct,6,"[12, 13, 10, 11, 7, 8, 2, 7, 6, 7, 6, 7, 5, 7]",14,shifteddirectgaze.png,j,1,1,results7,001,2026-04-13_15h31.53.837,mogelijke versie adaptive staircase builder,,2026.1.3,60.026063316431014,2026-04-13 15h31.54.091276 +0200,
4.5,ecc10pos,left,39,0,39,j,0,2.238368400001491,None,0,0,0,0,39,0,39,0,145.80033689999982,,,,,,,,,,,,,,,145.7894582000008,145.80033689999982,145.80033689999982,145.80033689999982,146.7081567000023,148.04190860000017,j,0,2.238368400001491,None,left,5,"[12, 13, 10, 11, 7, 8, 2, 7, 6, 7, 6, 7, 5, 7, 5]",15,shiftedgaze_L_5.png,j,0,1,results7,001,2026-04-13_15h31.53.837,mogelijke versie adaptive staircase builder,,2026.1.3,60.026063316431014,2026-04-13 15h31.54.091276 +0200,
4.5,ecc10pos,left,40,0,40,j,0,1.9767439000024751,None,0,0,0,0,40,0,40,0,148.1340737999999,,,,,,,,,,,,,,,148.12273370000185,148.1340737999999,148.1340737999999,148.1340737999999,149.04146070000206,150.12546700000166,j,0,1.9767439000024751,None,left,6,"[12, 13, 10, 11, 7, 8, 2, 7, 6, 7, 6, 7, 5, 7, 5]",15,shiftedgaze_L_6.png,j,0,1,results7,001,2026-04-13_15h31.53.837,mogelijke versie adaptive staircase builder,,2026.1.3,60.026063316431014,2026-04-13 15h31.54.091276 +0200,
4.5,ecc10pos,left,41,0,41,j,1,2.5721230000017385,None,0,0,0,0,41,0,41,0,150.2188113000011,,,,,,,,,,,,,,,150.2081932000001,150.2188113000011,150.2188113000011,150.2188113000011,151.12509110000246,152.79216970000198,j,1,2.5721230000017385,None,direct,7,"[12, 13, 10, 11, 7, 8, 2, 7, 6, 7, 6, 7, 5, 7, 5, 7]",16,shifteddirectgaze.png,j,1,1,results7,001,2026-04-13_15h31.53.837,mogelijke versie adaptive staircase builder,,2026.1.3,60.026063316431014,2026-04-13 15h31.54.091276 +0200,
4.5,ecc10pos,left,42,0,42,f,0,2.0266214000002947,None,0,0,0,0,42,0,42,0,152.88418269999966,,,,,,,,,,,,,,,152.8729572000011,152.88418269999966,152.88418269999966,152.88418269999966,153.79157320000013,154.92523989999972,f,0,2.0266214000002947,None,direct,6,"[12, 13, 10, 11, 7, 8, 2, 7, 6, 7, 6, 7, 5, 7, 5, 7, 6]",17,shifteddirectgaze.png,f,0,1,results7,001,2026-04-13_15h31.53.837,mogelijke versie adaptive staircase builder,,2026.1.3,60.026063316431014,2026-04-13 15h31.54.091276 +0200,
4.5,ecc10pos,left,43,0,43,j,1,2.9967178000006243,None,0,0,0,0,43,0,43,0,155.0194878000002,,,,,,,,,,,,,,,155.00807270000223,155.0194878000002,155.0194878000002,155.0194878000002,155.92461280000134,158.0250253000013,j,1,2.9967178000006243,None,direct,7,"[12, 13, 10, 11, 7, 8, 2, 7, 6, 7, 6, 7, 5, 7, 5, 7, 6, 7]",18,shifteddirectgaze.png,j,1,1,results7,001,2026-04-13_15h31.53.837,mogelijke versie adaptive staircase builder,,2026.1.3,60.026063316431014,2026-04-13 15h31.54.091276 +0200,
4.5,ecc10pos,left,44,0,44,f,1,2.4671503999998095,None,0,0,0,0,44,0,44,0,158.11589200000162,,,,,,,,,,,,,,,158.10533950000172,158.11589200000162,158.11589200000162,158.11589200000162,159.02478360000168,160.5917827000012,f,1,2.4671503999998095,None,right,6,"[12, 13, 10, 11, 7, 8, 2, 7, 6, 7, 6, 7, 5, 7, 5, 7, 6, 7]",18,shiftedgaze_R_6.png,f,1,1,results7,001,2026-04-13_15h31.53.837,mogelijke versie adaptive staircase builder,,2026.1.3,60.026063316431014,2026-04-13 15h31.54.091276 +0200,
4.5,ecc10pos,left,45,0,45,f,1,2.149589600001491,None,0,0,0,0,45,0,45,0,160.683157200001,,,,,,,,,,,,,,,160.67207680000138,160.683157200001,160.683157200001,160.683157200001,161.59143310000218,162.84168169999975,f,1,2.149589600001491,None,left,5,"[12, 13, 10, 11, 7, 8, 2, 7, 6, 7, 6, 7, 5, 7, 5, 7, 6, 7]",18,shiftedgaze_L_5.png,f,1,1,results7,001,2026-04-13_15h31.53.837,mogelijke versie adaptive staircase builder,,2026.1.3,60.026063316431014,2026-04-13 15h31.54.091276 +0200,
4.5,ecc10pos,left,46,0,46,f,0,1.9550791999972716,None,0,0,0,0,46,0,46,0,162.93187150000085,,,,,,,,,,,,,,,162.92132710000078,162.93187150000085,162.93187150000085,162.93187150000085,163.84139190000133,164.89203970000017,f,0,1.9550791999972716,None,direct,4,"[12, 13, 10, 11, 7, 8, 2, 7, 6, 7, 6, 7, 5, 7, 5, 7, 6, 7, 4]",19,shifteddirectgaze.png,f,0,1,results7,001,2026-04-13_15h31.53.837,mogelijke versie adaptive staircase builder,,2026.1.3,60.026063316431014,2026-04-13 15h31.54.091276 +0200,
4.5,ecc10pos,left,47,0,47,j,0,2.7436018000007607,None,0,0,0,0,47,0,47,0,164.9832019000023,,,,,,,,,,,,,,,164.97119720000046,164.9832019000023,164.9832019000023,164.9832019000023,165.89141290000043,167.7417263999996,j,0,2.7436018000007607,None,left,5,"[12, 13, 10, 11, 7, 8, 2, 7, 6, 7, 6, 7, 5, 7, 5, 7, 6, 7, 4]",19,shiftedgaze_L_5.png,j,0,1,results7,001,2026-04-13_15h31.53.837,mogelijke versie adaptive staircase builder,,2026.1.3,60.026063316431014,2026-04-13 15h31.54.091276 +0200,
4.5,ecc10pos,left,48,0,48,j,0,2.731837799998175,None,0,0,0,0,48,0,48,0,167.83500819999972,,,,,,,,,,,,,,,167.82360809999955,167.83500819999972,167.83500819999972,167.83500819999972,168.74145110000245,170.57505149999997,j,0,2.731837799998175,None,right,6,"[12, 13, 10, 11, 7, 8, 2, 7, 6, 7, 6, 7, 5, 7, 5, 7, 6, 7, 4]",19,shiftedgaze_R_6.png,j,0,1,results7,001,2026-04-13_15h31.53.837,mogelijke versie adaptive staircase builder,,2026.1.3,60.026063316431014,2026-04-13 15h31.54.091276 +0200,
4.5,ecc10pos,left,49,0,49,j,0,2.8076158999974723,None,0,0,0,0,49,0,49,0,170.67118710000068,,,,,,,,,,,,,,,170.6609071999992,170.67118710000068,170.67118710000068,170.67118710000068,171.57458020000195,173.49160050000137,j,0,2.8076158999974723,None,right,7,"[12, 13, 10, 11, 7, 8, 2, 7, 6, 7, 6, 7, 5, 7, 5, 7, 6, 7, 4]",19,shiftedgaze_R_7.png,j,0,1,results7,001,2026-04-13_15h31.53.837,mogelijke versie adaptive staircase builder,,2026.1.3,60.026063316431014,2026-04-13 15h31.54.091276 +0200,
4.5,ecc10pos,left,50,0,50,j,1,3.0020323999997345,None,0,0,0,0,50,0,50,0,173.58886229999916,,,,,,,,,,,,,,,173.5774588000022,173.58886229999916,173.58886229999916,173.58886229999916,174.4914033999994,176.5916978000023,j,1,3.0020323999997345,None,direct,8,"[12, 13, 10, 11, 7, 8, 2, 7, 6, 7, 6, 7, 5, 7, 5, 7, 6, 7, 4, 8]",20,shifteddirectgaze.png,j,1,1,results7,001,2026-04-13_15h31.53.837,mogelijke versie adaptive staircase builder,,2026.1.3,60.026063316431014,2026-04-13 15h31.54.091276 +0200,
4.5,ecc10pos,left,51,0,51,f,1,3.8973875000010594,None,0,0,0,0,51,0,51,0,176.68537470000228,,,,,,,,,,,,,,,176.67509110000174,176.68537470000228,176.68537470000228,176.68537470000228,177.59109639999951,180.59165570000187,f,1,3.8973875000010594,None,right,7,"[12, 13, 10, 11, 7, 8, 2, 7, 6, 7, 6, 7, 5, 7, 5, 7, 6, 7, 4, 8]",20,shiftedgaze_R_7.png,f,1,1,results7,001,2026-04-13_15h31.53.837,mogelijke versie adaptive staircase builder,,2026.1.3,60.026063316431014,2026-04-13 15h31.54.091276 +0200,
4.5,ecc10pos,left,52,0,52,f,1,2.5517658999997366,None,0,0,0,0,52,0,52,0,180.69500370000242,,,,,,,,,,,,,,,180.68455050000193,180.69500370000242,180.69500370000242,180.69500370000242,181.59115799999927,183.25824750000174,f,1,2.5517658999997366,None,left,6,"[12, 13, 10, 11, 7, 8, 2, 7, 6, 7, 6, 7, 5, 7, 5, 7, 6, 7, 4, 8]",20,shiftedgaze_L_6.png,f,1,1,results7,001,2026-04-13_15h31.53.837,mogelijke versie adaptive staircase builder,,2026.1.3,60.026063316431014,2026-04-13 15h31.54.091276 +0200,
4.5,ecc10pos,left,53,0,53,f,1,2.6438550999992003,None,0,0,0,0,53,0,53,0,183.43511539999963,,,,,,,,,,,,,,,183.42376010000226,183.43511539999963,183.43511539999963,183.43511539999963,184.2576365999994,186.09157849999974,f,1,2.6438550999992003,None,right,5,"[12, 13, 10, 11, 7, 8, 2, 7, 6, 7, 6, 7, 5, 7, 5, 7, 6, 7, 4, 8]",20,shiftedgaze_R_5.png,f,1,1,results7,001,2026-04-13_15h31.53.837,mogelijke versie adaptive staircase builder,,2026.1.3,60.026063316431014,2026-04-13 15h31.54.091276 +0200,
4.5,ecc10pos,left,54,0,54,j,1,2.4801625999971293,None,0,0,0,0,54,0,54,0,186.18261659999916,,,,,,,,,,,,,,,186.17214810000223,186.18261659999916,186.18261659999916,186.18261659999916,187.09090859999924,188.67468220000228,j,1,2.4801625999971293,None,direct,4,"[12, 13, 10, 11, 7, 8, 2, 7, 6, 7, 6, 7, 5, 7, 5, 7, 6, 7, 4, 8]",20,shifteddirectgaze.png,j,1,1,results7,001,2026-04-13_15h31.53.837,mogelijke versie adaptive staircase builder,,2026.1.3,60.026063316431014,2026-04-13 15h31.54.091276 +0200,
4.5,ecc10pos,left,55,0,55,j,0,3.3430953999995836,None,0,0,0,0,55,0,55,0,188.86376460000247,,,,,,,,,,,,,,,188.8532570000025,188.86376460000247,188.86376460000247,188.86376460000247,189.67414629999985,192.20827890000146,j,0,3.3430953999995836,None,left,3,"[12, 13, 10, 11, 7, 8, 2, 7, 6, 7, 6, 7, 5, 7, 5, 7, 6, 7, 4, 8, 3]",21,shiftedgaze_L_3.png,j,0,1,results7,001,2026-04-13_15h31.53.837,mogelijke versie adaptive staircase builder,,2026.1.3,60.026063316431014,2026-04-13 15h31.54.091276 +0200,
4.5,ecc10pos,left,56,0,56,f,0,2.6026106999997864,None,0,0,0,0,56,0,56,0,192.30015360000107,,,,,,,,,,,,,,,192.2890279000021,192.30015360000107,192.30015360000107,192.30015360000107,193.20751860000018,194.90811720000056,f,0,2.6026106999997864,None,direct,4,"[12, 13, 10, 11, 7, 8, 2, 7, 6, 7, 6, 7, 5, 7, 5, 7, 6, 7, 4, 8, 3]",21,shifteddirectgaze.png,f,0,1,results7,001,2026-04-13_15h31.53.837,mogelijke versie adaptive staircase builder,,2026.1.3,60.026063316431014,2026-04-13 15h31.54.091276 +0200,
4.5,ecc10pos,left,57,0,57,f,0,2.565284899999824,None,0,0,0,0,57,0,57,0,195.6095815000008,,,,,,,,,,,,,,,195.59925900000235,195.6095815000008,195.6095815000008,195.6095815000008,196.52417910000077,198.1911323000022,f,0,2.565284899999824,None,direct,5,"[12, 13, 10, 11, 7, 8, 2, 7, 6, 7, 6, 7, 5, 7, 5, 7, 6, 7, 4, 8, 3]",21,shifteddirectgaze.png,f,0,1,results7,001,2026-04-13_15h31.53.837,mogelijke versie adaptive staircase builder,,2026.1.3,60.026063316431014,2026-04-13 15h31.54.091276 +0200,
4.5,ecc10pos,left,58,0,58,j,0,2.177814100003161,None,0,0,0,0,58,0,58,0,198.37302490000002,,,,,,,,,,,,,,,198.36243950000062,198.37302490000002,198.37302490000002,198.37302490000002,199.19066920000114,200.5580766000021,j,0,2.177814100003161,None,right,6,"[12, 13, 10, 11, 7, 8, 2, 7, 6, 7, 6, 7, 5, 7, 5, 7, 6, 7, 4, 8, 3]",21,shiftedgaze_R_6.png,j,0,1,results7,001,2026-04-13_15h31.53.837,mogelijke versie adaptive staircase builder,,2026.1.3,60.026063316431014,2026-04-13 15h31.54.091276 +0200,
4.5,ecc10pos,left,59,0,59,f,1,2.5238181999993685,None,0,0,0,0,59,0,59,0,200.65229420000105,,,,,,,,,,,,,,,200.64160170000105,200.65229420000105,200.65229420000105,200.65229420000105,201.5574388999994,203.17757300000085,f,1,2.5238181999993685,None,left,7,"[12, 13, 10, 11, 7, 8, 2, 7, 6, 7, 6, 7, 5, 7, 5, 7, 6, 7, 4, 8, 3, 7]",22,shiftedgaze_L_7.png,f,1,1,results7,001,2026-04-13_15h31.53.837,mogelijke versie adaptive staircase builder,,2026.1.3,60.026063316431014,2026-04-13 15h31.54.091276 +0200,
4.5,ecc10pos,left,0,0,0,,,,,0,0,0,0,,,,,,,,,,,,,,,,,,,,,,,,,,,,,,,,,,,,,,results7,001,2026-04-13_15h31.53.837,mogelijke versie adaptive staircase builder,,2026.1.3,60.026063316431014,2026-04-13 15h31.54.091276 +0200,
12.5,ecc0,mid,0,0,0,f,0,4.218041699998139,None,0,1,1,1,0,0,0,0,203.2687216000013,,,,,,,,,,,,,203.18019940000158,203.18023919999905,203.25779610000245,203.2687216000013,204.19092180000007,203.2687216000013,203.2687216000013,207.49119509999946,f,0,4.218041699998139,None,direct,20,[],0,direct_gaze.png,f,0,2,results7,001,2026-04-13_15h31.53.837,mogelijke versie adaptive staircase builder,,2026.1.3,60.026063316431014,2026-04-13 15h31.54.091276 +0200,
12.5,ecc0,mid,1,0,1,f,1,2.2378570999972,None,0,1,1,1,1,0,1,0,207.68096420000074,,,,,,,,,,,,,,,207.66936519999945,207.68096420000074,208.4907286000016,207.68096420000074,207.68096420000074,209.9245269000021,f,1,2.2378570999972,None,right,20,[20],1,gaze_R_20.png,f,1,2,results7,001,2026-04-13_15h31.53.837,mogelijke versie adaptive staircase builder,,2026.1.3,60.026063316431014,2026-04-13 15h31.54.091276 +0200,
12.5,ecc0,mid,2,0,2,j,0,2.001004900001135,None,0,1,1,1,2,0,2,0,210.10976500000106,,,,,,,,,,,,,,,210.09919000000082,210.10976500000106,210.923930500001,210.10976500000106,210.10976500000106,212.12433640000017,j,0,2.001004900001135,None,left,19,"[20, 19]",2,gaze_L_19.png,j,0,2,results7,001,2026-04-13_15h31.53.837,mogelijke versie adaptive staircase builder,,2026.1.3,60.026063316431014,2026-04-13 15h31.54.091276 +0200,
12.5,ecc0,mid,3,0,3,j,1,2.0553451999985555,None,0,1,1,1,3,0,3,0,212.21546220000164,,,,,,,,,,,,,,,212.2050304000004,212.21546220000164,213.1238396000008,212.21546220000164,212.21546220000164,214.27458169999954,j,1,2.0553451999985555,None,direct,20,"[20, 19, 20]",3,direct_gaze.png,j,1,2,results7,001,2026-04-13_15h31.53.837,mogelijke versie adaptive staircase builder,,2026.1.3,60.026063316431014,2026-04-13 15h31.54.091276 +0200,
12.5,ecc0,mid,4,0,4,f,1,2.3002135999995517,None,0,1,1,1,4,0,4,0,214.37872640000205,,,,,,,,,,,,,,,214.36734559999968,214.37872640000205,215.273858200002,214.37872640000205,214.37872640000205,216.69108400000187,f,1,2.3002135999995517,None,left,19,"[20, 19, 20]",3,gaze_L_19.png,f,1,2,results7,001,2026-04-13_15h31.53.837,mogelijke versie adaptive staircase builder,,2026.1.3,60.026063316431014,2026-04-13 15h31.54.091276 +0200,
12.5,ecc0,mid,5,0,5,f,0,2.5704636000009486,None,0,1,1,1,5,0,5,0,216.78836430000229,,,,,,,,,,,,,,,216.77820050000082,216.78836430000229,217.69052790000205,216.78836430000229,216.78836430000229,219.37407489999896,f,0,2.5704636000009486,None,direct,18,"[20, 19, 20, 18]",4,direct_gaze.png,f,0,2,results7,001,2026-04-13_15h31.53.837,mogelijke versie adaptive staircase builder,,2026.1.3,60.026063316431014,2026-04-13 15h31.54.091276 +0200,
12.5,ecc0,mid,6,0,6,f,1,2.1406396999991557,None,0,1,1,1,6,0,6,0,219.56220450000183,,,,,,,,,,,,,,,219.5500166999991,219.56220450000183,220.37378810000155,219.56220450000183,219.56220450000183,221.7074969000023,f,1,2.1406396999991557,None,right,19,"[20, 19, 20, 18, 19]",5,gaze_R_19.png,f,1,2,results7,001,2026-04-13_15h31.53.837,mogelijke versie adaptive staircase builder,,2026.1.3,60.026063316431014,2026-04-13 15h31.54.091276 +0200,
12.5,ecc0,mid,7,0,7,j,0,2.0299376000002667,None,0,1,1,1,7,0,7,0,221.8968648000009,,,,,,,,,,,,,,,221.8852732000014,221.8968648000009,222.7071074000014,221.8968648000009,221.8968648000009,223.94078250000166,j,0,2.0299376000002667,None,right,18,"[20, 19, 20, 18, 19, 18]",6,gaze_R_18.png,j,0,2,results7,001,2026-04-13_15h31.53.837,mogelijke versie adaptive staircase builder,,2026.1.3,60.026063316431014,2026-04-13 15h31.54.091276 +0200,
12.5,ecc0,mid,8,0,8,f,0,2.5108293000012054,None,0,1,1,1,8,0,8,0,224.03990519999934,,,,,,,,,,,,,,,224.0296382000015,224.03990519999934,224.94212759999937,224.03990519999934,224.03990519999934,226.55756590000237,f,0,2.5108293000012054,None,direct,19,"[20, 19, 20, 18, 19, 18]",6,direct_gaze.png,f,0,2,results7,001,2026-04-13_15h31.53.837,mogelijke versie adaptive staircase builder,,2026.1.3,60.026063316431014,2026-04-13 15h31.54.091276 +0200,
12.5,ecc0,mid,9,0,9,f,1,2.2074546000003465,None,0,1,1,1,9,0,9,0,226.75125370000023,,,,,,,,,,,,,,,226.7402323000024,226.75125370000023,227.5569260000011,226.75125370000023,226.75125370000023,228.97418029999972,f,1,2.2074546000003465,None,left,20,"[20, 19, 20, 18, 19, 18, 20]",7,gaze_L_20.png,f,1,2,results7,001,2026-04-13_15h31.53.837,mogelijke versie adaptive staircase builder,,2026.1.3,60.026063316431014,2026-04-13 15h31.54.091276 +0200,
12.5,ecc0,mid,10,0,10,j,0,3.28781170000002,None,0,1,1,1,10,0,10,0,229.07096020000245,,,,,,,,,,,,,,,229.06084700000065,229.07096020000245,229.9738064000012,229.07096020000245,229.07096020000245,232.37412440000116,j,0,3.28781170000002,None,right,19,"[20, 19, 20, 18, 19, 18, 20, 19]",8,gaze_R_19.png,j,0,2,results7,001,2026-04-13_15h31.53.837,mogelijke versie adaptive staircase builder,,2026.1.3,60.026063316431014,2026-04-13 15h31.54.091276 +0200,
12.5,ecc0,mid,11,0,11,j,0,2.85398019999775,None,0,1,1,1,11,0,11,0,232.472693300002,,,,,,,,,,,,,,,232.46200170000157,232.472693300002,233.37360679999983,232.472693300002,232.472693300002,235.34085029999915,j,0,2.85398019999775,None,left,20,"[20, 19, 20, 18, 19, 18, 20, 19]",8,gaze_L_20.png,j,0,2,results7,001,2026-04-13_15h31.53.837,mogelijke versie adaptive staircase builder,,2026.1.3,60.026063316431014,2026-04-13 15h31.54.091276 +0200,
12.5,ecc0,mid,12,0,12,f,0,4.070407399998658,None,0,1,1,1,12,0,12,0,235.4403671,,,,,,,,,,,,,,,235.42857809999987,235.4403671,236.34008910000193,235.4403671,235.4403671,239.52419100000043,f,0,4.070407399998658,None,direct,20,"[20, 19, 20, 18, 19, 18, 20, 19]",8,direct_gaze.png,f,0,2,results7,001,2026-04-13_15h31.53.837,mogelijke versie adaptive staircase builder,,2026.1.3,60.026063316431014,2026-04-13 15h31.54.091276 +0200,
12.5,ecc0,mid,13,0,13,f,1,2.242839400001685,None,0,1,1,1,13,0,13,0,239.6199314000005,,,,,,,,,,,,,,,239.60963790000096,239.6199314000005,240.52375310000207,239.6199314000005,239.6199314000005,241.87406190000183,f,1,2.242839400001685,None,right,20,"[20, 19, 20, 18, 19, 18, 20, 19, 20]",9,gaze_R_20.png,f,1,2,results7,001,2026-04-13_15h31.53.837,mogelijke versie adaptive staircase builder,,2026.1.3,60.026063316431014,2026-04-13 15h31.54.091276 +0200,
12.5,ecc0,mid,14,0,14,j,0,2.3701709999986633,None,0,1,1,1,14,0,14,0,241.97258839999995,,,,,,,,,,,,,,,241.96222130000024,241.97258839999995,242.8736054000001,241.97258839999995,241.97258839999995,244.35736109999925,j,0,2.3701709999986633,None,right,19,"[20, 19, 20, 18, 19, 18, 20, 19, 20, 19]",10,gaze_R_19.png,j,0,2,results7,001,2026-04-13_15h31.53.837,mogelijke versie adaptive staircase builder,,2026.1.3,60.026063316431014,2026-04-13 15h31.54.091276 +0200,
12.5,ecc0,mid,15,0,15,f,1,4.612111200000072,None,0,1,1,1,15,0,15,0,244.45873009999923,,,,,,,,,,,,,,,244.4482902000018,244.45873009999923,245.35692890000064,244.45873009999923,244.45873009999923,249.07407240000248,f,1,4.612111200000072,None,right,20,"[20, 19, 20, 18, 19, 18, 20, 19, 20, 19, 20]",11,gaze_R_20.png,f,1,2,results7,001,2026-04-13_15h31.53.837,mogelijke versie adaptive staircase builder,,2026.1.3,60.026063316431014,2026-04-13 15h31.54.091276 +0200,
12.5,ecc0,mid,16,0,16,f,1,2.4039370999998937,None,0,1,1,1,16,0,16,0,249.17077100000097,,,,,,,,,,,,,,,249.16066359999968,249.17077100000097,250.0901550000017,249.17077100000097,249.17077100000097,251.59059830000115,f,1,2.4039370999998937,None,right,19,"[20, 19, 20, 18, 19, 18, 20, 19, 20, 19, 20]",11,gaze_R_19.png,f,1,2,results7,001,2026-04-13_15h31.53.837,mogelijke versie adaptive staircase builder,,2026.1.3,60.026063316431014,2026-04-13 15h31.54.091276 +0200,
12.5,ecc0,mid,17,0,17,f,1,2.571363499999279,None,0,1,1,1,17,0,17,0,251.69250699999975,,,,,,,,,,,,,,,251.67954850000024,251.69250699999975,252.58994729999904,251.69250699999975,251.69250699999975,254.27391329999955,f,1,2.571363499999279,None,right,18,"[20, 19, 20, 18, 19, 18, 20, 19, 20, 19, 20]",11,gaze_R_18.png,f,1,2,results7,001,2026-04-13_15h31.53.837,mogelijke versie adaptive staircase builder,,2026.1.3,60.026063316431014,2026-04-13 15h31.54.091276 +0200,
12.5,ecc0,mid,18,0,18,f,1,3.2611407000003965,None,0,1,1,1,18,0,18,0,254.465575000002,,,,,,,,,,,,,,,254.45528900000136,254.465575000002,255.2733045999994,254.465575000002,254.465575000002,257.74050160000115,f,1,3.2611407000003965,None,right,17,"[20, 19, 20, 18, 19, 18, 20, 19, 20, 19, 20]",11,gaze_R_17.png,f,1,2,results7,001,2026-04-13_15h31.53.837,mogelijke versie adaptive staircase builder,,2026.1.3,60.026063316431014,2026-04-13 15h31.54.091276 +0200,
12.5,ecc0,mid,19,0,19,f,0,2.6168620999997074,None,0,1,1,1,19,0,19,0,257.84601960000145,,,,,,,,,,,,,,,257.83525120000195,257.84601960000145,258.73988889999964,257.84601960000145,257.84601960000145,260.4738752000012,f,0,2.6168620999997074,None,direct,16,"[20, 19, 20, 18, 19, 18, 20, 19, 20, 19, 20, 16]",12,direct_gaze.png,f,0,2,results7,001,2026-04-13_15h31.53.837,mogelijke versie adaptive staircase builder,,2026.1.3,60.026063316431014,2026-04-13 15h31.54.091276 +0200,
12.5,ecc0,mid,20,0,20,f,1,3.7596291000008932,None,0,1,1,1,20,0,20,0,260.6714810000012,,,,,,,,,,,,,,,260.66071849999935,260.6714810000012,261.4897063999997,260.6714810000012,260.6714810000012,264.4394582999994,f,1,3.7596291000008932,None,left,17,"[20, 19, 20, 18, 19, 18, 20, 19, 20, 19, 20, 16, 17]",13,gaze_L_17.png,f,1,2,results7,001,2026-04-13_15h31.53.837,mogelijke versie adaptive staircase builder,,2026.1.3,60.026063316431014,2026-04-13 15h31.54.091276 +0200,
12.5,ecc0,mid,21,0,21,j,1,2.3514882999988913,None,0,1,1,1,21,0,21,0,264.52728950000164,,,,,,,,,,,,,,,264.5236139000008,264.52728950000164,265.4392728999992,264.52728950000164,264.52728950000164,266.8898131999995,j,1,2.3514882999988913,None,direct,16,"[20, 19, 20, 18, 19, 18, 20, 19, 20, 19, 20, 16, 17]",13,direct_gaze.png,j,1,2,results7,001,2026-04-13_15h31.53.837,mogelijke versie adaptive staircase builder,,2026.1.3,60.026063316431014,2026-04-13 15h31.54.091276 +0200,
12.5,ecc0,mid,22,0,22,j,1,3.1413589000003412,None,0,1,1,1,22,0,22,0,266.98539860000164,,,,,,,,,,,,,,,266.9790606000024,266.98539860000164,267.8899571000002,266.98539860000164,266.98539860000164,270.1402914999999,j,1,3.1413589000003412,None,direct,15,"[20, 19, 20, 18, 19, 18, 20, 19, 20, 19, 20, 16, 17]",13,direct_gaze.png,j,1,2,results7,001,2026-04-13_15h31.53.837,mogelijke versie adaptive staircase builder,,2026.1.3,60.026063316431014,2026-04-13 15h31.54.091276 +0200,
12.5,ecc0,mid,23,0,23,f,0,2.511067399998865,None,0,1,1,1,23,0,23,0,270.2397961000024,,,,,,,,,,,,,,,270.2290498000002,270.2397961000024,271.139743300002,270.2397961000024,270.2397961000024,272.75707200000033,f,0,2.511067399998865,None,direct,14,"[20, 19, 20, 18, 19, 18, 20, 19, 20, 19, 20, 16, 17, 14]",14,direct_gaze.png,f,0,2,results7,001,2026-04-13_15h31.53.837,mogelijke versie adaptive staircase builder,,2026.1.3,60.026063316431014,2026-04-13 15h31.54.091276 +0200,
12.5,ecc0,mid,24,0,24,f,1,2.7001194000004034,None,0,1,1,1,24,0,24,0,272.9468706000007,,,,,,,,,,,,,,,272.93585299999904,272.9468706000007,273.7565125000001,272.9468706000007,272.9468706000007,275.65695760000017,f,1,2.7001194000004034,None,right,15,"[20, 19, 20, 18, 19, 18, 20, 19, 20, 19, 20, 16, 17, 14, 15]",15,gaze_R_15.png,f,1,2,results7,001,2026-04-13_15h31.53.837,mogelijke versie adaptive staircase builder,,2026.1.3,60.026063316431014,2026-04-13 15h31.54.091276 +0200,
12.5,ecc0,mid,25,0,25,f,1,2.7556519000027038,None,0,1,1,1,25,0,25,0,275.83524509999916,,,,,,,,,,,,,,,275.82397370000035,275.83524509999916,276.65629439999975,275.83524509999916,275.83524509999916,278.6067292000007,f,1,2.7556519000027038,None,right,14,"[20, 19, 20, 18, 19, 18, 20, 19, 20, 19, 20, 16, 17, 14, 15]",15,gaze_R_14.png,f,1,2,results7,001,2026-04-13_15h31.53.837,mogelijke versie adaptive staircase builder,,2026.1.3,60.026063316431014,2026-04-13 15h31.54.091276 +0200,
12.5,ecc0,mid,26,0,26,f,1,0.8975893000024371,None,0,1,1,1,26,0,26,0,279.8692489000023,,,,,,,,,,,,,,,279.8574077000012,279.8692489000023,279.8692489000023,279.8692489000023,279.8692489000023,280.77313929999946,f,1,0.8975893000024371,None,left,13,"[20, 19, 20, 18, 19, 18, 20, 19, 20, 19, 20, 16, 17, 14, 15]",15,gaze_L_13.png,f,1,2,results7,001,2026-04-13_15h31.53.837,mogelijke versie adaptive staircase builder,,2026.1.3,60.026063316431014,2026-04-13 15h31.54.091276 +0200,
12.5,ecc0,mid,27,0,27,f,1,2.1689799999985553,None,0,1,1,1,27,0,27,0,280.9579009000008,,,,,,,,,,,,,,,280.9467285999999,280.9579009000008,281.77333999999973,280.9579009000008,280.9579009000008,283.14019929999995,f,1,2.1689799999985553,None,right,12,"[20, 19, 20, 18, 19, 18, 20, 19, 20, 19, 20, 16, 17, 14, 15]",15,gaze_R_12.png,f,1,2,results7,001,2026-04-13_15h31.53.837,mogelijke versie adaptive staircase builder,,2026.1.3,60.026063316431014,2026-04-13 15h31.54.091276 +0200,
12.5,ecc0,mid,28,0,28,j,1,3.005999499997415,None,0,1,1,1,28,0,28,0,283.23280850000083,,,,,,,,,,,,,,,283.2214300000014,283.23280850000083,284.13959500000055,283.23280850000083,283.23280850000083,286.2400514000001,j,1,3.005999499997415,None,direct,11,"[20, 19, 20, 18, 19, 18, 20, 19, 20, 19, 20, 16, 17, 14, 15]",15,direct_gaze.png,j,1,2,results7,001,2026-04-13_15h31.53.837,mogelijke versie adaptive staircase builder,,2026.1.3,60.026063316431014,2026-04-13 15h31.54.091276 +0200,
12.5,ecc0,mid,29,0,29,f,1,2.0098278999976174,None,0,1,1,1,29,0,29,0,286.9169221000011,,,,,,,,,,,,,,,286.9063601000016,286.9169221000011,287.2395213000018,286.9169221000011,286.9169221000011,288.9401362999997,f,1,2.0098278999976174,None,right,10,"[20, 19, 20, 18, 19, 18, 20, 19, 20, 19, 20, 16, 17, 14, 15]",15,gaze_R_10.png,f,1,2,results7,001,2026-04-13_15h31.53.837,mogelijke versie adaptive staircase builder,,2026.1.3,60.026063316431014,2026-04-13 15h31.54.091276 +0200,
12.5,ecc0,mid,30,0,30,j,0,3.2639513999965857,None,0,1,1,1,30,0,30,0,289.11888869999893,,,,,,,,,,,,,,,289.1077709000019,289.11888869999893,289.93950229999973,289.11888869999893,289.11888869999893,292.3898537999994,j,0,3.2639513999965857,None,left,9,"[20, 19, 20, 18, 19, 18, 20, 19, 20, 19, 20, 16, 17, 14, 15, 9]",16,gaze_L_9.png,j,0,2,results7,001,2026-04-13_15h31.53.837,mogelijke versie adaptive staircase builder,,2026.1.3,60.026063316431014,2026-04-13 15h31.54.091276 +0200,
12.5,ecc0,mid,31,0,31,f,1,3.414875199996459,None,0,1,1,1,31,0,31,0,292.56796720000057,,,,,,,,,,,,,,,292.5568607000023,292.56796720000057,293.3894407000007,292.56796720000057,292.56796720000057,295.989837000001,f,1,3.414875199996459,None,left,10,"[20, 19, 20, 18, 19, 18, 20, 19, 20, 19, 20, 16, 17, 14, 15, 9, 10]",17,gaze_L_10.png,f,1,2,results7,001,2026-04-13_15h31.53.837,mogelijke versie adaptive staircase builder,,2026.1.3,60.026063316431014,2026-04-13 15h31.54.091276 +0200,
12.5,ecc0,mid,32,0,32,j,0,2.8690447000008135,None,0,1,1,1,32,0,32,0,296.08190549999927,,,,,,,,,,,,,,,296.07109800000035,296.08190549999927,296.9895613000008,296.08190549999927,296.08190549999927,298.95658059999914,j,0,2.8690447000008135,None,left,9,"[20, 19, 20, 18, 19, 18, 20, 19, 20, 19, 20, 16, 17, 14, 15, 9, 10, 9]",18,gaze_L_9.png,j,0,2,results7,001,2026-04-13_15h31.53.837,mogelijke versie adaptive staircase builder,,2026.1.3,60.026063316431014,2026-04-13 15h31.54.091276 +0200,
12.5,ecc0,mid,33,0,33,j,1,2.447502999999415,None,0,1,1,1,33,0,33,0,299.0472965000008,,,,,,,,,,,,,,,299.0359750000025,299.0472965000008,299.95617889999994,299.0472965000008,299.0472965000008,301.5066834999998,j,1,2.447502999999415,None,direct,10,"[20, 19, 20, 18, 19, 18, 20, 19, 20, 19, 20, 16, 17, 14, 15, 9, 10, 9, 10]",19,direct_gaze.png,j,1,2,results7,001,2026-04-13_15h31.53.837,mogelijke versie adaptive staircase builder,,2026.1.3,60.026063316431014,2026-04-13 15h31.54.091276 +0200,
12.5,ecc0,mid,34,0,34,f,1,2.320550899999944,None,0,1,1,1,34,0,34,0,301.60644970000067,,,,,,,,,,,,,,,301.5961919000001,301.60644970000067,302.5227827000017,301.60644970000067,301.60644970000067,303.9392098999997,f,1,2.320550899999944,None,left,9,"[20, 19, 20, 18, 19, 18, 20, 19, 20, 19, 20, 16, 17, 14, 15, 9, 10, 9, 10]",19,gaze_L_9.png,f,1,2,results7,001,2026-04-13_15h31.53.837,mogelijke versie adaptive staircase builder,,2026.1.3,60.026063316431014,2026-04-13 15h31.54.091276 +0200,
12.5,ecc0,mid,35,0,35,j,1,2.0598097999973106,None,0,1,1,1,35,0,35,0,304.03492950000145,,,,,,,,,,,,,,,304.02858240000205,304.03492950000145,304.93889320000017,304.03492950000145,304.03492950000145,306.1064559000006,j,1,2.0598097999973106,None,direct,8,"[20, 19, 20, 18, 19, 18, 20, 19, 20, 19, 20, 16, 17, 14, 15, 9, 10, 9, 10]",19,direct_gaze.png,j,1,2,results7,001,2026-04-13_15h31.53.837,mogelijke versie adaptive staircase builder,,2026.1.3,60.026063316431014,2026-04-13 15h31.54.091276 +0200,
12.5,ecc0,mid,36,0,36,j,0,2.4213646999996854,None,0,1,1,1,36,0,36,0,306.29753210000126,,,,,,,,,,,,,,,306.28590970000005,306.29753210000126,307.1060811000025,306.29753210000126,306.29753210000126,308.7230961000023,j,0,2.4213646999996854,None,left,7,"[20, 19, 20, 18, 19, 18, 20, 19, 20, 19, 20, 16, 17, 14, 15, 9, 10, 9, 10, 7]",20,gaze_L_7.png,j,0,2,results7,001,2026-04-13_15h31.53.837,mogelijke versie adaptive staircase builder,,2026.1.3,60.026063316431014,2026-04-13 15h31.54.091276 +0200,
12.5,ecc0,mid,37,0,37,f,1,2.117203599998902,None,0,1,1,1,37,0,37,0,308.9059813999993,,,,,,,,,,,,,,,308.8954607000014,308.9059813999993,309.7239365000023,308.9059813999993,308.9059813999993,311.03952910000226,f,1,2.117203599998902,None,right,8,"[20, 19, 20, 18, 19, 18, 20, 19, 20, 19, 20, 16, 17, 14, 15, 9, 10, 9, 10, 7, 8]",21,gaze_R_8.png,f,1,2,results7,001,2026-04-13_15h31.53.837,mogelijke versie adaptive staircase builder,,2026.1.3,60.026063316431014,2026-04-13 15h31.54.091276 +0200,
12.5,ecc0,mid,38,0,38,j,1,2.6921373999975913,None,0,1,1,1,38,0,38,0,311.1309528999991,,,,,,,,,,,,,,,311.11789150000186,311.1309528999991,312.0393597000002,311.1309528999991,311.1309528999991,313.8397607000006,j,1,2.6921373999975913,None,direct,7,"[20, 19, 20, 18, 19, 18, 20, 19, 20, 19, 20, 16, 17, 14, 15, 9, 10, 9, 10, 7, 8]",21,direct_gaze.png,j,1,2,results7,001,2026-04-13_15h31.53.837,mogelijke versie adaptive staircase builder,,2026.1.3,60.026063316431014,2026-04-13 15h31.54.091276 +0200,
12.5,ecc0,mid,39,0,39,j,1,2.07543639999858,None,0,1,1,1,39,0,39,0,313.9313081,,,,,,,,,,,,,,,313.9207545999998,313.9313081,314.839328500002,313.9313081,313.9313081,316.02287720000095,j,1,2.07543639999858,None,direct,6,"[20, 19, 20, 18, 19, 18, 20, 19, 20, 19, 20, 16, 17, 14, 15, 9, 10, 9, 10, 7, 8]",21,direct_gaze.png,j,1,2,results7,001,2026-04-13_15h31.53.837,mogelijke versie adaptive staircase builder,,2026.1.3,60.026063316431014,2026-04-13 15h31.54.091276 +0200,
12.5,ecc0,mid,40,0,40,f,1,1.93807740000193,None,0,1,1,1,40,0,40,0,316.2046483000013,,,,,,,,,,,,,,,316.19434270000056,316.2046483000013,317.0226239000003,316.2046483000013,316.2046483000013,318.15636200000154,f,1,1.93807740000193,None,right,5,"[20, 19, 20, 18, 19, 18, 20, 19, 20, 19, 20, 16, 17, 14, 15, 9, 10, 9, 10, 7, 8]",21,gaze_R_5.png,f,1,2,results7,001,2026-04-13_15h31.53.837,mogelijke versie adaptive staircase builder,,2026.1.3,60.026063316431014,2026-04-13 15h31.54.091276 +0200,
12.5,ecc0,mid,41,0,41,f,0,2.493288300000131,None,0,1,1,1,41,0,41,0,318.24934700000085,,,,,,,,,,,,,,,318.2377357000005,318.24934700000085,319.15586410000105,318.24934700000085,318.24934700000085,320.75616530000116,f,0,2.493288300000131,None,direct,4,"[20, 19, 20, 18, 19, 18, 20, 19, 20, 19, 20, 16, 17, 14, 15, 9, 10, 9, 10, 7, 8, 4]",22,direct_gaze.png,f,0,2,results7,001,2026-04-13_15h31.53.837,mogelijke versie adaptive staircase builder,,2026.1.3,60.026063316431014,2026-04-13 15h31.54.091276 +0200,
12.5,ecc0,mid,42,0,42,j,0,1.757706700002018,None,0,1,1,1,42,0,42,0,321.2570565999995,,,,,,,,,,,,,,,321.2466131000001,321.2570565999995,321.75601820000156,321.2570565999995,321.2570565999995,323.0229096000003,j,0,1.757706700002018,None,left,5,"[20, 19, 20, 18, 19, 18, 20, 19, 20, 19, 20, 16, 17, 14, 15, 9, 10, 9, 10, 7, 8, 4]",22,gaze_L_5.png,j,0,2,results7,001,2026-04-13_15h31.53.837,mogelijke versie adaptive staircase builder,,2026.1.3,60.026063316431014,2026-04-13 15h31.54.091276 +0200,
12.5,ecc0,mid,43,0,43,j,0,2.409816999999748,None,0,1,1,1,43,0,43,0,323.21307180000076,,,,,,,,,,,,,,,323.2025844000018,323.21307180000076,324.0223726000004,323.21307180000076,323.21307180000076,325.6394665000007,j,0,2.409816999999748,None,left,6,"[20, 19, 20, 18, 19, 18, 20, 19, 20, 19, 20, 16, 17, 14, 15, 9, 10, 9, 10, 7, 8, 4]",22,gaze_L_6.png,j,0,2,results7,001,2026-04-13_15h31.53.837,mogelijke versie adaptive staircase builder,,2026.1.3,60.026063316431014,2026-04-13 15h31.54.091276 +0200,
12.5,ecc0,mid,44,0,44,j,1,3.3715955999978178,None,0,1,1,1,44,0,44,0,325.7311214000001,,,,,,,,,,,,,,,325.7200159999993,325.7311214000001,326.6392622000021,325.7311214000001,325.7311214000001,329.10604629999943,j,1,3.3715955999978178,None,direct,7,"[20, 19, 20, 18, 19, 18, 20, 19, 20, 19, 20, 16, 17, 14, 15, 9, 10, 9, 10, 7, 8, 4, 7]",23,direct_gaze.png,j,1,2,results7,001,2026-04-13_15h31.53.837,mogelijke versie adaptive staircase builder,,2026.1.3,60.026063316431014,2026-04-13 15h31.54.091276 +0200,
12.5,ecc0,mid,45,0,45,j,0,2.3300460999998904,None,0,1,1,1,45,0,45,0,329.19673039999907,,,,,,,,,,,,,,,329.1862972000017,329.19673039999907,330.10577869999906,329.19673039999907,329.19673039999907,331.5393103000024,j,0,2.3300460999998904,None,left,6,"[20, 19, 20, 18, 19, 18, 20, 19, 20, 19, 20, 16, 17, 14, 15, 9, 10, 9, 10, 7, 8, 4, 7, 6]",24,gaze_L_6.png,j,0,2,results7,001,2026-04-13_15h31.53.837,mogelijke versie adaptive staircase builder,,2026.1.3,60.026063316431014,2026-04-13 15h31.54.091276 +0200,
12.5,ecc0,mid,46,0,46,f,1,1.7605465000015101,None,0,1,1,1,46,0,46,0,332.1190467000015,,,,,,,,,,,,,,,332.1078923999994,332.1190467000015,332.539018200001,332.1190467000015,332.1190467000015,333.8901776999992,f,1,1.7605465000015101,None,right,7,"[20, 19, 20, 18, 19, 18, 20, 19, 20, 19, 20, 16, 17, 14, 15, 9, 10, 9, 10, 7, 8, 4, 7, 6, 7]",25,gaze_R_7.png,f,1,2,results7,001,2026-04-13_15h31.53.837,mogelijke versie adaptive staircase builder,,2026.1.3,60.026063316431014,2026-04-13 15h31.54.091276 +0200,
12.5,ecc0,mid,47,0,47,f,1,2.282955899998342,None,0,1,1,1,47,0,47,0,334.0677445000001,,,,,,,,,,,,,,,334.0576282000002,334.0677445000001,334.90548800000033,334.0677445000001,334.0677445000001,336.3558574000017,f,1,2.282955899998342,None,right,6,"[20, 19, 20, 18, 19, 18, 20, 19, 20, 19, 20, 16, 17, 14, 15, 9, 10, 9, 10, 7, 8, 4, 7, 6, 7]",25,gaze_R_6.png,f,1,2,results7,001,2026-04-13_15h31.53.837,mogelijke versie adaptive staircase builder,,2026.1.3,60.026063316431014,2026-04-13 15h31.54.091276 +0200,
12.5,ecc0,mid,48,0,48,f,1,2.168355599998904,None,0,1,1,1,48,0,48,0,336.446375800002,,,,,,,,,,,,,,,336.43572180000047,336.446375800002,337.3555469999992,336.446375800002,336.446375800002,338.62267780000184,f,1,2.168355599998904,None,left,5,"[20, 19, 20, 18, 19, 18, 20, 19, 20, 19, 20, 16, 17, 14, 15, 9, 10, 9, 10, 7, 8, 4, 7, 6, 7]",25,gaze_L_5.png,f,1,2,results7,001,2026-04-13_15h31.53.837,mogelijke versie adaptive staircase builder,,2026.1.3,60.026063316431014,2026-04-13 15h31.54.091276 +0200,
12.5,ecc0,mid,49,0,49,j,1,2.0757373999986157,None,0,1,1,1,49,0,49,0,338.71503289999964,,,,,,,,,,,,,,,338.7039514999997,338.71503289999964,339.6220586999989,338.71503289999964,338.71503289999964,340.80603859999974,j,1,2.0757373999986157,None,direct,4,"[20, 19, 20, 18, 19, 18, 20, 19, 20, 19, 20, 16, 17, 14, 15, 9, 10, 9, 10, 7, 8, 4, 7, 6, 7]",25,direct_gaze.png,j,1,2,results7,001,2026-04-13_15h31.53.837,mogelijke versie adaptive staircase builder,,2026.1.3,60.026063316431014,2026-04-13 15h31.54.091276 +0200,
12.5,ecc0,mid,50,0,50,j,0,2.2045890999979747,None,0,1,1,1,50,0,50,0,340.99429370000144,,,,,,,,,,,,,,,340.9830623000016,340.99429370000144,341.8055241000002,340.99429370000144,340.99429370000144,343.20599890000085,j,0,2.2045890999979747,None,right,3,"[20, 19, 20, 18, 19, 18, 20, 19, 20, 19, 20, 16, 17, 14, 15, 9, 10, 9, 10, 7, 8, 4, 7, 6, 7, 3]",26,gaze_R_3.png,j,0,2,results7,001,2026-04-13_15h31.53.837,mogelijke versie adaptive staircase builder,,2026.1.3,60.026063316431014,2026-04-13 15h31.54.091276 +0200,
12.5,ecc0,mid,51,0,51,f,1,2.7272767999966163,None,0,1,1,1,51,0,51,0,343.3915417999997,,,,,,,,,,,,,,,343.3805739999989,343.3915417999997,344.2057562000009,343.3915417999997,343.3915417999997,346.12263170000006,f,1,2.7272767999966163,None,left,4,"[20, 19, 20, 18, 19, 18, 20, 19, 20, 19, 20, 16, 17, 14, 15, 9, 10, 9, 10, 7, 8, 4, 7, 6, 7, 3, 4]",27,gaze_L_4.png,f,1,2,results7,001,2026-04-13_15h31.53.837,mogelijke versie adaptive staircase builder,,2026.1.3,60.026063316431014,2026-04-13 15h31.54.091276 +0200,
12.5,ecc0,mid,52,0,52,f,1,2.8305879999970784,None,0,1,1,1,52,0,52,0,346.2161230999991,,,,,,,,,,,,,,,346.204875899999,346.2161230999991,347.12200909999956,346.2161230999991,346.2161230999991,349.0559471000015,f,1,2.8305879999970784,None,right,3,"[20, 19, 20, 18, 19, 18, 20, 19, 20, 19, 20, 16, 17, 14, 15, 9, 10, 9, 10, 7, 8, 4, 7, 6, 7, 3, 4]",27,gaze_R_3.png,f,1,2,results7,001,2026-04-13_15h31.53.837,mogelijke versie adaptive staircase builder,,2026.1.3,60.026063316431014,2026-04-13 15h31.54.091276 +0200,
12.5,ecc0,mid,53,0,53,j,1,2.9227972000007867,None,0,1,1,1,53,0,53,0,349.148208300001,,,,,,,,,,,,,,,349.1377413000009,349.148208300001,350.05554870000196,349.148208300001,349.148208300001,352.0724517000017,j,1,2.9227972000007867,None,direct,2,"[20, 19, 20, 18, 19, 18, 20, 19, 20, 19, 20, 16, 17, 14, 15, 9, 10, 9, 10, 7, 8, 4, 7, 6, 7, 3, 4]",27,direct_gaze.png,j,1,2,results7,001,2026-04-13_15h31.53.837,mogelijke versie adaptive staircase builder,,2026.1.3,60.026063316431014,2026-04-13 15h31.54.091276 +0200,
12.5,ecc0,mid,54,0,54,j,0,1.1601032999969902,None,0,1,1,1,54,0,54,0,353.1267480000024,,,,,,,,,,,,,,,353.11446960000103,353.1267480000024,353.1267480000024,353.1267480000024,353.1267480000024,354.28897470000084,j,0,1.1601032999969902,None,left,1,"[20, 19, 20, 18, 19, 18, 20, 19, 20, 19, 20, 16, 17, 14, 15, 9, 10, 9, 10, 7, 8, 4, 7, 6, 7, 3, 4, 1]",28,gaze_L_1.png,j,0,2,results7,001,2026-04-13_15h31.53.837,mogelijke versie adaptive staircase builder,,2026.1.3,60.026063316431014,2026-04-13 15h31.54.091276 +0200,
12.5,ecc0,mid,55,0,55,f,1,2.298088999999891,None,0,1,1,1,55,0,55,0,354.46864130000176,,,,,,,,,,,,,,,354.4578638000021,354.46864130000176,355.28863490000003,354.46864130000176,354.46864130000176,356.77235389999987,f,1,2.298088999999891,None,right,2,"[20, 19, 20, 18, 19, 18, 20, 19, 20, 19, 20, 16, 17, 14, 15, 9, 10, 9, 10, 7, 8, 4, 7, 6, 7, 3, 4, 1, 2]",29,gaze_R_2.png,f,1,2,results7,001,2026-04-13_15h31.53.837,mogelijke versie adaptive staircase builder,,2026.1.3,60.026063316431014,2026-04-13 15h31.54.091276 +0200,
12.5,ecc0,mid,56,0,56,j,1,2.758914800000639,None,0,1,1,1,56,0,56,0,356.8640688000014,,,,,,,,,,,,,,,356.8531991999989,356.8640688000014,357.771981599999,356.8640688000014,356.8640688000014,359.63896880000175,j,1,2.758914800000639,None,direct,1,"[20, 19, 20, 18, 19, 18, 20, 19, 20, 19, 20, 16, 17, 14, 15, 9, 10, 9, 10, 7, 8, 4, 7, 6, 7, 3, 4, 1, 2]",29,direct_gaze.png,j,1,2,results7,001,2026-04-13_15h31.53.837,mogelijke versie adaptive staircase builder,,2026.1.3,60.026063316431014,2026-04-13 15h31.54.091276 +0200,
12.5,ecc0,mid,57,0,57,j,0,2.7587817999992694,None,0,1,1,1,57,0,57,0,359.7280231000004,,,,,,,,,,,,,,,359.716670400001,359.7280231000004,360.6384407000005,359.7280231000004,359.7280231000004,362.48911950000183,j,0,2.7587817999992694,None,left,1,"[20, 19, 20, 18, 19, 18, 20, 19, 20, 19, 20, 16, 17, 14, 15, 9, 10, 9, 10, 7, 8, 4, 7, 6, 7, 3, 4, 1, 2, 0]",30,gaze_L_1.png,j,0,2,results7,001,2026-04-13_15h31.53.837,mogelijke versie adaptive staircase builder,,2026.1.3,60.026063316431014,2026-04-13 15h31.54.091276 +0200,
12.5,ecc0,mid,58,0,58,f,1,2.1093359000005876,None,0,1,1,1,58,0,58,0,362.5773945000001,,,,,,,,,,,,,,,362.5665943000022,362.5773945000001,363.4887309000005,362.5773945000001,362.5773945000001,364.68895429999975,f,1,2.1093359000005876,None,left,1,"[20, 19, 20, 18, 19, 18, 20, 19, 20, 19, 20, 16, 17, 14, 15, 9, 10, 9, 10, 7, 8, 4, 7, 6, 7, 3, 4, 1, 2, 0, 1]",31,gaze_L_1.png,f,1,2,results7,001,2026-04-13_15h31.53.837,mogelijke versie adaptive staircase builder,,2026.1.3,60.026063316431014,2026-04-13 15h31.54.091276 +0200,
12.5,ecc0,mid,59,0,59,f,0,2.264222800000425,None,0,1,1,1,59,0,59,0,364.782559700001,,,,,,,,,,,,,,,364.77128509999966,364.782559700001,365.68850400000156,364.782559700001,364.782559700001,367.05551950000154,f,0,2.264222800000425,None,direct,1,"[20, 19, 20, 18, 19, 18, 20, 19, 20, 19, 20, 16, 17, 14, 15, 9, 10, 9, 10, 7, 8, 4, 7, 6, 7, 3, 4, 1, 2, 0, 1, 0]",32,direct_gaze.png,f,0,2,results7,001,2026-04-13_15h31.53.837,mogelijke versie adaptive staircase builder,,2026.1.3,60.026063316431014,2026-04-13 15h31.54.091276 +0200,
12.5,ecc0,mid,1,1,0,,,,,0,1,1,1,,,,,,,,,,,,,,,,,,,,,,,,,,,,,,,,,,,,,,results7,001,2026-04-13_15h31.53.837,mogelijke versie adaptive staircase builder,,2026.1.3,60.026063316431014,2026-04-13 15h31.54.091276 +0200,
20.5,ecc10neg,right,0,0,0,f,0,4.2214973000009195,None,0,2,2,2,0,0,0,0,367.1533187000023,,,,,,,,,,,,,367.05862759999945,367.0586695999991,367.14204339999924,367.1533187000023,367.1533187000023,368.07280360000004,367.1533187000023,371.38896939999904,f,0,4.2214973000009195,None,direct,20,[],0,shifteddirectgaze.png,f,0,3,results7,001,2026-04-13_15h31.53.837,mogelijke versie adaptive staircase builder,,2026.1.3,60.026063316431014,2026-04-13 15h31.54.091276 +0200,
20.5,ecc10neg,right,1,0,1,f,1,1.9570985999998811,None,0,2,2,2,1,0,1,0,371.6017878999992,,,,,,,,,,,,,,,371.58960060000027,371.6017878999992,371.6017878999992,372.3883839000009,371.6017878999992,373.57244600000195,f,1,1.9570985999998811,None,right,20,[20],1,shiftedgaze_R_20.png,f,1,3,results7,001,2026-04-13_15h31.53.837,mogelijke versie adaptive staircase builder,,2026.1.3,60.026063316431014,2026-04-13 15h31.54.091276 +0200,
20.5,ecc10neg,right,2,0,2,j,1,1.7777385999979742,None,0,2,2,2,2,0,2,0,373.6850326999993,,,,,,,,,,,,,,,373.6735043000008,373.6850326999993,373.6850326999993,374.57175520000237,373.6850326999993,375.4720806000005,j,1,1.7777385999979742,None,direct,19,[20],1,shifteddirectgaze.png,j,1,3,results7,001,2026-04-13_15h31.53.837,mogelijke versie adaptive staircase builder,,2026.1.3,60.026063316431014,2026-04-13 15h31.54.091276 +0200,
20.5,ecc10neg,right,3,0,3,f,0,1.9458454000014171,None,0,2,2,2,3,0,3,0,375.56490080000003,,,,,,,,,,,,,,,375.55355710000003,375.56490080000003,375.56490080000003,376.4716327999995,375.56490080000003,377.52213590000247,f,0,1.9458454000014171,None,direct,18,"[20, 18]",2,shifteddirectgaze.png,f,0,3,results7,001,2026-04-13_15h31.53.837,mogelijke versie adaptive staircase builder,,2026.1.3,60.026063316431014,2026-04-13 15h31.54.091276 +0200,
20.5,ecc10neg,right,4,0,4,f,0,1.8958620999983395,None,0,2,2,2,4,0,4,0,377.6149479000014,,,,,,,,,,,,,,,377.604353900002,377.6149479000014,377.6149479000014,378.52160430000004,377.6149479000014,379.5222720999991,f,0,1.8958620999983395,None,direct,19,"[20, 18]",2,shifteddirectgaze.png,f,0,3,results7,001,2026-04-13_15h31.53.837,mogelijke versie adaptive staircase builder,,2026.1.3,60.026063316431014,2026-04-13 15h31.54.091276 +0200,
20.5,ecc10neg,right,5,0,5,f,1,2.1035518999997294,None,0,2,2,2,5,0,5,0,379.63925609999933,,,,,,,,,,,,,,,379.6277967999995,379.63925609999933,379.63925609999933,380.52208729999984,379.63925609999933,381.7555754999994,f,1,2.1035518999997294,None,right,20,"[20, 18, 20]",3,shiftedgaze_R_20.png,f,1,3,results7,001,2026-04-13_15h31.53.837,mogelijke versie adaptive staircase builder,,2026.1.3,60.026063316431014,2026-04-13 15h31.54.091276 +0200,
20.5,ecc10neg,right,6,0,6,j,0,2.871959899999638,None,0,2,2,2,6,0,6,0,381.95894810000027,,,,,,,,,,,,,,,381.9476728000009,381.95894810000027,381.95894810000027,382.75497299999915,381.95894810000027,384.8388672000001,j,0,2.871959899999638,None,left,19,"[20, 18, 20, 19]",4,shiftedgaze_L_19.png,j,0,3,results7,001,2026-04-13_15h31.53.837,mogelijke versie adaptive staircase builder,,2026.1.3,60.026063316431014,2026-04-13 15h31.54.091276 +0200,
20.5,ecc10neg,right,7,0,7,j,1,2.281497700001637,None,0,2,2,2,7,0,7,0,384.9332073000005,,,,,,,,,,,,,,,384.9220430999994,384.9332073000005,384.9332073000005,385.8382167000018,384.9332073000005,387.2218782000018,j,1,2.281497700001637,None,direct,20,"[20, 18, 20, 19, 20]",5,shifteddirectgaze.png,j,1,3,results7,001,2026-04-13_15h31.53.837,mogelijke versie adaptive staircase builder,,2026.1.3,60.026063316431014,2026-04-13 15h31.54.091276 +0200,
20.5,ecc10neg,right,8,0,8,j,1,2.2579925999998522,None,0,2,2,2,8,0,8,0,387.3168007999993,,,,,,,,,,,,,,,387.3063370999989,387.3168007999993,387.3168007999993,388.2216378000012,387.3168007999993,389.58844180000233,j,1,2.2579925999998522,None,direct,19,"[20, 18, 20, 19, 20]",5,shifteddirectgaze.png,j,1,3,results7,001,2026-04-13_15h31.53.837,mogelijke versie adaptive staircase builder,,2026.1.3,60.026063316431014,2026-04-13 15h31.54.091276 +0200,
20.5,ecc10neg,right,9,0,9,f,0,3.0686798999995517,None,0,2,2,2,9,0,9,0,389.682040300002,,,,,,,,,,,,,,,389.67185830000017,389.682040300002,389.682040300002,390.58822130000044,389.682040300002,392.7548114000019,f,0,3.0686798999995517,None,direct,18,"[20, 18, 20, 19, 20, 18]",6,shifteddirectgaze.png,f,0,3,results7,001,2026-04-13_15h31.53.837,mogelijke versie adaptive staircase builder,,2026.1.3,60.026063316431014,2026-04-13 15h31.54.091276 +0200,
20.5,ecc10neg,right,10,0,10,f,0,2.4695524999988265,None,0,2,2,2,10,0,10,0,392.8493813000023,,,,,,,,,,,,,,,392.8374380999994,392.8493813000023,392.8493813000023,393.75467539999954,392.8493813000023,395.3226152999996,f,0,2.4695524999988265,None,direct,19,"[20, 18, 20, 19, 20, 18]",6,shifteddirectgaze.png,f,0,3,results7,001,2026-04-13_15h31.53.837,mogelijke versie adaptive staircase builder,,2026.1.3,60.026063316431014,2026-04-13 15h31.54.091276 +0200,
20.5,ecc10neg,right,11,0,11,f,1,2.103433699998277,None,0,2,2,2,11,0,11,0,395.4394762000011,,,,,,,,,,,,,,,395.42790120000063,395.4394762000011,395.4394762000011,396.33807330000127,395.4394762000011,397.55540910000127,f,1,2.103433699998277,None,right,20,"[20, 18, 20, 19, 20, 18, 20]",7,shiftedgaze_R_20.png,f,1,3,results7,001,2026-04-13_15h31.53.837,mogelijke versie adaptive staircase builder,,2026.1.3,60.026063316431014,2026-04-13 15h31.54.091276 +0200,
20.5,ecc10neg,right,12,0,12,f,1,2.1928814000020793,None,0,2,2,2,12,0,12,0,397.74993630000245,,,,,,,,,,,,,,,397.73903659999996,397.74993630000245,397.74993630000245,398.55468889999975,397.74993630000245,399.9550554000016,f,1,2.1928814000020793,None,right,19,"[20, 18, 20, 19, 20, 18, 20]",7,shiftedgaze_R_19.png,f,1,3,results7,001,2026-04-13_15h31.53.837,mogelijke versie adaptive staircase builder,,2026.1.3,60.026063316431014,2026-04-13 15h31.54.091276 +0200,
20.5,ecc10neg,right,13,0,13,f,1,2.0359301999997115,None,0,2,2,2,13,0,13,0,400.13898600000175,,,,,,,,,,,,,,,400.12818719999996,400.13898600000175,400.13898600000175,400.9555349000002,400.13898600000175,402.18850250000105,f,1,2.0359301999997115,None,right,18,"[20, 18, 20, 19, 20, 18, 20]",7,shiftedgaze_R_18.png,f,1,3,results7,001,2026-04-13_15h31.53.837,mogelijke versie adaptive staircase builder,,2026.1.3,60.026063316431014,2026-04-13 15h31.54.091276 +0200,
20.5,ecc10neg,right,14,0,14,f,1,2.1252270999975735,None,0,2,2,2,14,0,14,0,402.38573299999916,,,,,,,,,,,,,,,402.37415390000024,402.38573299999916,402.38573299999916,403.18808799999897,402.38573299999916,404.52230620000046,f,1,2.1252270999975735,None,right,17,"[20, 18, 20, 19, 20, 18, 20]",7,shiftedgaze_R_17.png,f,1,3,results7,001,2026-04-13_15h31.53.837,mogelijke versie adaptive staircase builder,,2026.1.3,60.026063316431014,2026-04-13 15h31.54.091276 +0200,
20.5,ecc10neg,right,15,0,15,j,0,4.211359300003096,None,0,2,2,2,15,0,15,0,404.72353139999905,,,,,,,,,,,,,,,404.71277570000166,404.72353139999905,404.72353139999905,405.53794800000105,404.72353139999905,408.93840510000155,j,0,4.211359300003096,None,left,16,"[20, 18, 20, 19, 20, 18, 20, 16]",8,shiftedgaze_L_16.png,j,0,3,results7,001,2026-04-13_15h31.53.837,mogelijke versie adaptive staircase builder,,2026.1.3,60.026063316431014,2026-04-13 15h31.54.091276 +0200,
20.5,ecc10neg,right,16,0,16,f,1,2.4507733000027656,None,0,2,2,2,16,0,16,0,409.11610160000055,,,,,,,,,,,,,,,409.10503170000084,409.11610160000055,409.11610160000055,409.9378993999999,409.11610160000055,411.57173390000025,f,1,2.4507733000027656,None,left,17,"[20, 18, 20, 19, 20, 18, 20, 16, 17]",9,shiftedgaze_L_17.png,f,1,3,results7,001,2026-04-13_15h31.53.837,mogelijke versie adaptive staircase builder,,2026.1.3,60.026063316431014,2026-04-13 15h31.54.091276 +0200,
20.5,ecc10neg,right,17,0,17,f,1,2.9744497000028787,None,0,2,2,2,17,0,17,0,411.78441980000207,,,,,,,,,,,,,,,411.77138090000153,411.78441980000207,411.78441980000207,412.57132769999953,411.78441980000207,414.7714706000006,f,1,2.9744497000028787,None,right,16,"[20, 18, 20, 19, 20, 18, 20, 16, 17]",9,shiftedgaze_R_16.png,f,1,3,results7,001,2026-04-13_15h31.53.837,mogelijke versie adaptive staircase builder,,2026.1.3,60.026063316431014,2026-04-13 15h31.54.091276 +0200,
20.5,ecc10neg,right,18,0,18,j,0,2.033260299998801,None,0,2,2,2,18,0,18,0,414.97358910000185,,,,,,,,,,,,,,,414.9621549000003,414.97358910000185,414.97358910000185,415.771128700002,414.97358910000185,417.0215362000017,j,0,2.033260299998801,None,left,15,"[20, 18, 20, 19, 20, 18, 20, 16, 17, 15]",10,shiftedgaze_L_15.png,j,0,3,results7,001,2026-04-13_15h31.53.837,mogelijke versie adaptive staircase builder,,2026.1.3,60.026063316431014,2026-04-13 15h31.54.091276 +0200,
20.5,ecc10neg,right,19,0,19,f,0,2.8638442999981635,None,0,2,2,2,19,0,19,0,417.1109370000013,,,,,,,,,,,,,,,417.100188299999,417.1109370000013,417.1109370000013,418.02112750000015,417.1109370000013,419.9880548000001,f,0,2.8638442999981635,None,direct,16,"[20, 18, 20, 19, 20, 18, 20, 16, 17, 15]",10,shifteddirectgaze.png,f,0,3,results7,001,2026-04-13_15h31.53.837,mogelijke versie adaptive staircase builder,,2026.1.3,60.026063316431014,2026-04-13 15h31.54.091276 +0200,
20.5,ecc10neg,right,20,0,20,j,1,4.646965699997963,None,0,2,2,2,20,0,20,0,420.07974900000045,,,,,,,,,,,,,,,420.06869820000065,420.07974900000045,420.07974900000045,420.9881967000001,420.07974900000045,424.73805220000213,j,1,4.646965699997963,None,direct,17,"[20, 18, 20, 19, 20, 18, 20, 16, 17, 15, 17]",11,shifteddirectgaze.png,j,1,3,results7,001,2026-04-13_15h31.53.837,mogelijke versie adaptive staircase builder,,2026.1.3,60.026063316431014,2026-04-13 15h31.54.091276 +0200,
20.5,ecc10neg,right,21,0,21,f,1,2.062541199997213,None,0,2,2,2,21,0,21,0,424.856231400001,,,,,,,,,,,,,,,424.8447245999996,424.856231400001,424.856231400001,425.7377713999995,424.856231400001,426.92139490000045,f,1,2.062541199997213,None,right,16,"[20, 18, 20, 19, 20, 18, 20, 16, 17, 15, 17]",11,shiftedgaze_R_16.png,f,1,3,results7,001,2026-04-13_15h31.53.837,mogelijke versie adaptive staircase builder,,2026.1.3,60.026063316431014,2026-04-13 15h31.54.091276 +0200,
20.5,ecc10neg,right,22,0,22,j,0,2.3366327000003366,None,0,2,2,2,22,0,22,0,427.03021459999945,,,,,,,,,,,,,,,427.0192437000005,427.03021459999945,427.03021459999945,427.9210665999999,427.03021459999945,429.3712015000019,j,0,2.3366327000003366,None,left,15,"[20, 18, 20, 19, 20, 18, 20, 16, 17, 15, 17, 15]",12,shiftedgaze_L_15.png,j,0,3,results7,001,2026-04-13_15h31.53.837,mogelijke versie adaptive staircase builder,,2026.1.3,60.026063316431014,2026-04-13 15h31.54.091276 +0200,
20.5,ecc10neg,right,23,0,23,j,0,2.2248848999988695,None,0,2,2,2,23,0,23,0,429.4618253000008,,,,,,,,,,,,,,,429.450846300002,429.4618253000008,429.4618253000008,430.370954500002,429.4618253000008,431.6878701000023,j,0,2.2248848999988695,None,left,16,"[20, 18, 20, 19, 20, 18, 20, 16, 17, 15, 17, 15]",12,shiftedgaze_L_16.png,j,0,3,results7,001,2026-04-13_15h31.53.837,mogelijke versie adaptive staircase builder,,2026.1.3,60.026063316431014,2026-04-13 15h31.54.091276 +0200,
20.5,ecc10neg,right,24,0,24,f,1,2.025958099999116,None,0,2,2,2,24,0,24,0,431.8048103000001,,,,,,,,,,,,,,,431.7930765000019,431.8048103000001,431.8048103000001,432.6875203999989,431.8048103000001,433.8379074000004,f,1,2.025958099999116,None,right,17,"[20, 18, 20, 19, 20, 18, 20, 16, 17, 15, 17, 15, 17]",13,shiftedgaze_R_17.png,f,1,3,results7,001,2026-04-13_15h31.53.837,mogelijke versie adaptive staircase builder,,2026.1.3,60.026063316431014,2026-04-13 15h31.54.091276 +0200,
20.5,ecc10neg,right,25,0,25,j,1,2.005101900002046,None,0,2,2,2,25,0,25,0,433.9456186999996,,,,,,,,,,,,,,,433.93414870000197,433.9456186999996,433.9456186999996,434.83741440000085,433.9456186999996,435.95456510000076,j,1,2.005101900002046,None,direct,16,"[20, 18, 20, 19, 20, 18, 20, 16, 17, 15, 17, 15, 17]",13,shifteddirectgaze.png,j,1,3,results7,001,2026-04-13_15h31.53.837,mogelijke versie adaptive staircase builder,,2026.1.3,60.026063316431014,2026-04-13 15h31.54.091276 +0200,
20.5,ecc10neg,right,26,0,26,f,0,3.762617300002603,None,0,2,2,2,26,0,26,0,436.04407920000085,,,,,,,,,,,,,,,436.03338200000144,436.04407920000085,436.04407920000085,436.95435609999913,436.04407920000085,439.82115630000044,f,0,3.762617300002603,None,direct,15,"[20, 18, 20, 19, 20, 18, 20, 16, 17, 15, 17, 15, 17, 15]",14,shifteddirectgaze.png,f,0,3,results7,001,2026-04-13_15h31.53.837,mogelijke versie adaptive staircase builder,,2026.1.3,60.026063316431014,2026-04-13 15h31.54.091276 +0200,
20.5,ecc10neg,right,27,0,27,f,1,2.4148056999983964,None,0,2,2,2,27,0,27,0,439.9359664000003,,,,,,,,,,,,,,,439.92455490000066,439.9359664000003,439.9359664000003,440.82076830000005,439.9359664000003,442.354471300001,f,1,2.4148056999983964,None,right,16,"[20, 18, 20, 19, 20, 18, 20, 16, 17, 15, 17, 15, 17, 15, 16]",15,shiftedgaze_R_16.png,f,1,3,results7,001,2026-04-13_15h31.53.837,mogelijke versie adaptive staircase builder,,2026.1.3,60.026063316431014,2026-04-13 15h31.54.091276 +0200,
20.5,ecc10neg,right,28,0,28,f,1,2.4699185000026773,None,0,2,2,2,28,0,28,0,442.56095520000235,,,,,,,,,,,,,,,442.5493126000001,442.56095520000235,442.56095520000235,443.3541523999993,442.56095520000235,445.03786369999943,f,1,2.4699185000026773,None,right,15,"[20, 18, 20, 19, 20, 18, 20, 16, 17, 15, 17, 15, 17, 15, 16]",15,shiftedgaze_R_15.png,f,1,3,results7,001,2026-04-13_15h31.53.837,mogelijke versie adaptive staircase builder,,2026.1.3,60.026063316431014,2026-04-13 15h31.54.091276 +0200,
20.5,ecc10neg,right,29,0,29,j,0,2.0587764000010793,None,0,2,2,2,29,0,29,0,445.2199944000022,,,,,,,,,,,,,,,445.2093539000016,445.2199944000022,445.2199944000022,446.03732949999903,445.2199944000022,447.28772310000204,j,0,2.0587764000010793,None,left,14,"[20, 18, 20, 19, 20, 18, 20, 16, 17, 15, 17, 15, 17, 15, 16, 14]",16,shiftedgaze_L_14.png,j,0,3,results7,001,2026-04-13_15h31.53.837,mogelijke versie adaptive staircase builder,,2026.1.3,60.026063316431014,2026-04-13 15h31.54.091276 +0200,
20.5,ecc10neg,right,30,0,30,f,0,1.8448852999972587,None,0,2,2,2,30,0,30,0,447.37781910000194,,,,,,,,,,,,,,,447.36701430000176,447.37781910000194,447.37781910000194,448.28718110000045,447.37781910000194,449.2376144000009,f,0,1.8448852999972587,None,direct,15,"[20, 18, 20, 19, 20, 18, 20, 16, 17, 15, 17, 15, 17, 15, 16, 14]",16,shifteddirectgaze.png,f,0,3,results7,001,2026-04-13_15h31.53.837,mogelijke versie adaptive staircase builder,,2026.1.3,60.026063316431014,2026-04-13 15h31.54.091276 +0200,
20.5,ecc10neg,right,31,0,31,j,0,2.102314900002966,None,0,2,2,2,31,0,31,0,449.3286470000021,,,,,,,,,,,,,,,449.31811369999923,449.3286470000021,449.3286470000021,450.2372185999993,449.3286470000021,451.43756869999925,j,0,2.102314900002966,None,left,16,"[20, 18, 20, 19, 20, 18, 20, 16, 17, 15, 17, 15, 17, 15, 16, 14]",16,shiftedgaze_L_16.png,j,0,3,results7,001,2026-04-13_15h31.53.837,mogelijke versie adaptive staircase builder,,2026.1.3,60.026063316431014,2026-04-13 15h31.54.091276 +0200,
20.5,ecc10neg,right,32,0,32,f,1,1.9818353000009665,None,0,2,2,2,32,0,32,0,451.5529787000014,,,,,,,,,,,,,,,451.5413757999995,451.5529787000014,451.5529787000014,452.4372746000008,451.5529787000014,453.5376111000005,f,1,1.9818353000009665,None,right,17,"[20, 18, 20, 19, 20, 18, 20, 16, 17, 15, 17, 15, 17, 15, 16, 14, 17]",17,shiftedgaze_R_17.png,f,1,3,results7,001,2026-04-13_15h31.53.837,mogelijke versie adaptive staircase builder,,2026.1.3,60.026063316431014,2026-04-13 15h31.54.091276 +0200,
20.5,ecc10neg,right,33,0,33,j,1,2.0449547999996867,None,0,2,2,2,33,0,33,0,453.64980429999923,,,,,,,,,,,,,,,453.6373386000014,453.64980429999923,453.64980429999923,454.5373992999994,453.64980429999923,455.7043354000016,j,1,2.0449547999996867,None,direct,16,"[20, 18, 20, 19, 20, 18, 20, 16, 17, 15, 17, 15, 17, 15, 16, 14, 17]",17,shifteddirectgaze.png,j,1,3,results7,001,2026-04-13_15h31.53.837,mogelijke versie adaptive staircase builder,,2026.1.3,60.026063316431014,2026-04-13 15h31.54.091276 +0200,
20.5,ecc10neg,right,34,0,34,j,0,2.101431200000661,None,0,2,2,2,34,0,34,0,455.7933843999999,,,,,,,,,,,,,,,455.78252789999897,455.7933843999999,455.7933843999999,456.7040033000012,455.7933843999999,457.9043997000008,j,0,2.101431200000661,None,left,15,"[20, 18, 20, 19, 20, 18, 20, 16, 17, 15, 17, 15, 17, 15, 16, 14, 17, 15]",18,shiftedgaze_L_15.png,j,0,3,results7,001,2026-04-13_15h31.53.837,mogelijke versie adaptive staircase builder,,2026.1.3,60.026063316431014,2026-04-13 15h31.54.091276 +0200,
20.5,ecc10neg,right,35,0,35,j,1,2.4364524999982677,None,0,2,2,2,35,0,35,0,457.9943134999994,,,,,,,,,,,,,,,457.98361470000236,457.9943134999994,457.9943134999994,458.90378580000106,457.9943134999994,460.4374699,j,1,2.4364524999982677,None,direct,16,"[20, 18, 20, 19, 20, 18, 20, 16, 17, 15, 17, 15, 17, 15, 16, 14, 17, 15, 16]",19,shifteddirectgaze.png,j,1,3,results7,001,2026-04-13_15h31.53.837,mogelijke versie adaptive staircase builder,,2026.1.3,60.026063316431014,2026-04-13 15h31.54.091276 +0200,
20.5,ecc10neg,right,36,0,36,j,0,2.6948831000008795,None,0,2,2,2,36,0,36,0,460.527879199999,,,,,,,,,,,,,,,460.5166721000023,460.527879199999,460.527879199999,461.43711220000114,460.527879199999,463.2375131000008,j,0,2.6948831000008795,None,left,15,"[20, 18, 20, 19, 20, 18, 20, 16, 17, 15, 17, 15, 17, 15, 16, 14, 17, 15, 16, 15]",20,shiftedgaze_L_15.png,j,0,3,results7,001,2026-04-13_15h31.53.837,mogelijke versie adaptive staircase builder,,2026.1.3,60.026063316431014,2026-04-13 15h31.54.091276 +0200,
20.5,ecc10neg,right,37,0,37,f,1,2.1806298999981664,None,0,2,2,2,37,0,37,0,463.35417919999963,,,,,,,,,,,,,,,463.3426318999991,463.35417919999963,463.35417919999963,464.23713510000016,463.35417919999963,465.5373428000021,f,1,2.1806298999981664,None,right,16,"[20, 18, 20, 19, 20, 18, 20, 16, 17, 15, 17, 15, 17, 15, 16, 14, 17, 15, 16, 15, 16]",21,shiftedgaze_R_16.png,f,1,3,results7,001,2026-04-13_15h31.53.837,mogelijke versie adaptive staircase builder,,2026.1.3,60.026063316431014,2026-04-13 15h31.54.091276 +0200,
20.5,ecc10neg,right,38,0,38,j,0,3.152165999999852,None,0,2,2,2,38,0,38,0,465.6465496000019,,,,,,,,,,,,,,,465.63553669999965,465.6465496000019,465.6465496000019,466.53693940000085,465.6465496000019,468.80408969999917,j,0,3.152165999999852,None,left,15,"[20, 18, 20, 19, 20, 18, 20, 16, 17, 15, 17, 15, 17, 15, 16, 14, 17, 15, 16, 15, 16, 15]",22,shiftedgaze_L_15.png,j,0,3,results7,001,2026-04-13_15h31.53.837,mogelijke versie adaptive staircase builder,,2026.1.3,60.026063316431014,2026-04-13 15h31.54.091276 +0200,
20.5,ecc10neg,right,39,0,39,f,1,1.8337074999981269,None,0,2,2,2,39,0,39,0,468.9169980000006,,,,,,,,,,,,,,,468.90510930000164,468.9169980000006,468.9169980000006,469.8037643000025,468.9169980000006,470.7539864999999,f,1,1.8337074999981269,None,right,16,"[20, 18, 20, 19, 20, 18, 20, 16, 17, 15, 17, 15, 17, 15, 16, 14, 17, 15, 16, 15, 16, 15, 16]",23,shiftedgaze_R_16.png,f,1,3,results7,001,2026-04-13_15h31.53.837,mogelijke versie adaptive staircase builder,,2026.1.3,60.026063316431014,2026-04-13 15h31.54.091276 +0200,
20.5,ecc10neg,right,40,0,40,j,0,1.592639300000883,None,0,2,2,2,40,0,40,0,470.86211170000024,,,,,,,,,,,,,,,470.85119660000055,470.86211170000024,470.86211170000024,471.7536018999999,470.86211170000024,472.4705926000024,j,0,1.592639300000883,None,left,15,"[20, 18, 20, 19, 20, 18, 20, 16, 17, 15, 17, 15, 17, 15, 16, 14, 17, 15, 16, 15, 16, 15, 16, 15]",24,shiftedgaze_L_15.png,j,0,3,results7,001,2026-04-13_15h31.53.837,mogelijke versie adaptive staircase builder,,2026.1.3,60.026063316431014,2026-04-13 15h31.54.091276 +0200,
20.5,ecc10neg,right,41,0,41,f,0,1.9998066999978619,None,0,2,2,2,41,0,41,0,472.5590212999996,,,,,,,,,,,,,,,472.54822550000245,472.5590212999996,472.5590212999996,473.4704066000013,472.5590212999996,474.57065109999894,f,0,1.9998066999978619,None,direct,16,"[20, 18, 20, 19, 20, 18, 20, 16, 17, 15, 17, 15, 17, 15, 16, 14, 17, 15, 16, 15, 16, 15, 16, 15]",24,shifteddirectgaze.png,f,0,3,results7,001,2026-04-13_15h31.53.837,mogelijke versie adaptive staircase builder,,2026.1.3,60.026063316431014,2026-04-13 15h31.54.091276 +0200,
20.5,ecc10neg,right,42,0,42,f,1,3.2907947999992757,None,0,2,2,2,42,0,42,0,474.65997210000205,,,,,,,,,,,,,,,474.6486827000008,474.65997210000205,474.65997210000205,475.5703319999993,474.65997210000205,477.9538906000016,f,1,3.2907947999992757,None,left,17,"[20, 18, 20, 19, 20, 18, 20, 16, 17, 15, 17, 15, 17, 15, 16, 14, 17, 15, 16, 15, 16, 15, 16, 15, 17]",25,shiftedgaze_L_17.png,f,1,3,results7,001,2026-04-13_15h31.53.837,mogelijke versie adaptive staircase builder,,2026.1.3,60.026063316431014,2026-04-13 15h31.54.091276 +0200,
20.5,ecc10neg,right,43,0,43,f,0,2.1919660000021395,None,0,2,2,2,43,0,43,0,478.07869070000015,,,,,,,,,,,,,,,478.03218059999926,478.07869070000015,478.07869070000015,478.9535539999997,478.07869070000015,480.28721980000046,f,0,2.1919660000021395,None,direct,16,"[20, 18, 20, 19, 20, 18, 20, 16, 17, 15, 17, 15, 17, 15, 16, 14, 17, 15, 16, 15, 16, 15, 16, 15, 17, 16]",26,shifteddirectgaze.png,f,0,3,results7,001,2026-04-13_15h31.53.837,mogelijke versie adaptive staircase builder,,2026.1.3,60.026063316431014,2026-04-13 15h31.54.091276 +0200,
20.5,ecc10neg,right,44,0,44,j,1,2.387208299998747,None,0,2,2,2,44,0,44,0,480.37951729999986,,,,,,,,,,,,,,,480.36905879999904,480.37951729999986,480.37951729999986,481.2868488999993,480.37951729999986,482.7703594000013,j,1,2.387208299998747,None,direct,17,"[20, 18, 20, 19, 20, 18, 20, 16, 17, 15, 17, 15, 17, 15, 16, 14, 17, 15, 16, 15, 16, 15, 16, 15, 17, 16, 17]",27,shifteddirectgaze.png,j,1,3,results7,001,2026-04-13_15h31.53.837,mogelijke versie adaptive staircase builder,,2026.1.3,60.026063316431014,2026-04-13 15h31.54.091276 +0200,
20.5,ecc10neg,right,45,0,45,j,0,2.323480200000631,None,0,2,2,2,45,0,45,0,482.8593443999998,,,,,,,,,,,,,,,482.84849699999904,482.8593443999998,482.8593443999998,483.7700055000023,482.8593443999998,485.18722490000073,j,0,2.323480200000631,None,left,16,"[20, 18, 20, 19, 20, 18, 20, 16, 17, 15, 17, 15, 17, 15, 16, 14, 17, 15, 16, 15, 16, 15, 16, 15, 17, 16, 17, 16]",28,shiftedgaze_L_16.png,j,0,3,results7,001,2026-04-13_15h31.53.837,mogelijke versie adaptive staircase builder,,2026.1.3,60.026063316431014,2026-04-13 15h31.54.091276 +0200,
20.5,ecc10neg,right,46,0,46,j,0,1.9524285000006785,None,0,2,2,2,46,0,46,0,485.2782195,,,,,,,,,,,,,,,485.2670003000021,485.2782195,485.2782195,486.1866876999993,485.2782195,487.2370716000005,j,0,1.9524285000006785,None,left,17,"[20, 18, 20, 19, 20, 18, 20, 16, 17, 15, 17, 15, 17, 15, 16, 14, 17, 15, 16, 15, 16, 15, 16, 15, 17, 16, 17, 16]",28,shiftedgaze_L_17.png,j,0,3,results7,001,2026-04-13_15h31.53.837,mogelijke versie adaptive staircase builder,,2026.1.3,60.026063316431014,2026-04-13 15h31.54.091276 +0200,
20.5,ecc10neg,right,47,0,47,f,0,3.7435135999985505,None,0,2,2,2,47,0,47,0,487.3271726000021,,,,,,,,,,,,,,,487.3163511999992,487.3271726000021,487.3271726000021,488.2368043000024,487.3271726000021,491.0871737000016,f,0,3.7435135999985505,None,direct,18,"[20, 18, 20, 19, 20, 18, 20, 16, 17, 15, 17, 15, 17, 15, 16, 14, 17, 15, 16, 15, 16, 15, 16, 15, 17, 16, 17, 16]",28,shifteddirectgaze.png,f,0,3,results7,001,2026-04-13_15h31.53.837,mogelijke versie adaptive staircase builder,,2026.1.3,60.026063316431014,2026-04-13 15h31.54.091276 +0200,
20.5,ecc10neg,right,48,0,48,f,1,3.453926100002718,None,0,2,2,2,48,0,48,0,491.17705860000206,,,,,,,,,,,,,,,491.1655369,491.17705860000206,491.17705860000206,492.0867294999989,491.17705860000206,494.637039199999,f,1,3.453926100002718,None,left,19,"[20, 18, 20, 19, 20, 18, 20, 16, 17, 15, 17, 15, 17, 15, 16, 14, 17, 15, 16, 15, 16, 15, 16, 15, 17, 16, 17, 16, 19]",29,shiftedgaze_L_19.png,f,1,3,results7,001,2026-04-13_15h31.53.837,mogelijke versie adaptive staircase builder,,2026.1.3,60.026063316431014,2026-04-13 15h31.54.091276 +0200,
20.5,ecc10neg,right,49,0,49,j,0,1.7408546999977261,None,0,2,2,2,49,0,49,0,494.8178255000021,,,,,,,,,,,,,,,494.80765710000196,494.8178255000021,494.8178255000021,495.6366541000025,494.8178255000021,496.57055649999893,j,0,1.7408546999977261,None,left,18,"[20, 18, 20, 19, 20, 18, 20, 16, 17, 15, 17, 15, 17, 15, 16, 14, 17, 15, 16, 15, 16, 15, 16, 15, 17, 16, 17, 16, 19, 18]",30,shiftedgaze_L_18.png,j,0,3,results7,001,2026-04-13_15h31.53.837,mogelijke versie adaptive staircase builder,,2026.1.3,60.026063316431014,2026-04-13 15h31.54.091276 +0200,
20.5,ecc10neg,right,50,0,50,j,1,1.891049199999543,None,0,2,2,2,50,0,50,0,496.6596429000019,,,,,,,,,,,,,,,496.64847120000195,496.6596429000019,496.6596429000019,497.5697226000011,496.6596429000019,498.5537500999999,j,1,1.891049199999543,None,direct,19,"[20, 18, 20, 19, 20, 18, 20, 16, 17, 15, 17, 15, 17, 15, 16, 14, 17, 15, 16, 15, 16, 15, 16, 15, 17, 16, 17, 16, 19, 18, 19]",31,shifteddirectgaze.png,j,1,3,results7,001,2026-04-13_15h31.53.837,mogelijke versie adaptive staircase builder,,2026.1.3,60.026063316431014,2026-04-13 15h31.54.091276 +0200,
20.5,ecc10neg,right,51,0,51,f,1,1.9617576000018744,None,0,2,2,2,51,0,51,0,498.6690086000017,,,,,,,,,,,,,,,498.65724820000105,498.6690086000017,498.6690086000017,499.55333560000145,498.6690086000017,500.63689879999947,f,1,1.9617576000018744,None,right,18,"[20, 18, 20, 19, 20, 18, 20, 16, 17, 15, 17, 15, 17, 15, 16, 14, 17, 15, 16, 15, 16, 15, 16, 15, 17, 16, 17, 16, 19, 18, 19]",31,shiftedgaze_R_18.png,f,1,3,results7,001,2026-04-13_15h31.53.837,mogelijke versie adaptive staircase builder,,2026.1.3,60.026063316431014,2026-04-13 15h31.54.091276 +0200,
20.5,ecc10neg,right,52,0,52,f,1,2.0513551000003645,None,0,2,2,2,52,0,52,0,500.73135009999896,,,,,,,,,,,,,,,500.71952690000035,500.73135009999896,500.73135009999896,501.6367530999996,500.73135009999896,502.786873699999,f,1,2.0513551000003645,None,right,17,"[20, 18, 20, 19, 20, 18, 20, 16, 17, 15, 17, 15, 17, 15, 16, 14, 17, 15, 16, 15, 16, 15, 16, 15, 17, 16, 17, 16, 19, 18, 19]",31,shiftedgaze_R_17.png,f,1,3,results7,001,2026-04-13_15h31.53.837,mogelijke versie adaptive staircase builder,,2026.1.3,60.026063316431014,2026-04-13 15h31.54.091276 +0200,
20.5,ecc10neg,right,53,0,53,f,1,3.763876799999707,None,0,2,2,2,53,0,53,0,502.8907904000007,,,,,,,,,,,,,,,502.879785000001,502.8907904000007,502.8907904000007,503.7864178000018,502.8907904000007,506.6699532999992,f,1,3.763876799999707,None,left,16,"[20, 18, 20, 19, 20, 18, 20, 16, 17, 15, 17, 15, 17, 15, 16, 14, 17, 15, 16, 15, 16, 15, 16, 15, 17, 16, 17, 16, 19, 18, 19]",31,shiftedgaze_L_16.png,f,1,3,results7,001,2026-04-13_15h31.53.837,mogelijke versie adaptive staircase builder,,2026.1.3,60.026063316431014,2026-04-13 15h31.54.091276 +0200,
20.5,ecc10neg,right,54,0,54,j,1,2.078003400001762,None,0,2,2,2,54,0,54,0,506.7608696999996,,,,,,,,,,,,,,,506.74967019999895,506.7608696999996,506.7608696999996,507.66996819999986,506.7608696999996,508.8538585000024,j,1,2.078003400001762,None,direct,15,"[20, 18, 20, 19, 20, 18, 20, 16, 17, 15, 17, 15, 17, 15, 16, 14, 17, 15, 16, 15, 16, 15, 16, 15, 17, 16, 17, 16, 19, 18, 19]",31,shifteddirectgaze.png,j,1,3,results7,001,2026-04-13_15h31.53.837,mogelijke versie adaptive staircase builder,,2026.1.3,60.026063316431014,2026-04-13 15h31.54.091276 +0200,
20.5,ecc10neg,right,55,0,55,f,1,2.0328892000034102,None,0,2,2,2,55,0,55,0,509.0381324000009,,,,,,,,,,,,,,,509.0272177000006,509.0381324000009,509.0381324000009,509.8697452000015,509.0381324000009,511.0868221000019,f,1,2.0328892000034102,None,right,14,"[20, 18, 20, 19, 20, 18, 20, 16, 17, 15, 17, 15, 17, 15, 16, 14, 17, 15, 16, 15, 16, 15, 16, 15, 17, 16, 17, 16, 19, 18, 19]",31,shiftedgaze_R_14.png,f,1,3,results7,001,2026-04-13_15h31.53.837,mogelijke versie adaptive staircase builder,,2026.1.3,60.026063316431014,2026-04-13 15h31.54.091276 +0200,
20.5,ecc10neg,right,56,0,56,j,0,2.0735712999994576,None,0,2,2,2,56,0,56,0,511.26979890000075,,,,,,,,,,,,,,,511.25847839999915,511.26979890000075,511.26979890000075,512.0862731000016,511.26979890000075,513.3533607999998,j,0,2.0735712999994576,None,left,13,"[20, 18, 20, 19, 20, 18, 20, 16, 17, 15, 17, 15, 17, 15, 16, 14, 17, 15, 16, 15, 16, 15, 16, 15, 17, 16, 17, 16, 19, 18, 19, 13]",32,shiftedgaze_L_13.png,j,0,3,results7,001,2026-04-13_15h31.53.837,mogelijke versie adaptive staircase builder,,2026.1.3,60.026063316431014,2026-04-13 15h31.54.091276 +0200,
20.5,ecc10neg,right,57,0,57,f,1,1.9723894000017026,None,0,2,2,2,57,0,57,0,513.4423338000015,,,,,,,,,,,,,,,513.4320418999996,513.4423338000015,513.4423338000015,514.3536381000013,513.4423338000015,515.4199555000014,f,1,1.9723894000017026,None,right,14,"[20, 18, 20, 19, 20, 18, 20, 16, 17, 15, 17, 15, 17, 15, 16, 14, 17, 15, 16, 15, 16, 15, 16, 15, 17, 16, 17, 16, 19, 18, 19, 13, 14]",33,shiftedgaze_R_14.png,f,1,3,results7,001,2026-04-13_15h31.53.837,mogelijke versie adaptive staircase builder,,2026.1.3,60.026063316431014,2026-04-13 15h31.54.091276 +0200,
20.5,ecc10neg,right,58,0,58,f,1,2.482836099999986,None,0,2,2,2,58,0,58,0,515.5160099000022,,,,,,,,,,,,,,,515.5052295000023,515.5160099000022,515.5160099000022,516.4197005999995,515.5160099000022,518.0033624999996,f,1,2.482836099999986,None,left,13,"[20, 18, 20, 19, 20, 18, 20, 16, 17, 15, 17, 15, 17, 15, 16, 14, 17, 15, 16, 15, 16, 15, 16, 15, 17, 16, 17, 16, 19, 18, 19, 13, 14]",33,shiftedgaze_L_13.png,f,1,3,results7,001,2026-04-13_15h31.53.837,mogelijke versie adaptive staircase builder,,2026.1.3,60.026063316431014,2026-04-13 15h31.54.091276 +0200,
20.5,ecc10neg,right,59,0,59,f,1,1.9371418000009726,None,0,2,2,2,59,0,59,0,518.189484999999,,,,,,,,,,,,,,,518.1786613000004,518.189484999999,518.189484999999,519.0028956999995,518.189484999999,520.1364642000008,f,1,1.9371418000009726,None,left,12,"[20, 18, 20, 19, 20, 18, 20, 16, 17, 15, 17, 15, 17, 15, 16, 14, 17, 15, 16, 15, 16, 15, 16, 15, 17, 16, 17, 16, 19, 18, 19, 13, 14]",33,shiftedgaze_L_12.png,f,1,3,results7,001,2026-04-13_15h31.53.837,mogelijke versie adaptive staircase builder,,2026.1.3,60.026063316431014,2026-04-13 15h31.54.091276 +0200,
20.5,ecc10neg,right,2,2,0,,,,,0,2,2,2,,,,,,,,,,,,,,,,,,,,,,,,,,,,,,,,,,,,,,results7,001,2026-04-13_15h31.53.837,mogelijke versie adaptive staircase builder,,2026.1.3,60.026063316431014,2026-04-13 15h31.54.091276 +0200,
