xPos,stimulusSet,whichImage,thisN,thisTrialN,thisRepN,key_resp.keys,key_resp.corr,key_resp.rt,key_resp.duration,blocks.thisRepN,blocks.thisTrialN,blocks.thisN,blocks.thisIndex,trials.thisRepN,trials.thisTrialN,trials.thisN,trials.thisIndex,thisRow.t,notes,piloting,intro.started,introinstructions.started,intro_key.started,demo_image_left.started,demo_image_middle.started,demo_image_right.started,intro.stopped,intro_key.keys,intro_key.rt,intro_key.duration,block_start.started,block_start.stopped,trial.started,key_resp.started,middle_image.started,right_image.started,left_image.started,trial.stopped,trials.key_resp.keys,trials.key_resp.corr,trials.key_resp.rt,trials.key_resp.duration,direction,angle,reversal_intensities,number_reversals,stimulus,response,correct,blockNumber,participant,session,date,expName,expVersion,psychopyVersion,frameRate,expStart,
,,,,,,,,,,,,,,,,,,,,False,0.050623999999515945,0.05754720000004454,0.05754720000004454,0.05754720000004454,0.05754720000004454,0.05754720000004454,863.5338463999997,space,863.379858100001,0.09605430000010529,,,,,,,,,,,,,,,,,,,,,results28,001,2026-04-20_12h41.18.726,mogelijke versie adaptive staircase builder,,2026.1.3,60.079906275732384,2026-04-20 12h41.19.130147 +0200,
4.5,ecc10pos,left,0,0,0,f,0,2.617619000000559,None,0,0,0,0,0,0,0,0,863.8837117999992,,,,,,,,,,,,,863.7600024000003,863.7600614000003,863.8733797000004,863.8837117999992,863.8837117999992,863.8837117999992,864.7667053000005,866.5170663999997,f,0,2.617619000000559,None,direct,20,[],0,shifteddirectgaze.png,f,0,1,results28,001,2026-04-20_12h41.18.726,mogelijke versie adaptive staircase builder,,2026.1.3,60.079906275732384,2026-04-20 12h41.19.130147 +0200,
4.5,ecc10pos,left,1,0,1,j,0,2.7501442000011593,None,0,0,0,0,1,0,1,0,866.623585899999,,,,,,,,,,,,,,,866.6127371000002,866.623585899999,866.623585899999,866.623585899999,867.5167478999992,869.3836343999992,j,0,2.7501442000011593,None,right,20,[],0,shiftedgaze_R_20.png,j,0,1,results28,001,2026-04-20_12h41.18.726,mogelijke versie adaptive staircase builder,,2026.1.3,60.079906275732384,2026-04-20 12h41.19.130147 +0200,
4.5,ecc10pos,left,2,0,2,j,1,2.657471999998961,None,0,0,0,0,2,0,2,0,869.4838951000002,,,,,,,,,,,,,,,869.4726350000001,869.4838951000002,869.4838951000002,869.4838951000002,870.383345799999,872.1503209999992,j,1,2.657471999998961,None,direct,20,[20],1,shifteddirectgaze.png,j,1,1,results28,001,2026-04-20_12h41.18.726,mogelijke versie adaptive staircase builder,,2026.1.3,60.079906275732384,2026-04-20 12h41.19.130147 +0200,
4.5,ecc10pos,left,3,0,3,f,1,2.815021100001104,None,0,0,0,0,3,0,3,0,872.2862898999992,,,,,,,,,,,,,,,872.274597399999,872.2862898999992,872.2862898999992,872.2862898999992,873.1497113000005,875.1167884999995,f,1,2.815021100001104,None,left,19,[20],1,shiftedgaze_L_19.png,f,1,1,results28,001,2026-04-20_12h41.18.726,mogelijke versie adaptive staircase builder,,2026.1.3,60.079906275732384,2026-04-20 12h41.19.130147 +0200,
4.5,ecc10pos,left,4,0,4,f,1,2.4021568999996816,None,0,0,0,0,4,0,4,0,875.2431775999994,,,,,,,,,,,,,,,875.2325799999999,875.2431775999994,875.2431775999994,875.2431775999994,876.1165025999999,877.6501673000002,f,1,2.4021568999996816,None,right,18,[20],1,shiftedgaze_R_18.png,f,1,1,results28,001,2026-04-20_12h41.18.726,mogelijke versie adaptive staircase builder,,2026.1.3,60.079906275732384,2026-04-20 12h41.19.130147 +0200,
4.5,ecc10pos,left,5,0,5,f,0,2.82554749999872,None,0,0,0,0,5,0,5,0,877.7478520000004,,,,,,,,,,,,,,,877.7371647999989,877.7478520000004,877.7478520000004,877.7478520000004,878.6495536999992,880.5835743999996,f,0,2.82554749999872,None,direct,17,"[20, 17]",2,shifteddirectgaze.png,f,0,1,results28,001,2026-04-20_12h41.18.726,mogelijke versie adaptive staircase builder,,2026.1.3,60.079906275732384,2026-04-20 12h41.19.130147 +0200,
4.5,ecc10pos,left,6,0,6,f,0,4.293412299999545,None,0,0,0,0,6,0,6,0,880.6879484000001,,,,,,,,,,,,,,,880.6766222000006,880.6879484000001,880.6879484000001,880.6879484000001,881.5830996999994,884.9832989000006,f,0,4.293412299999545,None,direct,18,"[20, 17]",2,shifteddirectgaze.png,f,0,1,results28,001,2026-04-20_12h41.18.726,mogelijke versie adaptive staircase builder,,2026.1.3,60.079906275732384,2026-04-20 12h41.19.130147 +0200,
4.5,ecc10pos,left,7,0,7,f,1,3.1375260000004346,None,0,0,0,0,7,0,7,0,885.1078156999993,,,,,,,,,,,,,,,885.0965106999993,885.1078156999993,885.1078156999993,885.1078156999993,885.9827119999991,888.2500354000003,f,1,3.1375260000004346,None,left,19,"[20, 17, 19]",3,shiftedgaze_L_19.png,f,1,1,results28,001,2026-04-20_12h41.18.726,mogelijke versie adaptive staircase builder,,2026.1.3,60.079906275732384,2026-04-20 12h41.19.130147 +0200,
4.5,ecc10pos,left,8,0,8,f,1,3.3710011999992275,None,0,0,0,0,8,0,8,0,888.3625094999989,,,,,,,,,,,,,,,888.3513010000006,888.3625094999989,888.3625094999989,888.3625094999989,889.2494246999995,891.7497872999993,f,1,3.3710011999992275,None,left,18,"[20, 17, 19]",3,shiftedgaze_L_18.png,f,1,1,results28,001,2026-04-20_12h41.18.726,mogelijke versie adaptive staircase builder,,2026.1.3,60.079906275732384,2026-04-20 12h41.19.130147 +0200,
4.5,ecc10pos,left,9,0,9,f,1,3.121611299999131,None,0,0,0,0,9,0,9,0,891.875901899999,,,,,,,,,,,,,,,891.8654671000004,891.875901899999,891.875901899999,891.875901899999,892.7497366999996,894.9999157999991,f,1,3.121611299999131,None,right,17,"[20, 17, 19]",3,shiftedgaze_R_17.png,f,1,1,results28,001,2026-04-20_12h41.18.726,mogelijke versie adaptive staircase builder,,2026.1.3,60.079906275732384,2026-04-20 12h41.19.130147 +0200,
4.5,ecc10pos,left,10,0,10,f,1,3.6967945999986114,None,0,0,0,0,10,0,10,0,895.1325263999988,,,,,,,,,,,,,,,895.1209884,895.1325263999988,895.1325263999988,895.1325263999988,895.9996262999994,898.8332145000004,f,1,3.6967945999986114,None,left,16,"[20, 17, 19]",3,shiftedgaze_L_16.png,f,1,1,results28,001,2026-04-20_12h41.18.726,mogelijke versie adaptive staircase builder,,2026.1.3,60.079906275732384,2026-04-20 12h41.19.130147 +0200,
4.5,ecc10pos,left,11,0,11,f,1,3.454323599999043,None,0,0,0,0,11,0,11,0,898.9590532999991,,,,,,,,,,,,,,,898.9475760000005,898.9590532999991,898.9590532999991,898.9590532999991,899.8326030999997,902.4163245999989,f,1,3.454323599999043,None,right,15,"[20, 17, 19]",3,shiftedgaze_R_15.png,f,1,1,results28,001,2026-04-20_12h41.18.726,mogelijke versie adaptive staircase builder,,2026.1.3,60.079906275732384,2026-04-20 12h41.19.130147 +0200,
4.5,ecc10pos,left,12,0,12,f,1,2.5708582000006572,None,0,0,0,0,12,0,12,0,902.5225745999996,,,,,,,,,,,,,,,902.5114605999988,902.5225745999996,902.5225745999996,902.5225745999996,903.4161673999988,905.0998301999989,f,1,2.5708582000006572,None,right,14,"[20, 17, 19]",3,shiftedgaze_R_14.png,f,1,1,results28,001,2026-04-20_12h41.18.726,mogelijke versie adaptive staircase builder,,2026.1.3,60.079906275732384,2026-04-20 12h41.19.130147 +0200,
4.5,ecc10pos,left,13,0,13,j,0,2.256550000000061,None,0,0,0,0,13,0,13,0,905.2047841999993,,,,,,,,,,,,,,,905.1937899999994,905.2047841999993,905.2047841999993,905.2047841999993,906.0994986999995,907.4663684999996,j,0,2.256550000000061,None,right,13,"[20, 17, 19, 13]",4,shiftedgaze_R_13.png,j,0,1,results28,001,2026-04-20_12h41.18.726,mogelijke versie adaptive staircase builder,,2026.1.3,60.079906275732384,2026-04-20 12h41.19.130147 +0200,
4.5,ecc10pos,left,14,0,14,f,0,2.456428900000901,None,0,0,0,0,14,0,14,0,907.5649687999994,,,,,,,,,,,,,,,907.5534275999998,907.5649687999994,907.5649687999994,907.5649687999994,908.4659656000003,910.0330336999996,f,0,2.456428900000901,None,direct,14,"[20, 17, 19, 13]",4,shifteddirectgaze.png,f,0,1,results28,001,2026-04-20_12h41.18.726,mogelijke versie adaptive staircase builder,,2026.1.3,60.079906275732384,2026-04-20 12h41.19.130147 +0200,
4.5,ecc10pos,left,15,0,15,f,1,2.4014532000001054,None,0,0,0,0,15,0,15,0,910.1319518,,,,,,,,,,,,,,,910.1210424000001,910.1319518,910.1319518,910.1319518,911.0326960999992,912.5498575000001,f,1,2.4014532000001054,None,right,15,"[20, 17, 19, 13, 15]",5,shiftedgaze_R_15.png,f,1,1,results28,001,2026-04-20_12h41.18.726,mogelijke versie adaptive staircase builder,,2026.1.3,60.079906275732384,2026-04-20 12h41.19.130147 +0200,
4.5,ecc10pos,left,16,0,16,j,0,2.9576625999998214,None,0,0,0,0,16,0,16,0,912.6557597999999,,,,,,,,,,,,,,,912.6448510999999,912.6557597999999,912.6557597999999,912.6557597999999,913.5493465,915.616193599999,j,0,2.9576625999998214,None,left,14,"[20, 17, 19, 13, 15, 14]",6,shiftedgaze_L_14.png,j,0,1,results28,001,2026-04-20_12h41.18.726,mogelijke versie adaptive staircase builder,,2026.1.3,60.079906275732384,2026-04-20 12h41.19.130147 +0200,
4.5,ecc10pos,left,17,0,17,j,1,2.145915299999615,None,0,0,0,0,17,0,17,0,915.7155358,,,,,,,,,,,,,,,915.7040362999996,915.7155358,915.7155358,915.7155358,916.615794899999,917.8660817,j,1,2.145915299999615,None,direct,15,"[20, 17, 19, 13, 15, 14, 15]",7,shifteddirectgaze.png,j,1,1,results28,001,2026-04-20_12h41.18.726,mogelijke versie adaptive staircase builder,,2026.1.3,60.079906275732384,2026-04-20 12h41.19.130147 +0200,
4.5,ecc10pos,left,18,0,18,f,1,3.5129643000000215,None,0,0,0,0,18,0,18,0,917.9644800999995,,,,,,,,,,,,,,,917.9540963999989,917.9644800999995,917.9644800999995,917.9644800999995,918.8657738000002,921.4829573999996,f,1,3.5129643000000215,None,left,14,"[20, 17, 19, 13, 15, 14, 15]",7,shiftedgaze_L_14.png,f,1,1,results28,001,2026-04-20_12h41.18.726,mogelijke versie adaptive staircase builder,,2026.1.3,60.079906275732384,2026-04-20 12h41.19.130147 +0200,
4.5,ecc10pos,left,19,0,19,j,0,1.8316957999995793,None,0,0,0,0,19,0,19,0,921.5817372999991,,,,,,,,,,,,,,,921.5707499,921.5817372999991,921.5817372999991,921.5817372999991,922.4825640999989,923.416292599999,j,0,1.8316957999995793,None,right,13,"[20, 17, 19, 13, 15, 14, 15, 13]",8,shiftedgaze_R_13.png,j,0,1,results28,001,2026-04-20_12h41.18.726,mogelijke versie adaptive staircase builder,,2026.1.3,60.079906275732384,2026-04-20 12h41.19.130147 +0200,
4.5,ecc10pos,left,20,0,20,f,1,2.4183845999996265,None,0,0,0,0,20,0,20,0,923.5149364999997,,,,,,,,,,,,,,,923.5046392000004,923.5149364999997,923.5149364999997,923.5149364999997,924.4158664999995,925.9496122,f,1,2.4183845999996265,None,right,14,"[20, 17, 19, 13, 15, 14, 15, 13, 14]",9,shiftedgaze_R_14.png,f,1,1,results28,001,2026-04-20_12h41.18.726,mogelijke versie adaptive staircase builder,,2026.1.3,60.079906275732384,2026-04-20 12h41.19.130147 +0200,
4.5,ecc10pos,left,21,0,21,j,0,3.3018799999990733,None,0,0,0,0,21,0,21,0,926.0555356999994,,,,,,,,,,,,,,,926.044871099999,926.0555356999994,926.0555356999994,926.0555356999994,926.9494689999992,929.3662186999991,j,0,3.3018799999990733,None,left,13,"[20, 17, 19, 13, 15, 14, 15, 13, 14, 13]",10,shiftedgaze_L_13.png,j,0,1,results28,001,2026-04-20_12h41.18.726,mogelijke versie adaptive staircase builder,,2026.1.3,60.079906275732384,2026-04-20 12h41.19.130147 +0200,
4.5,ecc10pos,left,22,0,22,j,0,3.312902600000598,None,0,0,0,0,22,0,22,0,929.4685909999989,,,,,,,,,,,,,,,929.4556087000001,929.4685909999989,929.4685909999989,929.4685909999989,930.3657920999995,932.7828718000001,j,0,3.312902600000598,None,right,14,"[20, 17, 19, 13, 15, 14, 15, 13, 14, 13]",10,shiftedgaze_R_14.png,j,0,1,results28,001,2026-04-20_12h41.18.726,mogelijke versie adaptive staircase builder,,2026.1.3,60.079906275732384,2026-04-20 12h41.19.130147 +0200,
4.5,ecc10pos,left,23,0,23,f,0,1.7955723000013677,None,0,0,0,0,23,0,23,0,932.8818162999996,,,,,,,,,,,,,,,932.8713726000005,932.8818162999996,932.8818162999996,932.8818162999996,933.7826771,934.6825974000003,f,0,1.7955723000013677,None,direct,15,"[20, 17, 19, 13, 15, 14, 15, 13, 14, 13]",10,shifteddirectgaze.png,f,0,1,results28,001,2026-04-20_12h41.18.726,mogelijke versie adaptive staircase builder,,2026.1.3,60.079906275732384,2026-04-20 12h41.19.130147 +0200,
4.5,ecc10pos,left,24,0,24,f,0,1.7454964999997173,None,0,0,0,0,24,0,24,0,934.7799221000005,,,,,,,,,,,,,,,934.7689924000006,934.7799221000005,934.7799221000005,934.7799221000005,935.6823755999994,936.5327149000004,f,0,1.7454964999997173,None,direct,16,"[20, 17, 19, 13, 15, 14, 15, 13, 14, 13]",10,shifteddirectgaze.png,f,0,1,results28,001,2026-04-20_12h41.18.726,mogelijke versie adaptive staircase builder,,2026.1.3,60.079906275732384,2026-04-20 12h41.19.130147 +0200,
4.5,ecc10pos,left,25,0,25,f,0,3.0127377999997407,None,0,0,0,0,25,0,25,0,936.6326451999994,,,,,,,,,,,,,,,936.622046299999,936.6326451999994,936.6326451999994,936.6326451999994,937.5323831999995,939.6492173000006,f,0,3.0127377999997407,None,direct,17,"[20, 17, 19, 13, 15, 14, 15, 13, 14, 13]",10,shifteddirectgaze.png,f,0,1,results28,001,2026-04-20_12h41.18.726,mogelijke versie adaptive staircase builder,,2026.1.3,60.079906275732384,2026-04-20 12h41.19.130147 +0200,
4.5,ecc10pos,left,26,0,26,j,0,2.2702959999987797,None,0,0,0,0,26,0,26,0,939.7751413000005,,,,,,,,,,,,,,,939.7641098999993,939.7751413000005,939.7751413000005,939.7751413000005,940.6490063000001,942.0494619000001,j,0,2.2702959999987797,None,left,18,"[20, 17, 19, 13, 15, 14, 15, 13, 14, 13]",10,shiftedgaze_L_18.png,j,0,1,results28,001,2026-04-20_12h41.18.726,mogelijke versie adaptive staircase builder,,2026.1.3,60.079906275732384,2026-04-20 12h41.19.130147 +0200,
4.5,ecc10pos,left,27,0,27,f,1,2.960870499999146,None,0,0,0,0,27,0,27,0,942.1565059000004,,,,,,,,,,,,,,,942.1452754999991,942.1565059000004,942.1565059000004,942.1565059000004,943.0487216999991,945.1325166999995,f,1,2.960870499999146,None,left,19,"[20, 17, 19, 13, 15, 14, 15, 13, 14, 13, 19]",11,shiftedgaze_L_19.png,f,1,1,results28,001,2026-04-20_12h41.18.726,mogelijke versie adaptive staircase builder,,2026.1.3,60.079906275732384,2026-04-20 12h41.19.130147 +0200,
4.5,ecc10pos,left,28,0,28,f,0,2.2498134999987087,None,0,0,0,0,28,0,28,0,945.2515265000002,,,,,,,,,,,,,,,945.2405923999995,945.2515265000002,945.2515265000002,945.2515265000002,946.132145399999,947.5159449999992,f,0,2.2498134999987087,None,direct,18,"[20, 17, 19, 13, 15, 14, 15, 13, 14, 13, 19, 18]",12,shifteddirectgaze.png,f,0,1,results28,001,2026-04-20_12h41.18.726,mogelijke versie adaptive staircase builder,,2026.1.3,60.079906275732384,2026-04-20 12h41.19.130147 +0200,
4.5,ecc10pos,left,29,0,29,f,1,2.297026599999299,None,0,0,0,0,29,0,29,0,947.6444298999995,,,,,,,,,,,,,,,947.633173799999,947.6444298999995,947.6444298999995,947.6444298999995,948.5153933000001,949.9492477999993,f,1,2.297026599999299,None,left,19,"[20, 17, 19, 13, 15, 14, 15, 13, 14, 13, 19, 18, 19]",13,shiftedgaze_L_19.png,f,1,1,results28,001,2026-04-20_12h41.18.726,mogelijke versie adaptive staircase builder,,2026.1.3,60.079906275732384,2026-04-20 12h41.19.130147 +0200,
4.5,ecc10pos,left,30,0,30,f,1,1.9975381000003836,None,0,0,0,0,30,0,30,0,950.0559006000003,,,,,,,,,,,,,,,950.0447026000002,950.0559006000003,950.0559006000003,950.0559006000003,950.9487303000005,952.065792899999,f,1,1.9975381000003836,None,left,18,"[20, 17, 19, 13, 15, 14, 15, 13, 14, 13, 19, 18, 19]",13,shiftedgaze_L_18.png,f,1,1,results28,001,2026-04-20_12h41.18.726,mogelijke versie adaptive staircase builder,,2026.1.3,60.079906275732384,2026-04-20 12h41.19.130147 +0200,
4.5,ecc10pos,left,31,0,31,j,1,2.682891700000255,None,0,0,0,0,31,0,31,0,952.1865712999988,,,,,,,,,,,,,,,952.1756580000001,952.1865712999988,952.1865712999988,952.1865712999988,953.0655255999991,954.8822338999998,j,1,2.682891700000255,None,direct,17,"[20, 17, 19, 13, 15, 14, 15, 13, 14, 13, 19, 18, 19]",13,shifteddirectgaze.png,j,1,1,results28,001,2026-04-20_12h41.18.726,mogelijke versie adaptive staircase builder,,2026.1.3,60.079906275732384,2026-04-20 12h41.19.130147 +0200,
4.5,ecc10pos,left,32,0,32,f,1,2.2090908999998646,None,0,0,0,0,32,0,32,0,954.9883804000001,,,,,,,,,,,,,,,954.9772350000003,954.9883804000001,954.9883804000001,954.9883804000001,955.8822013999998,957.2001402000005,f,1,2.2090908999998646,None,right,16,"[20, 17, 19, 13, 15, 14, 15, 13, 14, 13, 19, 18, 19]",13,shiftedgaze_R_16.png,f,1,1,results28,001,2026-04-20_12h41.18.726,mogelijke versie adaptive staircase builder,,2026.1.3,60.079906275732384,2026-04-20 12h41.19.130147 +0200,
4.5,ecc10pos,left,33,0,33,f,0,2.4852888000004896,None,0,0,0,0,33,0,33,0,957.3041407000001,,,,,,,,,,,,,,,957.2933082,957.3041407000001,957.3041407000001,957.3041407000001,958.2152704,959.798907299999,f,0,2.4852888000004896,None,direct,15,"[20, 17, 19, 13, 15, 14, 15, 13, 14, 13, 19, 18, 19, 15]",14,shifteddirectgaze.png,f,0,1,results28,001,2026-04-20_12h41.18.726,mogelijke versie adaptive staircase builder,,2026.1.3,60.079906275732384,2026-04-20 12h41.19.130147 +0200,
4.5,ecc10pos,left,34,0,34,j,0,1.8804990999997244,None,0,0,0,0,34,0,34,0,959.9254230000006,,,,,,,,,,,,,,,959.9140661000001,959.9254230000006,959.9254230000006,959.9254230000006,960.7987489999996,961.8157661000005,j,0,1.8804990999997244,None,left,16,"[20, 17, 19, 13, 15, 14, 15, 13, 14, 13, 19, 18, 19, 15]",14,shiftedgaze_L_16.png,j,0,1,results28,001,2026-04-20_12h41.18.726,mogelijke versie adaptive staircase builder,,2026.1.3,60.079906275732384,2026-04-20 12h41.19.130147 +0200,
4.5,ecc10pos,left,35,0,35,f,0,3.105773399998725,None,0,0,0,0,35,0,35,0,961.9316101999993,,,,,,,,,,,,,,,961.9203655999991,961.9316101999993,961.9316101999993,961.9316101999993,962.8154302000003,965.0488093999993,f,0,3.105773399998725,None,direct,17,"[20, 17, 19, 13, 15, 14, 15, 13, 14, 13, 19, 18, 19, 15]",14,shifteddirectgaze.png,f,0,1,results28,001,2026-04-20_12h41.18.726,mogelijke versie adaptive staircase builder,,2026.1.3,60.079906275732384,2026-04-20 12h41.19.130147 +0200,
4.5,ecc10pos,left,36,0,36,f,0,2.476910000001226,None,0,0,0,0,36,0,36,0,965.1454042999994,,,,,,,,,,,,,,,965.1342423000006,965.1454042999994,965.1454042999994,965.1454042999994,966.0485683999996,967.6321203999996,f,0,2.476910000001226,None,direct,18,"[20, 17, 19, 13, 15, 14, 15, 13, 14, 13, 19, 18, 19, 15]",14,shifteddirectgaze.png,f,0,1,results28,001,2026-04-20_12h41.18.726,mogelijke versie adaptive staircase builder,,2026.1.3,60.079906275732384,2026-04-20 12h41.19.130147 +0200,
4.5,ecc10pos,left,37,0,37,f,1,2.6405775000002905,None,0,0,0,0,37,0,37,0,967.7569120999997,,,,,,,,,,,,,,,967.7457654999998,967.7569120999997,967.7569120999997,967.7569120999997,968.6318186999997,970.3989743999991,f,1,2.6405775000002905,None,left,19,"[20, 17, 19, 13, 15, 14, 15, 13, 14, 13, 19, 18, 19, 15, 19]",15,shiftedgaze_L_19.png,f,1,1,results28,001,2026-04-20_12h41.18.726,mogelijke versie adaptive staircase builder,,2026.1.3,60.079906275732384,2026-04-20 12h41.19.130147 +0200,
4.5,ecc10pos,left,38,0,38,f,1,2.1525293000013335,None,0,0,0,0,38,0,38,0,970.5169705999997,,,,,,,,,,,,,,,970.5060608999993,970.5169705999997,970.5169705999997,970.5169705999997,971.3985253999999,972.6822522999992,f,1,2.1525293000013335,None,right,18,"[20, 17, 19, 13, 15, 14, 15, 13, 14, 13, 19, 18, 19, 15, 19]",15,shiftedgaze_R_18.png,f,1,1,results28,001,2026-04-20_12h41.18.726,mogelijke versie adaptive staircase builder,,2026.1.3,60.079906275732384,2026-04-20 12h41.19.130147 +0200,
4.5,ecc10pos,left,39,0,39,j,0,4.823958599999969,None,0,0,0,0,39,0,39,0,972.8135375999991,,,,,,,,,,,,,,,972.8023613999994,972.8135375999991,972.8135375999991,972.8135375999991,973.6819909000005,977.6488869000004,j,0,4.823958599999969,None,left,17,"[20, 17, 19, 13, 15, 14, 15, 13, 14, 13, 19, 18, 19, 15, 19, 17]",16,shiftedgaze_L_17.png,j,0,1,results28,001,2026-04-20_12h41.18.726,mogelijke versie adaptive staircase builder,,2026.1.3,60.079906275732384,2026-04-20 12h41.19.130147 +0200,
4.5,ecc10pos,left,40,0,40,j,0,1.9105034000003798,None,0,0,0,0,40,0,40,0,977.7669375000005,,,,,,,,,,,,,,,977.7555468999999,977.7669375000005,977.7669375000005,977.7669375000005,978.6484480999989,979.682203299999,j,0,1.9105034000003798,None,right,18,"[20, 17, 19, 13, 15, 14, 15, 13, 14, 13, 19, 18, 19, 15, 19, 17]",16,shiftedgaze_R_18.png,j,0,1,results28,001,2026-04-20_12h41.18.726,mogelijke versie adaptive staircase builder,,2026.1.3,60.079906275732384,2026-04-20 12h41.19.130147 +0200,
4.5,ecc10pos,left,41,0,41,j,1,1.9230901000009908,None,0,0,0,0,41,0,41,0,979.7783435000001,,,,,,,,,,,,,,,979.768742799999,979.7783435000001,979.7783435000001,979.7783435000001,980.681513399999,981.7155048999994,j,1,1.9230901000009908,None,direct,19,"[20, 17, 19, 13, 15, 14, 15, 13, 14, 13, 19, 18, 19, 15, 19, 17, 19]",17,shifteddirectgaze.png,j,1,1,results28,001,2026-04-20_12h41.18.726,mogelijke versie adaptive staircase builder,,2026.1.3,60.079906275732384,2026-04-20 12h41.19.130147 +0200,
4.5,ecc10pos,left,42,0,42,j,1,1.9534617000008438,None,0,0,0,0,42,0,42,0,981.8120411999989,,,,,,,,,,,,,,,981.8014112000001,981.8120411999989,981.8120411999989,981.8120411999989,982.7149694,983.7821093000002,j,1,1.9534617000008438,None,direct,18,"[20, 17, 19, 13, 15, 14, 15, 13, 14, 13, 19, 18, 19, 15, 19, 17, 19]",17,shifteddirectgaze.png,j,1,1,results28,001,2026-04-20_12h41.18.726,mogelijke versie adaptive staircase builder,,2026.1.3,60.079906275732384,2026-04-20 12h41.19.130147 +0200,
4.5,ecc10pos,left,43,0,43,f,1,2.2047057999989192,None,0,0,0,0,43,0,43,0,983.8807359000002,,,,,,,,,,,,,,,983.869836599999,983.8807359000002,983.8807359000002,983.8807359000002,984.7815704999994,986.0987337999995,f,1,2.2047057999989192,None,right,17,"[20, 17, 19, 13, 15, 14, 15, 13, 14, 13, 19, 18, 19, 15, 19, 17, 19]",17,shiftedgaze_R_17.png,f,1,1,results28,001,2026-04-20_12h41.18.726,mogelijke versie adaptive staircase builder,,2026.1.3,60.079906275732384,2026-04-20 12h41.19.130147 +0200,
4.5,ecc10pos,left,44,0,44,j,0,3.343047200000001,None,0,0,0,0,44,0,44,0,986.222405999999,,,,,,,,,,,,,,,986.2113377000005,986.222405999999,986.222405999999,986.222405999999,987.0984494000004,989.5820562999997,j,0,3.343047200000001,None,left,16,"[20, 17, 19, 13, 15, 14, 15, 13, 14, 13, 19, 18, 19, 15, 19, 17, 19, 16]",18,shiftedgaze_L_16.png,j,0,1,results28,001,2026-04-20_12h41.18.726,mogelijke versie adaptive staircase builder,,2026.1.3,60.079906275732384,2026-04-20 12h41.19.130147 +0200,
4.5,ecc10pos,left,45,0,45,f,0,2.354244000000108,None,0,0,0,0,45,0,45,0,989.6992504999998,,,,,,,,,,,,,,,989.6884467999989,989.6992504999998,989.6992504999998,989.6992504999998,990.5814283,992.0654930000001,f,0,2.354244000000108,None,direct,17,"[20, 17, 19, 13, 15, 14, 15, 13, 14, 13, 19, 18, 19, 15, 19, 17, 19, 16]",18,shifteddirectgaze.png,f,0,1,results28,001,2026-04-20_12h41.18.726,mogelijke versie adaptive staircase builder,,2026.1.3,60.079906275732384,2026-04-20 12h41.19.130147 +0200,
4.5,ecc10pos,left,46,0,46,j,1,2.7392839000003733,None,0,0,0,0,46,0,46,0,992.1621797999996,,,,,,,,,,,,,,,992.1518811999995,992.1621797999996,992.1621797999996,992.1621797999996,993.0649835999993,994.9153344000006,j,1,2.7392839000003733,None,direct,18,"[20, 17, 19, 13, 15, 14, 15, 13, 14, 13, 19, 18, 19, 15, 19, 17, 19, 16, 18]",19,shifteddirectgaze.png,j,1,1,results28,001,2026-04-20_12h41.18.726,mogelijke versie adaptive staircase builder,,2026.1.3,60.079906275732384,2026-04-20 12h41.19.130147 +0200,
4.5,ecc10pos,left,47,0,47,j,0,4.857569499999954,None,0,0,0,0,47,0,47,0,995.0118764999988,,,,,,,,,,,,,,,995.0014677999989,995.0118764999988,995.0118764999988,995.0118764999988,995.9148626999995,999.8817156000005,j,0,4.857569499999954,None,right,17,"[20, 17, 19, 13, 15, 14, 15, 13, 14, 13, 19, 18, 19, 15, 19, 17, 19, 16, 18, 17]",20,shiftedgaze_R_17.png,j,0,1,results28,001,2026-04-20_12h41.18.726,mogelijke versie adaptive staircase builder,,2026.1.3,60.079906275732384,2026-04-20 12h41.19.130147 +0200,
4.5,ecc10pos,left,48,0,48,j,0,2.303661699999793,None,0,0,0,0,48,0,48,0,1000.0057839000001,,,,,,,,,,,,,,,999.9947288000003,1000.0057839000001,1000.0057839000001,1000.0057839000001,1000.881394,1002.3154766999996,j,0,2.303661699999793,None,left,18,"[20, 17, 19, 13, 15, 14, 15, 13, 14, 13, 19, 18, 19, 15, 19, 17, 19, 16, 18, 17]",20,shiftedgaze_L_18.png,j,0,1,results28,001,2026-04-20_12h41.18.726,mogelijke versie adaptive staircase builder,,2026.1.3,60.079906275732384,2026-04-20 12h41.19.130147 +0200,
4.5,ecc10pos,left,49,0,49,j,1,2.6049679999996442,None,0,0,0,0,49,0,49,0,1002.4334712,,,,,,,,,,,,,,,1002.4226053999992,1002.4334712,1002.4334712,1002.4334712,1003.3315791000005,1005.0484433999991,j,1,2.6049679999996442,None,direct,19,"[20, 17, 19, 13, 15, 14, 15, 13, 14, 13, 19, 18, 19, 15, 19, 17, 19, 16, 18, 17, 19]",21,shifteddirectgaze.png,j,1,1,results28,001,2026-04-20_12h41.18.726,mogelijke versie adaptive staircase builder,,2026.1.3,60.079906275732384,2026-04-20 12h41.19.130147 +0200,
4.5,ecc10pos,left,50,0,50,f,1,3.2723633000005066,None,0,0,0,0,50,0,50,0,1005.1730933999988,,,,,,,,,,,,,,,1005.1610848,1005.1730933999988,1005.1730933999988,1005.1730933999988,1006.0481306000001,1008.4486644999997,f,1,3.2723633000005066,None,left,18,"[20, 17, 19, 13, 15, 14, 15, 13, 14, 13, 19, 18, 19, 15, 19, 17, 19, 16, 18, 17, 19]",21,shiftedgaze_L_18.png,f,1,1,results28,001,2026-04-20_12h41.18.726,mogelijke versie adaptive staircase builder,,2026.1.3,60.079906275732384,2026-04-20 12h41.19.130147 +0200,
4.5,ecc10pos,left,51,0,51,f,0,4.534971600000063,None,0,0,0,0,51,0,51,0,1008.5665043999998,,,,,,,,,,,,,,,1008.5556885999995,1008.5665043999998,1008.5665043999998,1008.5665043999998,1009.4480330999995,1013.1151704999993,f,0,4.534971600000063,None,direct,17,"[20, 17, 19, 13, 15, 14, 15, 13, 14, 13, 19, 18, 19, 15, 19, 17, 19, 16, 18, 17, 19, 17]",22,shifteddirectgaze.png,f,0,1,results28,001,2026-04-20_12h41.18.726,mogelijke versie adaptive staircase builder,,2026.1.3,60.079906275732384,2026-04-20 12h41.19.130147 +0200,
4.5,ecc10pos,left,52,0,52,f,1,2.917966400000296,None,0,0,0,0,52,0,52,0,1013.2154685000005,,,,,,,,,,,,,,,1013.2046742000002,1013.2154685000005,1013.2154685000005,1013.2154685000005,1014.1144511999992,1016.1482438000003,f,1,2.917966400000296,None,right,18,"[20, 17, 19, 13, 15, 14, 15, 13, 14, 13, 19, 18, 19, 15, 19, 17, 19, 16, 18, 17, 19, 17, 18]",23,shiftedgaze_R_18.png,f,1,1,results28,001,2026-04-20_12h41.18.726,mogelijke versie adaptive staircase builder,,2026.1.3,60.079906275732384,2026-04-20 12h41.19.130147 +0200,
4.5,ecc10pos,left,53,0,53,j,0,4.791182599999956,None,0,0,0,0,53,0,53,0,1016.278471399999,,,,,,,,,,,,,,,1016.2649901999994,1016.278471399999,1016.278471399999,1016.278471399999,1017.1479349000001,1021.081717699999,j,0,4.791182599999956,None,left,17,"[20, 17, 19, 13, 15, 14, 15, 13, 14, 13, 19, 18, 19, 15, 19, 17, 19, 16, 18, 17, 19, 17, 18, 17]",24,shiftedgaze_L_17.png,j,0,1,results28,001,2026-04-20_12h41.18.726,mogelijke versie adaptive staircase builder,,2026.1.3,60.079906275732384,2026-04-20 12h41.19.130147 +0200,
4.5,ecc10pos,left,54,0,54,f,1,4.977643399999579,None,0,0,0,0,54,0,54,0,1021.1878992999991,,,,,,,,,,,,,,,1021.1757178999997,1021.1878992999991,1021.1878992999991,1021.1878992999991,1022.0812280999999,1026.1816067,f,1,4.977643399999579,None,left,18,"[20, 17, 19, 13, 15, 14, 15, 13, 14, 13, 19, 18, 19, 15, 19, 17, 19, 16, 18, 17, 19, 17, 18, 17, 18]",25,shiftedgaze_L_18.png,f,1,1,results28,001,2026-04-20_12h41.18.726,mogelijke versie adaptive staircase builder,,2026.1.3,60.079906275732384,2026-04-20 12h41.19.130147 +0200,
4.5,ecc10pos,left,55,0,55,j,0,3.150850399999399,None,0,0,0,0,55,0,55,0,1026.2874665,,,,,,,,,,,,,,,1026.275803999999,1026.2874665,1026.2874665,1026.2874665,1027.181138599999,1029.4481073999996,j,0,3.150850399999399,None,left,17,"[20, 17, 19, 13, 15, 14, 15, 13, 14, 13, 19, 18, 19, 15, 19, 17, 19, 16, 18, 17, 19, 17, 18, 17, 18, 17]",26,shiftedgaze_L_17.png,j,0,1,results28,001,2026-04-20_12h41.18.726,mogelijke versie adaptive staircase builder,,2026.1.3,60.079906275732384,2026-04-20 12h41.19.130147 +0200,
4.5,ecc10pos,left,56,0,56,j,0,3.6466041000003315,None,0,0,0,0,56,0,56,0,1029.5669565999997,,,,,,,,,,,,,,,1029.5556061999996,1029.5669565999997,1029.5669565999997,1029.5669565999997,1030.447792699999,1033.2147347999999,j,0,3.6466041000003315,None,right,18,"[20, 17, 19, 13, 15, 14, 15, 13, 14, 13, 19, 18, 19, 15, 19, 17, 19, 16, 18, 17, 19, 17, 18, 17, 18, 17]",26,shiftedgaze_R_18.png,j,0,1,results28,001,2026-04-20_12h41.18.726,mogelijke versie adaptive staircase builder,,2026.1.3,60.079906275732384,2026-04-20 12h41.19.130147 +0200,
4.5,ecc10pos,left,57,0,57,j,1,2.0352658000010706,None,0,0,0,0,57,0,57,0,1033.3143244000003,,,,,,,,,,,,,,,1033.3029389999992,1033.3143244000003,1033.3143244000003,1033.3143244000003,1034.2143457999991,1035.3645586999992,j,1,2.0352658000010706,None,direct,19,"[20, 17, 19, 13, 15, 14, 15, 13, 14, 13, 19, 18, 19, 15, 19, 17, 19, 16, 18, 17, 19, 17, 18, 17, 18, 17, 19]",27,shifteddirectgaze.png,j,1,1,results28,001,2026-04-20_12h41.18.726,mogelijke versie adaptive staircase builder,,2026.1.3,60.079906275732384,2026-04-20 12h41.19.130147 +0200,
4.5,ecc10pos,left,58,0,58,j,1,2.5088710999989416,None,0,0,0,0,58,0,58,0,1035.464755699999,,,,,,,,,,,,,,,1035.4544172000005,1035.464755699999,1035.464755699999,1035.464755699999,1036.3642149999996,1037.981404099999,j,1,2.5088710999989416,None,direct,18,"[20, 17, 19, 13, 15, 14, 15, 13, 14, 13, 19, 18, 19, 15, 19, 17, 19, 16, 18, 17, 19, 17, 18, 17, 18, 17, 19]",27,shifteddirectgaze.png,j,1,1,results28,001,2026-04-20_12h41.18.726,mogelijke versie adaptive staircase builder,,2026.1.3,60.079906275732384,2026-04-20 12h41.19.130147 +0200,
4.5,ecc10pos,left,59,0,59,j,0,2.4751372000009724,None,0,0,0,0,59,0,59,0,1038.1063758,,,,,,,,,,,,,,,1038.0941984,1038.1063758,1038.1063758,1038.1063758,1038.9807906999995,1040.5980958,j,0,2.4751372000009724,None,left,17,"[20, 17, 19, 13, 15, 14, 15, 13, 14, 13, 19, 18, 19, 15, 19, 17, 19, 16, 18, 17, 19, 17, 18, 17, 18, 17, 19, 17]",28,shiftedgaze_L_17.png,j,0,1,results28,001,2026-04-20_12h41.18.726,mogelijke versie adaptive staircase builder,,2026.1.3,60.079906275732384,2026-04-20 12h41.19.130147 +0200,
4.5,ecc10pos,left,0,0,0,,,,,0,0,0,0,,,,,,,,,,,,,,,,,,,,,,,,,,,,,,,,,,,,,,results28,001,2026-04-20_12h41.18.726,mogelijke versie adaptive staircase builder,,2026.1.3,60.079906275732384,2026-04-20 12h41.19.130147 +0200,
12.5,ecc0,mid,0,0,0,f,1,2.4851443999996263,None,0,1,1,1,0,0,0,0,1040.7283439999992,,,,,,,,,,,,,1040.6006882000001,1040.6007286999993,1040.7173569000006,1040.7283439999992,1041.6142522999999,1040.7283439999992,1040.7283439999992,1043.2148054999998,f,1,2.4851443999996263,None,right,20,[],0,gaze_R_20.png,f,1,2,results28,001,2026-04-20_12h41.18.726,mogelijke versie adaptive staircase builder,,2026.1.3,60.079906275732384,2026-04-20 12h41.19.130147 +0200,
12.5,ecc0,mid,1,0,1,f,1,5.387832599999456,None,0,1,1,1,1,0,1,0,1043.3216512999988,,,,,,,,,,,,,,,1043.310395299999,1043.3216512999988,1044.2143008999992,1043.3216512999988,1043.3216512999988,1048.7146264999992,f,1,5.387832599999456,None,right,19,[],0,gaze_R_19.png,f,1,2,results28,001,2026-04-20_12h41.18.726,mogelijke versie adaptive staircase builder,,2026.1.3,60.079906275732384,2026-04-20 12h41.19.130147 +0200,
12.5,ecc0,mid,2,0,2,f,1,4.992298200000732,None,0,1,1,1,2,0,2,0,1048.8213472999996,,,,,,,,,,,,,,,1048.8109884999994,1048.8213472999996,1049.7143063999993,1048.8213472999996,1048.8213472999996,1053.814531099999,f,1,4.992298200000732,None,right,18,[],0,gaze_R_18.png,f,1,2,results28,001,2026-04-20_12h41.18.726,mogelijke versie adaptive staircase builder,,2026.1.3,60.079906275732384,2026-04-20 12h41.19.130147 +0200,
12.5,ecc0,mid,3,0,3,j,0,3.3012667000002693,None,0,1,1,1,3,0,3,0,1053.9202005999996,,,,,,,,,,,,,,,1053.9087748000002,1053.9202005999996,1054.8142193000003,1053.9202005999996,1053.9202005999996,1057.2311064999994,j,0,3.3012667000002693,None,right,17,[17],1,gaze_R_17.png,j,0,2,results28,001,2026-04-20_12h41.18.726,mogelijke versie adaptive staircase builder,,2026.1.3,60.079906275732384,2026-04-20 12h41.19.130147 +0200,
12.5,ecc0,mid,4,0,4,f,1,2.1965850999986287,None,0,1,1,1,4,0,4,0,1057.3289339999992,,,,,,,,,,,,,,,1057.3185474000002,1057.3289339999992,1058.2307447000003,1057.3289339999992,1057.3289339999992,1059.5311478999993,f,1,2.1965850999986287,None,right,18,"[17, 18]",2,gaze_R_18.png,f,1,2,results28,001,2026-04-20_12h41.18.726,mogelijke versie adaptive staircase builder,,2026.1.3,60.079906275732384,2026-04-20 12h41.19.130147 +0200,
12.5,ecc0,mid,5,0,5,f,1,4.7287408000011055,None,0,1,1,1,5,0,5,0,1059.6368208000004,,,,,,,,,,,,,,,1059.6264962999994,1059.6368208000004,1060.5305816,1059.6368208000004,1059.6368208000004,1064.3810426,f,1,4.7287408000011055,None,left,17,"[17, 18]",2,gaze_L_17.png,f,1,2,results28,001,2026-04-20_12h41.18.726,mogelijke versie adaptive staircase builder,,2026.1.3,60.079906275732384,2026-04-20 12h41.19.130147 +0200,
12.5,ecc0,mid,6,0,6,f,1,2.4864673000010953,None,0,1,1,1,6,0,6,0,1064.4870484999992,,,,,,,,,,,,,,,1064.475349299999,1064.4870484999992,1065.3806160999993,1064.4870484999992,1064.4870484999992,1066.9810013000006,f,1,2.4864673000010953,None,right,16,"[17, 18]",2,gaze_R_16.png,f,1,2,results28,001,2026-04-20_12h41.18.726,mogelijke versie adaptive staircase builder,,2026.1.3,60.079906275732384,2026-04-20 12h41.19.130147 +0200,
12.5,ecc0,mid,7,0,7,j,1,5.406741699998747,None,0,1,1,1,7,0,7,0,1067.0867913000002,,,,,,,,,,,,,,,1067.0760425999997,1067.0867913000002,1067.980423699999,1067.0867913000002,1067.0867913000002,1072.4976582999989,j,1,5.406741699998747,None,direct,15,"[17, 18]",2,direct_gaze.png,j,1,2,results28,001,2026-04-20_12h41.18.726,mogelijke versie adaptive staircase builder,,2026.1.3,60.079906275732384,2026-04-20 12h41.19.130147 +0200,
12.5,ecc0,mid,8,0,8,f,0,3.5226680999985547,None,0,1,1,1,8,0,8,0,1072.5948881999993,,,,,,,,,,,,,,,1072.5845998000004,1072.5948881999993,1073.4970555,1072.5948881999993,1072.5948881999993,1076.130980599999,f,0,3.5226680999985547,None,direct,14,"[17, 18, 14]",3,direct_gaze.png,f,0,2,results28,001,2026-04-20_12h41.18.726,mogelijke versie adaptive staircase builder,,2026.1.3,60.079906275732384,2026-04-20 12h41.19.130147 +0200,
12.5,ecc0,mid,9,0,9,f,1,2.2656863999982306,None,0,1,1,1,9,0,9,0,1076.235805799999,,,,,,,,,,,,,,,1076.224140799999,1076.235805799999,1077.1304337000001,1076.235805799999,1076.235805799999,1078.514087399999,f,1,2.2656863999982306,None,right,15,"[17, 18, 14, 15]",4,gaze_R_15.png,f,1,2,results28,001,2026-04-20_12h41.18.726,mogelijke versie adaptive staircase builder,,2026.1.3,60.079906275732384,2026-04-20 12h41.19.130147 +0200,
12.5,ecc0,mid,10,0,10,j,0,4.559487499998795,None,0,1,1,1,10,0,10,0,1078.6220438,,,,,,,,,,,,,,,1078.6118513000001,1078.6220438,1079.513857599999,1078.6220438,1078.6220438,1083.1974105999998,j,0,4.559487499998795,None,left,14,"[17, 18, 14, 15, 14]",5,gaze_L_14.png,j,0,2,results28,001,2026-04-20_12h41.18.726,mogelijke versie adaptive staircase builder,,2026.1.3,60.079906275732384,2026-04-20 12h41.19.130147 +0200,
12.5,ecc0,mid,11,0,11,f,1,2.2083043999991787,None,0,1,1,1,11,0,11,0,1083.2932505999997,,,,,,,,,,,,,,,1083.2828145999993,1083.2932505999997,1084.1969895999991,1083.2932505999997,1083.2932505999997,1085.5140494999996,f,1,2.2083043999991787,None,right,15,"[17, 18, 14, 15, 14, 15]",6,gaze_R_15.png,f,1,2,results28,001,2026-04-20_12h41.18.726,mogelijke versie adaptive staircase builder,,2026.1.3,60.079906275732384,2026-04-20 12h41.19.130147 +0200,
12.5,ecc0,mid,12,0,12,j,0,5.13572700000077,None,0,1,1,1,12,0,12,0,1085.6137562999993,,,,,,,,,,,,,,,1085.6034206000004,1085.6137562999993,1086.5136810000004,1085.6137562999993,1085.6137562999993,1090.7639762,j,0,5.13572700000077,None,left,14,"[17, 18, 14, 15, 14, 15, 14]",7,gaze_L_14.png,j,0,2,results28,001,2026-04-20_12h41.18.726,mogelijke versie adaptive staircase builder,,2026.1.3,60.079906275732384,2026-04-20 12h41.19.130147 +0200,
12.5,ecc0,mid,13,0,13,j,0,4.049522799999977,None,0,1,1,1,13,0,13,0,1090.8680342999996,,,,,,,,,,,,,,,1090.8573782000003,1090.8680342999996,1091.7636309999998,1090.8680342999996,1090.8680342999996,1094.930629299999,j,0,4.049522799999977,None,left,15,"[17, 18, 14, 15, 14, 15, 14]",7,gaze_L_15.png,j,0,2,results28,001,2026-04-20_12h41.18.726,mogelijke versie adaptive staircase builder,,2026.1.3,60.079906275732384,2026-04-20 12h41.19.130147 +0200,
12.5,ecc0,mid,14,0,14,f,1,4.296570900000006,None,0,1,1,1,14,0,14,0,1095.0290404999996,,,,,,,,,,,,,,,1095.0181816000004,1095.0290404999996,1095.930432699999,1095.0290404999996,1095.0290404999996,1099.3310939999992,f,1,4.296570900000006,None,right,16,"[17, 18, 14, 15, 14, 15, 14, 16]",8,gaze_R_16.png,f,1,2,results28,001,2026-04-20_12h41.18.726,mogelijke versie adaptive staircase builder,,2026.1.3,60.079906275732384,2026-04-20 12h41.19.130147 +0200,
12.5,ecc0,mid,15,0,15,j,1,4.899140400000761,None,0,1,1,1,15,0,15,0,1099.4424342000002,,,,,,,,,,,,,,,1099.4306567000003,1099.4424342000002,1100.3469915999995,1099.4424342000002,1099.4424342000002,1104.3475106000005,j,1,4.899140400000761,None,direct,15,"[17, 18, 14, 15, 14, 15, 14, 16]",8,direct_gaze.png,j,1,2,results28,001,2026-04-20_12h41.18.726,mogelijke versie adaptive staircase builder,,2026.1.3,60.079906275732384,2026-04-20 12h41.19.130147 +0200,
12.5,ecc0,mid,16,0,16,j,1,2.090383300001122,None,0,1,1,1,16,0,16,0,1104.4591371999995,,,,,,,,,,,,,,,1104.4487924999994,1104.4591371999995,1105.3469308999993,1104.4591371999995,1104.4591371999995,1106.5642499999994,j,1,2.090383300001122,None,direct,14,"[17, 18, 14, 15, 14, 15, 14, 16]",8,direct_gaze.png,j,1,2,results28,001,2026-04-20_12h41.18.726,mogelijke versie adaptive staircase builder,,2026.1.3,60.079906275732384,2026-04-20 12h41.19.130147 +0200,
12.5,ecc0,mid,17,0,17,f,1,3.3722436999996717,None,0,1,1,1,17,0,17,0,1106.6892368999997,,,,,,,,,,,,,,,1106.6768969999994,1106.6892368999997,1107.5635923999998,1106.6892368999997,1106.6892368999997,1110.0642637,f,1,3.3722436999996717,None,right,13,"[17, 18, 14, 15, 14, 15, 14, 16]",8,gaze_R_13.png,f,1,2,results28,001,2026-04-20_12h41.18.726,mogelijke versie adaptive staircase builder,,2026.1.3,60.079906275732384,2026-04-20 12h41.19.130147 +0200,
12.5,ecc0,mid,18,0,18,j,0,2.0911703999991005,None,0,1,1,1,18,0,18,0,1110.1863549999998,,,,,,,,,,,,,,,1110.1742773000005,1110.1863549999998,1111.063809899999,1110.1863549999998,1110.1863549999998,1112.2807238999994,j,0,2.0911703999991005,None,left,12,"[17, 18, 14, 15, 14, 15, 14, 16, 12]",9,gaze_L_12.png,j,0,2,results28,001,2026-04-20_12h41.18.726,mogelijke versie adaptive staircase builder,,2026.1.3,60.079906275732384,2026-04-20 12h41.19.130147 +0200,
12.5,ecc0,mid,19,0,19,j,0,2.227856299999985,None,0,1,1,1,19,0,19,0,1112.4016235999989,,,,,,,,,,,,,,,1112.3899067000002,1112.4016235999989,1113.296582699999,1112.4016235999989,1112.4016235999989,1114.6303054,j,0,2.227856299999985,None,left,13,"[17, 18, 14, 15, 14, 15, 14, 16, 12]",9,gaze_L_13.png,j,0,2,results28,001,2026-04-20_12h41.18.726,mogelijke versie adaptive staircase builder,,2026.1.3,60.079906275732384,2026-04-20 12h41.19.130147 +0200,
12.5,ecc0,mid,20,0,20,f,1,7.3286204999985785,None,0,1,1,1,20,0,20,0,1114.7421550999989,,,,,,,,,,,,,,,1114.7314965000005,1114.7421550999989,1115.6300733999997,1114.7421550999989,1114.7421550999989,1122.0802743999993,f,1,7.3286204999985785,None,right,14,"[17, 18, 14, 15, 14, 15, 14, 16, 12, 14]",10,gaze_R_14.png,f,1,2,results28,001,2026-04-20_12h41.18.726,mogelijke versie adaptive staircase builder,,2026.1.3,60.079906275732384,2026-04-20 12h41.19.130147 +0200,
12.5,ecc0,mid,21,0,21,f,1,3.722027199999502,None,0,1,1,1,21,0,21,0,1122.179476899999,,,,,,,,,,,,,,,1122.168716099999,1122.179476899999,1123.0799355,1122.179476899999,1122.179476899999,1125.9135152999988,f,1,3.722027199999502,None,right,13,"[17, 18, 14, 15, 14, 15, 14, 16, 12, 14]",10,gaze_R_13.png,f,1,2,results28,001,2026-04-20_12h41.18.726,mogelijke versie adaptive staircase builder,,2026.1.3,60.079906275732384,2026-04-20 12h41.19.130147 +0200,
12.5,ecc0,mid,22,0,22,j,0,3.871184900001026,None,0,1,1,1,22,0,22,0,1126.0142849000003,,,,,,,,,,,,,,,1126.0034491999995,1126.0142849000003,1126.9134353999998,1126.0142849000003,1126.0142849000003,1129.8967740999997,j,0,3.871184900001026,None,left,12,"[17, 18, 14, 15, 14, 15, 14, 16, 12, 14, 12]",11,gaze_L_12.png,j,0,2,results28,001,2026-04-20_12h41.18.726,mogelijke versie adaptive staircase builder,,2026.1.3,60.079906275732384,2026-04-20 12h41.19.130147 +0200,
12.5,ecc0,mid,23,0,23,j,0,2.5212115999984235,None,0,1,1,1,23,0,23,0,1129.9963903999997,,,,,,,,,,,,,,,1129.986241999999,1129.9963903999997,1130.8964209999995,1129.9963903999997,1129.9963903999997,1132.5302145000005,j,0,2.5212115999984235,None,left,13,"[17, 18, 14, 15, 14, 15, 14, 16, 12, 14, 12]",11,gaze_L_13.png,j,0,2,results28,001,2026-04-20_12h41.18.726,mogelijke versie adaptive staircase builder,,2026.1.3,60.079906275732384,2026-04-20 12h41.19.130147 +0200,
12.5,ecc0,mid,24,0,24,f,1,5.28910679999899,None,0,1,1,1,24,0,24,0,1132.6285023,,,,,,,,,,,,,,,1132.6180894999998,1132.6285023,1133.5297821999993,1132.6285023,1132.6285023,1137.9300724000004,f,1,5.28910679999899,None,left,14,"[17, 18, 14, 15, 14, 15, 14, 16, 12, 14, 12, 14]",12,gaze_L_14.png,f,1,2,results28,001,2026-04-20_12h41.18.726,mogelijke versie adaptive staircase builder,,2026.1.3,60.079906275732384,2026-04-20 12h41.19.130147 +0200,
12.5,ecc0,mid,25,0,25,j,1,2.070924700001342,None,0,1,1,1,25,0,25,0,1138.0309966000004,,,,,,,,,,,,,,,1138.0199883999994,1138.0309966000004,1138.9297153999996,1138.0309966000004,1138.0309966000004,1140.1141702999994,j,1,2.070924700001342,None,direct,13,"[17, 18, 14, 15, 14, 15, 14, 16, 12, 14, 12, 14]",12,direct_gaze.png,j,1,2,results28,001,2026-04-20_12h41.18.726,mogelijke versie adaptive staircase builder,,2026.1.3,60.079906275732384,2026-04-20 12h41.19.130147 +0200,
12.5,ecc0,mid,26,0,26,j,0,2.42540100000042,None,0,1,1,1,26,0,26,0,1140.2121640999994,,,,,,,,,,,,,,,1140.2020835999992,1140.2121640999994,1141.1128970999998,1140.2121640999994,1140.2121640999994,1142.6466222999989,j,0,2.42540100000042,None,left,12,"[17, 18, 14, 15, 14, 15, 14, 16, 12, 14, 12, 14, 12]",13,gaze_L_12.png,j,0,2,results28,001,2026-04-20_12h41.18.726,mogelijke versie adaptive staircase builder,,2026.1.3,60.079906275732384,2026-04-20 12h41.19.130147 +0200,
12.5,ecc0,mid,27,0,27,f,1,3.724675400000706,None,0,1,1,1,27,0,27,0,1142.7459030999999,,,,,,,,,,,,,,,1142.7347362,1142.7459030999999,1143.6460988999988,1142.7459030999999,1142.7459030999999,1146.4801124999994,f,1,3.724675400000706,None,right,13,"[17, 18, 14, 15, 14, 15, 14, 16, 12, 14, 12, 14, 12, 13]",14,gaze_R_13.png,f,1,2,results28,001,2026-04-20_12h41.18.726,mogelijke versie adaptive staircase builder,,2026.1.3,60.079906275732384,2026-04-20 12h41.19.130147 +0200,
12.5,ecc0,mid,28,0,28,f,1,4.534176399998614,None,0,1,1,1,28,0,28,0,1146.5914116999993,,,,,,,,,,,,,,,1146.5808383000003,1146.5914116999993,1147.4795534999994,1146.5914116999993,1146.5914116999993,1151.1297541000004,f,1,4.534176399998614,None,right,12,"[17, 18, 14, 15, 14, 15, 14, 16, 12, 14, 12, 14, 12, 13]",14,gaze_R_12.png,f,1,2,results28,001,2026-04-20_12h41.18.726,mogelijke versie adaptive staircase builder,,2026.1.3,60.079906275732384,2026-04-20 12h41.19.130147 +0200,
12.5,ecc0,mid,29,0,29,j,1,2.1530338000011398,None,0,1,1,1,29,0,29,0,1151.2286781999992,,,,,,,,,,,,,,,1151.218213799999,1151.2286781999992,1152.1293250999988,1151.2286781999992,1151.2286781999992,1153.3965355,j,1,2.1530338000011398,None,direct,11,"[17, 18, 14, 15, 14, 15, 14, 16, 12, 14, 12, 14, 12, 13]",14,direct_gaze.png,j,1,2,results28,001,2026-04-20_12h41.18.726,mogelijke versie adaptive staircase builder,,2026.1.3,60.079906275732384,2026-04-20 12h41.19.130147 +0200,
12.5,ecc0,mid,30,0,30,j,0,2.126624999998967,None,0,1,1,1,30,0,30,0,1153.5031044999996,,,,,,,,,,,,,,,1153.4917824000004,1153.5031044999996,1154.3961063000006,1153.5031044999996,1153.5031044999996,1155.6462159000002,j,0,2.126624999998967,None,left,10,"[17, 18, 14, 15, 14, 15, 14, 16, 12, 14, 12, 14, 12, 13, 10]",15,gaze_L_10.png,j,0,2,results28,001,2026-04-20_12h41.18.726,mogelijke versie adaptive staircase builder,,2026.1.3,60.079906275732384,2026-04-20 12h41.19.130147 +0200,
12.5,ecc0,mid,31,0,31,j,0,7.178798499999175,None,0,1,1,1,31,0,31,0,1155.7549213000002,,,,,,,,,,,,,,,1155.7440339000004,1155.7549213000002,1156.6459474000003,1155.7549213000002,1155.7549213000002,1162.9463479000005,j,0,7.178798499999175,None,left,11,"[17, 18, 14, 15, 14, 15, 14, 16, 12, 14, 12, 14, 12, 13, 10]",15,gaze_L_11.png,j,0,2,results28,001,2026-04-20_12h41.18.726,mogelijke versie adaptive staircase builder,,2026.1.3,60.079906275732384,2026-04-20 12h41.19.130147 +0200,
12.5,ecc0,mid,32,0,32,j,0,2.416434200000367,None,0,1,1,1,32,0,32,0,1163.045172799999,,,,,,,,,,,,,,,1163.0342669000001,1163.045172799999,1163.945742599999,1163.045172799999,1163.045172799999,1165.4630914999998,j,0,2.416434200000367,None,left,12,"[17, 18, 14, 15, 14, 15, 14, 16, 12, 14, 12, 14, 12, 13, 10]",15,gaze_L_12.png,j,0,2,results28,001,2026-04-20_12h41.18.726,mogelijke versie adaptive staircase builder,,2026.1.3,60.079906275732384,2026-04-20 12h41.19.130147 +0200,
12.5,ecc0,mid,33,0,33,f,0,6.187065600001006,None,0,1,1,1,33,0,33,0,1165.562472399999,,,,,,,,,,,,,,,1165.5515582999997,1165.562472399999,1166.4622942000005,1165.562472399999,1165.562472399999,1171.762838499999,f,0,6.187065600001006,None,direct,13,"[17, 18, 14, 15, 14, 15, 14, 16, 12, 14, 12, 14, 12, 13, 10]",15,direct_gaze.png,f,0,2,results28,001,2026-04-20_12h41.18.726,mogelijke versie adaptive staircase builder,,2026.1.3,60.079906275732384,2026-04-20 12h41.19.130147 +0200,
12.5,ecc0,mid,34,0,34,j,1,1.9993785999995453,None,0,1,1,1,34,0,34,0,1171.8621512999998,,,,,,,,,,,,,,,1171.8516983999998,1171.8621512999998,1172.7623244999995,1171.8621512999998,1171.8621512999998,1173.8629629999996,j,1,1.9993785999995453,None,direct,14,"[17, 18, 14, 15, 14, 15, 14, 16, 12, 14, 12, 14, 12, 13, 10, 14]",16,direct_gaze.png,j,1,2,results28,001,2026-04-20_12h41.18.726,mogelijke versie adaptive staircase builder,,2026.1.3,60.079906275732384,2026-04-20 12h41.19.130147 +0200,
12.5,ecc0,mid,35,0,35,j,0,7.5258441000005405,None,0,1,1,1,35,0,35,0,1173.9677002999997,,,,,,,,,,,,,,,1173.9557356999994,1173.9677002999997,1174.862438,1173.9677002999997,1173.9677002999997,1181.4960453000003,j,0,7.5258441000005405,None,left,13,"[17, 18, 14, 15, 14, 15, 14, 16, 12, 14, 12, 14, 12, 13, 10, 14, 13]",17,gaze_L_13.png,j,0,2,results28,001,2026-04-20_12h41.18.726,mogelijke versie adaptive staircase builder,,2026.1.3,60.079906275732384,2026-04-20 12h41.19.130147 +0200,
12.5,ecc0,mid,36,0,36,f,1,2.7106929999990825,None,0,1,1,1,36,0,36,0,1181.6068605,,,,,,,,,,,,,,,1181.5953587999993,1181.6068605,1182.4955599999994,1181.6068605,1181.6068605,1184.3293615000002,f,1,2.7106929999990825,None,right,14,"[17, 18, 14, 15, 14, 15, 14, 16, 12, 14, 12, 14, 12, 13, 10, 14, 13, 14]",18,gaze_R_14.png,f,1,2,results28,001,2026-04-20_12h41.18.726,mogelijke versie adaptive staircase builder,,2026.1.3,60.079906275732384,2026-04-20 12h41.19.130147 +0200,
12.5,ecc0,mid,37,0,37,j,1,4.3294563999988895,None,0,1,1,1,37,0,37,0,1184.4282402999997,,,,,,,,,,,,,,,1184.4178377999997,1184.4282402999997,1185.3287781,1184.4282402999997,1184.4282402999997,1188.762667699999,j,1,4.3294563999988895,None,direct,13,"[17, 18, 14, 15, 14, 15, 14, 16, 12, 14, 12, 14, 12, 13, 10, 14, 13, 14]",18,direct_gaze.png,j,1,2,results28,001,2026-04-20_12h41.18.726,mogelijke versie adaptive staircase builder,,2026.1.3,60.079906275732384,2026-04-20 12h41.19.130147 +0200,
12.5,ecc0,mid,38,0,38,f,1,4.6874416999999085,None,0,1,1,1,38,0,38,0,1188.8622266000002,,,,,,,,,,,,,,,1188.8513502999995,1188.8622266000002,1189.7621841,1188.8622266000002,1188.8622266000002,1193.5629128,f,1,4.6874416999999085,None,left,12,"[17, 18, 14, 15, 14, 15, 14, 16, 12, 14, 12, 14, 12, 13, 10, 14, 13, 14]",18,gaze_L_12.png,f,1,2,results28,001,2026-04-20_12h41.18.726,mogelijke versie adaptive staircase builder,,2026.1.3,60.079906275732384,2026-04-20 12h41.19.130147 +0200,
12.5,ecc0,mid,39,0,39,f,1,3.7360779000009643,None,0,1,1,1,39,0,39,0,1193.6695285000005,,,,,,,,,,,,,,,1193.6589095,1193.6695285000005,1194.5621845000005,1193.6695285000005,1193.6695285000005,1197.4125120999997,f,1,3.7360779000009643,None,right,11,"[17, 18, 14, 15, 14, 15, 14, 16, 12, 14, 12, 14, 12, 13, 10, 14, 13, 14]",18,gaze_R_11.png,f,1,2,results28,001,2026-04-20_12h41.18.726,mogelijke versie adaptive staircase builder,,2026.1.3,60.079906275732384,2026-04-20 12h41.19.130147 +0200,
12.5,ecc0,mid,40,0,40,j,0,4.284814699998606,None,0,1,1,1,40,0,40,0,1197.504885799999,,,,,,,,,,,,,,,1197.4937406999998,1197.504885799999,1198.4120881999988,1197.504885799999,1197.504885799999,1201.7959150999995,j,0,4.284814699998606,None,left,10,"[17, 18, 14, 15, 14, 15, 14, 16, 12, 14, 12, 14, 12, 13, 10, 14, 13, 14, 10]",19,gaze_L_10.png,j,0,2,results28,001,2026-04-20_12h41.18.726,mogelijke versie adaptive staircase builder,,2026.1.3,60.079906275732384,2026-04-20 12h41.19.130147 +0200,
12.5,ecc0,mid,41,0,41,j,0,2.9898307000003115,None,0,1,1,1,41,0,41,0,1201.8879336999998,,,,,,,,,,,,,,,1201.8766749999995,1201.8879336999998,1202.7954203999998,1201.8879336999998,1201.8879336999998,1204.8790131000005,j,0,2.9898307000003115,None,right,11,"[17, 18, 14, 15, 14, 15, 14, 16, 12, 14, 12, 14, 12, 13, 10, 14, 13, 14, 10]",19,gaze_R_11.png,j,0,2,results28,001,2026-04-20_12h41.18.726,mogelijke versie adaptive staircase builder,,2026.1.3,60.079906275732384,2026-04-20 12h41.19.130147 +0200,
12.5,ecc0,mid,42,0,42,j,0,2.003495099999782,None,0,1,1,1,42,0,42,0,1204.9701222999993,,,,,,,,,,,,,,,1204.9598542999993,1204.9701222999993,1205.8785303999994,1204.9701222999993,1204.9701222999993,1206.9788970999998,j,0,2.003495099999782,None,left,12,"[17, 18, 14, 15, 14, 15, 14, 16, 12, 14, 12, 14, 12, 13, 10, 14, 13, 14, 10]",19,gaze_L_12.png,j,0,2,results28,001,2026-04-20_12h41.18.726,mogelijke versie adaptive staircase builder,,2026.1.3,60.079906275732384,2026-04-20 12h41.19.130147 +0200,
12.5,ecc0,mid,43,0,43,f,1,4.93992470000012,None,0,1,1,1,43,0,43,0,1207.073703099999,,,,,,,,,,,,,,,1207.0621955000006,1207.073703099999,1207.9787032999993,1207.073703099999,1207.073703099999,1212.0289272999999,f,1,4.93992470000012,None,right,13,"[17, 18, 14, 15, 14, 15, 14, 16, 12, 14, 12, 14, 12, 13, 10, 14, 13, 14, 10, 13]",20,gaze_R_13.png,f,1,2,results28,001,2026-04-20_12h41.18.726,mogelijke versie adaptive staircase builder,,2026.1.3,60.079906275732384,2026-04-20 12h41.19.130147 +0200,
12.5,ecc0,mid,44,0,44,j,1,3.8824994999995397,None,0,1,1,1,44,0,44,0,1212.1231666000003,,,,,,,,,,,,,,,1212.112001899999,1212.1231666000003,1213.0285934000003,1212.1231666000003,1212.1231666000003,1216.0122988999992,j,1,3.8824994999995397,None,direct,12,"[17, 18, 14, 15, 14, 15, 14, 16, 12, 14, 12, 14, 12, 13, 10, 14, 13, 14, 10, 13]",20,direct_gaze.png,j,1,2,results28,001,2026-04-20_12h41.18.726,mogelijke versie adaptive staircase builder,,2026.1.3,60.079906275732384,2026-04-20 12h41.19.130147 +0200,
12.5,ecc0,mid,45,0,45,j,1,3.1369061000004876,None,0,1,1,1,45,0,45,0,1216.1088316000005,,,,,,,,,,,,,,,1216.0986044,1216.1088316000005,1217.0116859999998,1216.1088316000005,1216.1088316000005,1219.2622964999991,j,1,3.1369061000004876,None,direct,11,"[17, 18, 14, 15, 14, 15, 14, 16, 12, 14, 12, 14, 12, 13, 10, 14, 13, 14, 10, 13]",20,direct_gaze.png,j,1,2,results28,001,2026-04-20_12h41.18.726,mogelijke versie adaptive staircase builder,,2026.1.3,60.079906275732384,2026-04-20 12h41.19.130147 +0200,
12.5,ecc0,mid,46,0,46,j,0,4.417217800000799,None,0,1,1,1,46,0,46,0,1219.3564105999994,,,,,,,,,,,,,,,1219.3455694999993,1219.3564105999994,1220.2616177,1219.3564105999994,1219.3564105999994,1223.7788648999995,j,0,4.417217800000799,None,left,10,"[17, 18, 14, 15, 14, 15, 14, 16, 12, 14, 12, 14, 12, 13, 10, 14, 13, 14, 10, 13, 10]",21,gaze_L_10.png,j,0,2,results28,001,2026-04-20_12h41.18.726,mogelijke versie adaptive staircase builder,,2026.1.3,60.079906275732384,2026-04-20 12h41.19.130147 +0200,
12.5,ecc0,mid,47,0,47,f,1,4.629883800000243,None,0,1,1,1,47,0,47,0,1223.8728291999996,,,,,,,,,,,,,,,1223.8622137999992,1223.8728291999996,1224.7784960999998,1223.8728291999996,1223.8728291999996,1228.5121309999995,f,1,4.629883800000243,None,right,11,"[17, 18, 14, 15, 14, 15, 14, 16, 12, 14, 12, 14, 12, 13, 10, 14, 13, 14, 10, 13, 10, 11]",22,gaze_R_11.png,f,1,2,results28,001,2026-04-20_12h41.18.726,mogelijke versie adaptive staircase builder,,2026.1.3,60.079906275732384,2026-04-20 12h41.19.130147 +0200,
12.5,ecc0,mid,48,0,48,j,0,1.307247799999459,None,0,1,1,1,48,0,48,0,1229.0114752999998,,,,,,,,,,,,,,,1229.0004891999997,1229.0114752999998,1229.5117152999992,1229.0114752999998,1229.0114752999998,1230.3286964,j,0,1.307247799999459,None,right,10,"[17, 18, 14, 15, 14, 15, 14, 16, 12, 14, 12, 14, 12, 13, 10, 14, 13, 14, 10, 13, 10, 11, 10]",23,gaze_R_10.png,j,0,2,results28,001,2026-04-20_12h41.18.726,mogelijke versie adaptive staircase builder,,2026.1.3,60.079906275732384,2026-04-20 12h41.19.130147 +0200,
12.5,ecc0,mid,49,0,49,f,1,1.8951268999990134,None,0,1,1,1,49,0,49,0,1230.4224593999988,,,,,,,,,,,,,,,1230.4105557999992,1230.4224593999988,1231.3280718999995,1230.4224593999988,1230.4224593999988,1232.328478899999,f,1,1.8951268999990134,None,right,11,"[17, 18, 14, 15, 14, 15, 14, 16, 12, 14, 12, 14, 12, 13, 10, 14, 13, 14, 10, 13, 10, 11, 10, 11]",24,gaze_R_11.png,f,1,2,results28,001,2026-04-20_12h41.18.726,mogelijke versie adaptive staircase builder,,2026.1.3,60.079906275732384,2026-04-20 12h41.19.130147 +0200,
12.5,ecc0,mid,50,0,50,j,0,4.8802739000002475,None,0,1,1,1,50,0,50,0,1232.4218928999999,,,,,,,,,,,,,,,1232.4115738,1232.4218928999999,1233.3280510000004,1232.4218928999999,1232.4218928999999,1237.3121840000003,j,0,4.8802739000002475,None,left,10,"[17, 18, 14, 15, 14, 15, 14, 16, 12, 14, 12, 14, 12, 13, 10, 14, 13, 14, 10, 13, 10, 11, 10, 11, 10]",25,gaze_L_10.png,j,0,2,results28,001,2026-04-20_12h41.18.726,mogelijke versie adaptive staircase builder,,2026.1.3,60.079906275732384,2026-04-20 12h41.19.130147 +0200,
12.5,ecc0,mid,51,0,51,f,1,7.608316599998943,None,0,1,1,1,51,0,51,0,1237.4054242000002,,,,,,,,,,,,,,,1237.3937901999998,1237.4054242000002,1238.3114929000003,1237.4054242000002,1237.4054242000002,1245.0286056000004,f,1,7.608316599998943,None,right,11,"[17, 18, 14, 15, 14, 15, 14, 16, 12, 14, 12, 14, 12, 13, 10, 14, 13, 14, 10, 13, 10, 11, 10, 11, 10, 11]",26,gaze_R_11.png,f,1,2,results28,001,2026-04-20_12h41.18.726,mogelijke versie adaptive staircase builder,,2026.1.3,60.079906275732384,2026-04-20 12h41.19.130147 +0200,
12.5,ecc0,mid,52,0,52,j,0,3.0353521999986697,None,0,1,1,1,52,0,52,0,1245.1222433999992,,,,,,,,,,,,,,,1245.1110126000003,1245.1222433999992,1246.0279185999989,1245.1222433999992,1245.1222433999992,1248.1617525000001,j,0,3.0353521999986697,None,left,10,"[17, 18, 14, 15, 14, 15, 14, 16, 12, 14, 12, 14, 12, 13, 10, 14, 13, 14, 10, 13, 10, 11, 10, 11, 10, 11, 10]",27,gaze_L_10.png,j,0,2,results28,001,2026-04-20_12h41.18.726,mogelijke versie adaptive staircase builder,,2026.1.3,60.079906275732384,2026-04-20 12h41.19.130147 +0200,
12.5,ecc0,mid,53,0,53,j,1,8.41830310000114,None,0,1,1,1,53,0,53,0,1248.2514692999994,,,,,,,,,,,,,,,1248.2408235999992,1248.2514692999994,1249.1612864999988,1248.2514692999994,1248.2514692999994,1256.6786770999988,j,1,8.41830310000114,None,direct,11,"[17, 18, 14, 15, 14, 15, 14, 16, 12, 14, 12, 14, 12, 13, 10, 14, 13, 14, 10, 13, 10, 11, 10, 11, 10, 11, 10, 11]",28,direct_gaze.png,j,1,2,results28,001,2026-04-20_12h41.18.726,mogelijke versie adaptive staircase builder,,2026.1.3,60.079906275732384,2026-04-20 12h41.19.130147 +0200,
12.5,ecc0,mid,54,0,54,f,1,4.458804000001692,None,0,1,1,1,54,0,54,0,1256.7709111000004,,,,,,,,,,,,,,,1256.7591207999994,1256.7709111000004,1257.6946922999996,1256.7709111000004,1256.7709111000004,1261.2450448,f,1,4.458804000001692,None,right,10,"[17, 18, 14, 15, 14, 15, 14, 16, 12, 14, 12, 14, 12, 13, 10, 14, 13, 14, 10, 13, 10, 11, 10, 11, 10, 11, 10, 11]",28,gaze_R_10.png,f,1,2,results28,001,2026-04-20_12h41.18.726,mogelijke versie adaptive staircase builder,,2026.1.3,60.079906275732384,2026-04-20 12h41.19.130147 +0200,
12.5,ecc0,mid,55,0,55,j,0,9.284595900000568,None,0,1,1,1,55,0,55,0,1261.6891584000005,,,,,,,,,,,,,,,1261.6784243999991,1261.6891584000005,1262.2450503,1261.6891584000005,1261.6891584000005,1270.9780883999993,j,0,9.284595900000568,None,left,9,"[17, 18, 14, 15, 14, 15, 14, 16, 12, 14, 12, 14, 12, 13, 10, 14, 13, 14, 10, 13, 10, 11, 10, 11, 10, 11, 10, 11, 9]",29,gaze_L_9.png,j,0,2,results28,001,2026-04-20_12h41.18.726,mogelijke versie adaptive staircase builder,,2026.1.3,60.079906275732384,2026-04-20 12h41.19.130147 +0200,
12.5,ecc0,mid,56,0,56,f,1,4.753648800000519,None,0,1,1,1,56,0,56,0,1271.0681449000003,,,,,,,,,,,,,,,1271.0567695999998,1271.0681449000003,1271.9778688999995,1271.0681449000003,1271.0681449000003,1275.828088799999,f,1,4.753648800000519,None,right,10,"[17, 18, 14, 15, 14, 15, 14, 16, 12, 14, 12, 14, 12, 13, 10, 14, 13, 14, 10, 13, 10, 11, 10, 11, 10, 11, 10, 11, 9, 10]",30,gaze_R_10.png,f,1,2,results28,001,2026-04-20_12h41.18.726,mogelijke versie adaptive staircase builder,,2026.1.3,60.079906275732384,2026-04-20 12h41.19.130147 +0200,
12.5,ecc0,mid,57,0,57,j,1,4.277850899999976,None,0,1,1,1,57,0,57,0,1275.9199109,,,,,,,,,,,,,,,1275.9083941999997,1275.9199109,1276.8277156000004,1275.9199109,1275.9199109,1280.211523599999,j,1,4.277850899999976,None,direct,9,"[17, 18, 14, 15, 14, 15, 14, 16, 12, 14, 12, 14, 12, 13, 10, 14, 13, 14, 10, 13, 10, 11, 10, 11, 10, 11, 10, 11, 9, 10]",30,direct_gaze.png,j,1,2,results28,001,2026-04-20_12h41.18.726,mogelijke versie adaptive staircase builder,,2026.1.3,60.079906275732384,2026-04-20 12h41.19.130147 +0200,
12.5,ecc0,mid,58,0,58,j,1,4.412924500000372,None,0,1,1,1,58,0,58,0,1280.305080099999,,,,,,,,,,,,,,,1280.2940610999995,1280.305080099999,1281.2110503999993,1280.305080099999,1280.305080099999,1284.7280381,j,1,4.412924500000372,None,direct,8,"[17, 18, 14, 15, 14, 15, 14, 16, 12, 14, 12, 14, 12, 13, 10, 14, 13, 14, 10, 13, 10, 11, 10, 11, 10, 11, 10, 11, 9, 10]",30,direct_gaze.png,j,1,2,results28,001,2026-04-20_12h41.18.726,mogelijke versie adaptive staircase builder,,2026.1.3,60.079906275732384,2026-04-20 12h41.19.130147 +0200,
12.5,ecc0,mid,59,0,59,f,1,4.615727799999149,None,0,1,1,1,59,0,59,0,1285.1818640000001,,,,,,,,,,,,,,,1285.1705920000004,1285.1818640000001,1285.7277075999991,1285.1818640000001,1285.1818640000001,1289.8112880999997,f,1,4.615727799999149,None,right,7,"[17, 18, 14, 15, 14, 15, 14, 16, 12, 14, 12, 14, 12, 13, 10, 14, 13, 14, 10, 13, 10, 11, 10, 11, 10, 11, 10, 11, 9, 10]",30,gaze_R_7.png,f,1,2,results28,001,2026-04-20_12h41.18.726,mogelijke versie adaptive staircase builder,,2026.1.3,60.079906275732384,2026-04-20 12h41.19.130147 +0200,
12.5,ecc0,mid,1,1,0,,,,,0,1,1,1,,,,,,,,,,,,,,,,,,,,,,,,,,,,,,,,,,,,,,results28,001,2026-04-20_12h41.18.726,mogelijke versie adaptive staircase builder,,2026.1.3,60.079906275732384,2026-04-20 12h41.19.130147 +0200,
20.5,ecc10neg,right,0,0,0,j,1,4.084193799999412,None,0,2,2,2,0,0,0,0,1289.9134844,,,,,,,,,,,,,1289.8138731999989,1289.813905699999,1289.9029281000003,1289.9134844,1289.9134844,1290.8275365999998,1289.9134844,1294.0113476000006,j,1,4.084193799999412,None,direct,20,[],0,shifteddirectgaze.png,j,1,3,results28,001,2026-04-20_12h41.18.726,mogelijke versie adaptive staircase builder,,2026.1.3,60.079906275732384,2026-04-20 12h41.19.130147 +0200,
20.5,ecc10neg,right,1,0,1,f,1,1.7754781999992701,None,0,2,2,2,1,0,1,0,1294.1343390999991,,,,,,,,,,,,,,,1294.122561099999,1294.1343390999991,1294.1343390999991,1295.0110055999994,1294.1343390999991,1295.9114525000005,f,1,1.7754781999992701,None,right,19,[],0,shiftedgaze_R_19.png,f,1,3,results28,001,2026-04-20_12h41.18.726,mogelijke versie adaptive staircase builder,,2026.1.3,60.079906275732384,2026-04-20 12h41.19.130147 +0200,
20.5,ecc10neg,right,2,0,2,f,0,1.8139054000002943,None,0,2,2,2,2,0,2,0,1296.023694399999,,,,,,,,,,,,,,,1296.0120213999999,1296.023694399999,1296.023694399999,1296.9109991999994,1296.023694399999,1297.8444567000006,f,0,1.8139054000002943,None,direct,18,[18],1,shifteddirectgaze.png,f,0,3,results28,001,2026-04-20_12h41.18.726,mogelijke versie adaptive staircase builder,,2026.1.3,60.079906275732384,2026-04-20 12h41.19.130147 +0200,
20.5,ecc10neg,right,3,0,3,f,1,1.5570105999995576,None,0,2,2,2,3,0,3,0,1297.9609168999996,,,,,,,,,,,,,,,1297.9490418999994,1297.9609168999996,1297.9609168999996,1298.8441674000005,1297.9609168999996,1299.5278644999999,f,1,1.5570105999995576,None,right,19,"[18, 19]",2,shiftedgaze_R_19.png,f,1,3,results28,001,2026-04-20_12h41.18.726,mogelijke versie adaptive staircase builder,,2026.1.3,60.079906275732384,2026-04-20 12h41.19.130147 +0200,
20.5,ecc10neg,right,4,0,4,f,0,1.4054909999995289,None,0,2,2,2,4,0,4,0,1299.6401915999995,,,,,,,,,,,,,,,1299.6282176999994,1299.6401915999995,1299.6401915999995,1300.5275416000004,1299.6401915999995,1301.0611394999996,f,0,1.4054909999995289,None,direct,18,"[18, 19, 18]",3,shifteddirectgaze.png,f,0,3,results28,001,2026-04-20_12h41.18.726,mogelijke versie adaptive staircase builder,,2026.1.3,60.079906275732384,2026-04-20 12h41.19.130147 +0200,
20.5,ecc10neg,right,5,0,5,f,0,1.96772239999882,None,0,2,2,2,5,0,5,0,1301.150177899999,,,,,,,,,,,,,,,1301.1396616000002,1301.150177899999,1301.150177899999,1302.0607858999992,1301.150177899999,1303.127753499999,f,0,1.96772239999882,None,direct,19,"[18, 19, 18]",3,shifteddirectgaze.png,f,0,3,results28,001,2026-04-20_12h41.18.726,mogelijke versie adaptive staircase builder,,2026.1.3,60.079906275732384,2026-04-20 12h41.19.130147 +0200,
20.5,ecc10neg,right,6,0,6,f,1,1.5626071999995474,None,0,2,2,2,6,0,6,0,1303.2510194999995,,,,,,,,,,,,,,,1303.2390290999992,1303.2510194999995,1303.2510194999995,1304.1274531999989,1303.2510194999995,1304.8280391999997,f,1,1.5626071999995474,None,right,20,"[18, 19, 18, 20]",4,shiftedgaze_R_20.png,f,1,3,results28,001,2026-04-20_12h41.18.726,mogelijke versie adaptive staircase builder,,2026.1.3,60.079906275732384,2026-04-20 12h41.19.130147 +0200,
20.5,ecc10neg,right,7,0,7,f,0,1.7519874999998137,None,0,2,2,2,7,0,7,0,1304.9417890999994,,,,,,,,,,,,,,,1304.9308168999996,1304.9417890999994,1304.9417890999994,1305.8274198999989,1304.9417890999994,1306.6942488000004,f,0,1.7519874999998137,None,direct,19,"[18, 19, 18, 20, 19]",5,shifteddirectgaze.png,f,0,3,results28,001,2026-04-20_12h41.18.726,mogelijke versie adaptive staircase builder,,2026.1.3,60.079906275732384,2026-04-20 12h41.19.130147 +0200,
20.5,ecc10neg,right,8,0,8,j,0,1.7091119999986404,None,0,2,2,2,8,0,8,0,1306.7925302000003,,,,,,,,,,,,,,,1306.7821454000004,1306.7925302000003,1306.7925302000003,1307.6939982999993,1306.7925302000003,1308.5111137000004,j,0,1.7091119999986404,None,left,20,"[18, 19, 18, 20, 19]",5,shiftedgaze_L_20.png,j,0,3,results28,001,2026-04-20_12h41.18.726,mogelijke versie adaptive staircase builder,,2026.1.3,60.079906275732384,2026-04-20 12h41.19.130147 +0200,
20.5,ecc10neg,right,9,0,9,f,1,1.8975706999990507,None,0,2,2,2,9,0,9,0,1308.6280912000002,,,,,,,,,,,,,,,1308.6167105000004,1308.6280912000002,1308.6280912000002,1309.5109250999994,1308.6280912000002,1310.5277103999997,f,1,1.8975706999990507,None,right,20,"[18, 19, 18, 20, 19, 20]",6,shiftedgaze_R_20.png,f,1,3,results28,001,2026-04-20_12h41.18.726,mogelijke versie adaptive staircase builder,,2026.1.3,60.079906275732384,2026-04-20 12h41.19.130147 +0200,
20.5,ecc10neg,right,10,0,10,j,0,2.0625067000000854,None,0,2,2,2,10,0,10,0,1310.6476230999997,,,,,,,,,,,,,,,1310.6360122999995,1310.6476230999997,1310.6476230999997,1311.5272839999998,1310.6476230999997,1312.7109901999993,j,0,2.0625067000000854,None,left,19,"[18, 19, 18, 20, 19, 20, 19]",7,shiftedgaze_L_19.png,j,0,3,results28,001,2026-04-20_12h41.18.726,mogelijke versie adaptive staircase builder,,2026.1.3,60.079906275732384,2026-04-20 12h41.19.130147 +0200,
20.5,ecc10neg,right,11,0,11,j,0,1.6167703000010079,None,0,2,2,2,11,0,11,0,1312.8049050999998,,,,,,,,,,,,,,,1312.7939929999993,1312.8049050999998,1312.8049050999998,1313.7106165000005,1312.8049050999998,1314.4276025999989,j,0,1.6167703000010079,None,left,20,"[18, 19, 18, 20, 19, 20, 19]",7,shiftedgaze_L_20.png,j,0,3,results28,001,2026-04-20_12h41.18.726,mogelijke versie adaptive staircase builder,,2026.1.3,60.079906275732384,2026-04-20 12h41.19.130147 +0200,
20.5,ecc10neg,right,12,0,12,f,0,1.9350959000003058,None,0,2,2,2,12,0,12,0,1314.5185999000005,,,,,,,,,,,,,,,1314.5050701,1314.5185999000005,1314.5185999000005,1315.4272175999995,1314.5185999000005,1316.460950999999,f,0,1.9350959000003058,None,direct,20,"[18, 19, 18, 20, 19, 20, 19]",7,shifteddirectgaze.png,f,0,3,results28,001,2026-04-20_12h41.18.726,mogelijke versie adaptive staircase builder,,2026.1.3,60.079906275732384,2026-04-20 12h41.19.130147 +0200,
20.5,ecc10neg,right,13,0,13,f,0,1.8718071000002965,None,0,2,2,2,13,0,13,0,1316.5499039000006,,,,,,,,,,,,,,,1316.5387173999989,1316.5499039000006,1316.5499039000006,1317.460549899999,1316.5499039000006,1318.427667,f,0,1.8718071000002965,None,direct,20,"[18, 19, 18, 20, 19, 20, 19]",7,shifteddirectgaze.png,f,0,3,results28,001,2026-04-20_12h41.18.726,mogelijke versie adaptive staircase builder,,2026.1.3,60.079906275732384,2026-04-20 12h41.19.130147 +0200,
20.5,ecc10neg,right,14,0,14,f,0,2.783890099999553,None,0,2,2,2,14,0,14,0,1318.517822599999,,,,,,,,,,,,,,,1318.5070964000006,1318.517822599999,1318.517822599999,1319.427170699999,1318.517822599999,1321.310824099999,f,0,2.783890099999553,None,direct,20,"[18, 19, 18, 20, 19, 20, 19]",7,shifteddirectgaze.png,f,0,3,results28,001,2026-04-20_12h41.18.726,mogelijke versie adaptive staircase builder,,2026.1.3,60.079906275732384,2026-04-20 12h41.19.130147 +0200,
20.5,ecc10neg,right,15,0,15,f,0,1.8833356000013737,None,0,2,2,2,15,0,15,0,1321.402649399999,,,,,,,,,,,,,,,1321.3913171000004,1321.402649399999,1321.402649399999,1322.3106611999992,1321.402649399999,1323.2940376999995,f,0,1.8833356000013737,None,direct,20,"[18, 19, 18, 20, 19, 20, 19]",7,shifteddirectgaze.png,f,0,3,results28,001,2026-04-20_12h41.18.726,mogelijke versie adaptive staircase builder,,2026.1.3,60.079906275732384,2026-04-20 12h41.19.130147 +0200,
20.5,ecc10neg,right,16,0,16,f,1,1.589137099999789,None,0,2,2,2,16,0,16,0,1323.408546999999,,,,,,,,,,,,,,,1323.396976099999,1323.408546999999,1323.408546999999,1324.2939155999993,1323.408546999999,1325.0107523999995,f,1,1.589137099999789,None,right,20,"[18, 19, 18, 20, 19, 20, 19, 20]",8,shiftedgaze_R_20.png,f,1,3,results28,001,2026-04-20_12h41.18.726,mogelijke versie adaptive staircase builder,,2026.1.3,60.079906275732384,2026-04-20 12h41.19.130147 +0200,
20.5,ecc10neg,right,17,0,17,f,1,1.5000645000000077,None,0,2,2,2,17,0,17,0,1325.1055617999991,,,,,,,,,,,,,,,1325.0944879999988,1325.1055617999991,1325.1055617999991,1326.0103643999992,1325.1055617999991,1326.610800999999,f,1,1.5000645000000077,None,right,19,"[18, 19, 18, 20, 19, 20, 19, 20]",8,shiftedgaze_R_19.png,f,1,3,results28,001,2026-04-20_12h41.18.726,mogelijke versie adaptive staircase builder,,2026.1.3,60.079906275732384,2026-04-20 12h41.19.130147 +0200,
20.5,ecc10neg,right,18,0,18,j,0,1.6056138999992982,None,0,2,2,2,18,0,18,0,1326.7284586999995,,,,,,,,,,,,,,,1326.717190899999,1326.7284586999995,1326.7284586999995,1327.610440999999,1326.7284586999995,1328.3440487999997,j,0,1.6056138999992982,None,left,18,"[18, 19, 18, 20, 19, 20, 19, 20, 18]",9,shiftedgaze_L_18.png,j,0,3,results28,001,2026-04-20_12h41.18.726,mogelijke versie adaptive staircase builder,,2026.1.3,60.079906275732384,2026-04-20 12h41.19.130147 +0200,
20.5,ecc10neg,right,19,0,19,f,1,1.5800073999998858,None,0,2,2,2,19,0,19,0,1328.4576521,,,,,,,,,,,,,,,1328.4458116000005,1328.4576521,1328.4576521,1329.343737699999,1328.4576521,1330.0439267000002,f,1,1.5800073999998858,None,right,19,"[18, 19, 18, 20, 19, 20, 19, 20, 18, 19]",10,shiftedgaze_R_19.png,f,1,3,results28,001,2026-04-20_12h41.18.726,mogelijke versie adaptive staircase builder,,2026.1.3,60.079906275732384,2026-04-20 12h41.19.130147 +0200,
20.5,ecc10neg,right,20,0,20,f,0,1.645225999998729,None,0,2,2,2,20,0,20,0,1330.1524965999997,,,,,,,,,,,,,,,1330.140335099999,1330.1524965999997,1330.1524965999997,1331.0436527000002,1330.1524965999997,1331.8106434000001,f,0,1.645225999998729,None,direct,18,"[18, 19, 18, 20, 19, 20, 19, 20, 18, 19, 18]",11,shifteddirectgaze.png,f,0,3,results28,001,2026-04-20_12h41.18.726,mogelijke versie adaptive staircase builder,,2026.1.3,60.079906275732384,2026-04-20 12h41.19.130147 +0200,
20.5,ecc10neg,right,21,0,21,f,0,1.6248841999986325,None,0,2,2,2,21,0,21,0,1331.9010096999991,,,,,,,,,,,,,,,1331.8896365,1331.9010096999991,1331.9010096999991,1332.8102734999993,1331.9010096999991,1333.527443699999,f,0,1.6248841999986325,None,direct,19,"[18, 19, 18, 20, 19, 20, 19, 20, 18, 19, 18]",11,shifteddirectgaze.png,f,0,3,results28,001,2026-04-20_12h41.18.726,mogelijke versie adaptive staircase builder,,2026.1.3,60.079906275732384,2026-04-20 12h41.19.130147 +0200,
20.5,ecc10neg,right,22,0,22,f,1,1.4181083000003127,None,0,2,2,2,22,0,22,0,1333.6435256000004,,,,,,,,,,,,,,,1333.6322034999994,1333.6435256000004,1333.6435256000004,1334.5268197999994,1333.6435256000004,1335.0773585999996,f,1,1.4181083000003127,None,right,20,"[18, 19, 18, 20, 19, 20, 19, 20, 18, 19, 18, 20]",12,shiftedgaze_R_20.png,f,1,3,results28,001,2026-04-20_12h41.18.726,mogelijke versie adaptive staircase builder,,2026.1.3,60.079906275732384,2026-04-20 12h41.19.130147 +0200,
20.5,ecc10neg,right,23,0,23,f,1,1.8303698999989138,None,0,2,2,2,23,0,23,0,1335.1753073,,,,,,,,,,,,,,,1335.1640848999996,1335.1753073,1335.1753073,1336.0769449,1335.1753073,1337.0106634000003,f,1,1.8303698999989138,None,right,19,"[18, 19, 18, 20, 19, 20, 19, 20, 18, 19, 18, 20]",12,shiftedgaze_R_19.png,f,1,3,results28,001,2026-04-20_12h41.18.726,mogelijke versie adaptive staircase builder,,2026.1.3,60.079906275732384,2026-04-20 12h41.19.130147 +0200,
20.5,ecc10neg,right,24,0,24,f,1,1.682250899999417,None,0,2,2,2,24,0,24,0,1337.1154305,,,,,,,,,,,,,,,1337.1036337999994,1337.1154305,1337.1154305,1338.0101457,1337.1154305,1338.8106088000004,f,1,1.682250899999417,None,right,18,"[18, 19, 18, 20, 19, 20, 19, 20, 18, 19, 18, 20]",12,shiftedgaze_R_18.png,f,1,3,results28,001,2026-04-20_12h41.18.726,mogelijke versie adaptive staircase builder,,2026.1.3,60.079906275732384,2026-04-20 12h41.19.130147 +0200,
20.5,ecc10neg,right,25,0,25,j,0,1.8865112000003137,None,0,2,2,2,25,0,25,0,1338.9272044999998,,,,,,,,,,,,,,,1338.9161172999993,1338.9272044999998,1338.9272044999998,1339.8102438000005,1338.9272044999998,1340.8278470999994,j,0,1.8865112000003137,None,left,17,"[18, 19, 18, 20, 19, 20, 19, 20, 18, 19, 18, 20, 17]",13,shiftedgaze_L_17.png,j,0,3,results28,001,2026-04-20_12h41.18.726,mogelijke versie adaptive staircase builder,,2026.1.3,60.079906275732384,2026-04-20 12h41.19.130147 +0200,
20.5,ecc10neg,right,26,0,26,f,0,1.8845514999993611,None,0,2,2,2,26,0,26,0,1340.9211999999989,,,,,,,,,,,,,,,1340.9099005999997,1340.9211999999989,1340.9211999999989,1341.8438334000002,1340.9211999999989,1342.8104877000005,f,0,1.8845514999993611,None,direct,18,"[18, 19, 18, 20, 19, 20, 19, 20, 18, 19, 18, 20, 17]",13,shifteddirectgaze.png,f,0,3,results28,001,2026-04-20_12h41.18.726,mogelijke versie adaptive staircase builder,,2026.1.3,60.079906275732384,2026-04-20 12h41.19.130147 +0200,
20.5,ecc10neg,right,27,0,27,f,1,1.707872099999804,None,0,2,2,2,27,0,27,0,1342.9297862999993,,,,,,,,,,,,,,,1342.9156614000003,1342.9297862999993,1342.9297862999993,1343.8102000999988,1342.9297862999993,1344.643893299999,f,1,1.707872099999804,None,right,19,"[18, 19, 18, 20, 19, 20, 19, 20, 18, 19, 18, 20, 17, 19]",14,shiftedgaze_R_19.png,f,1,3,results28,001,2026-04-20_12h41.18.726,mogelijke versie adaptive staircase builder,,2026.1.3,60.079906275732384,2026-04-20 12h41.19.130147 +0200,
20.5,ecc10neg,right,28,0,28,f,1,1.5705127000001085,None,0,2,2,2,28,0,28,0,1344.739285399999,,,,,,,,,,,,,,,1344.7286089999998,1344.739285399999,1344.739285399999,1345.6435292999995,1344.739285399999,1346.3105591000003,f,1,1.5705127000001085,None,right,18,"[18, 19, 18, 20, 19, 20, 19, 20, 18, 19, 18, 20, 17, 19]",14,shiftedgaze_R_18.png,f,1,3,results28,001,2026-04-20_12h41.18.726,mogelijke versie adaptive staircase builder,,2026.1.3,60.079906275732384,2026-04-20 12h41.19.130147 +0200,
20.5,ecc10neg,right,29,0,29,f,0,1.9613177999999607,None,0,2,2,2,29,0,29,0,1346.4204076999995,,,,,,,,,,,,,,,1346.4087025999997,1346.4204076999995,1346.4204076999995,1347.3101121,1346.4204076999995,1348.3941718000005,f,0,1.9613177999999607,None,direct,17,"[18, 19, 18, 20, 19, 20, 19, 20, 18, 19, 18, 20, 17, 19, 17]",15,shifteddirectgaze.png,f,0,3,results28,001,2026-04-20_12h41.18.726,mogelijke versie adaptive staircase builder,,2026.1.3,60.079906275732384,2026-04-20 12h41.19.130147 +0200,
20.5,ecc10neg,right,30,0,30,f,0,1.633448499998849,None,0,2,2,2,30,0,30,0,1348.4842700999998,,,,,,,,,,,,,,,1348.4739326999988,1348.4842700999998,1348.4842700999998,1349.3938497999989,1348.4842700999998,1350.127129299999,f,0,1.633448499998849,None,direct,18,"[18, 19, 18, 20, 19, 20, 19, 20, 18, 19, 18, 20, 17, 19, 17]",15,shifteddirectgaze.png,f,0,3,results28,001,2026-04-20_12h41.18.726,mogelijke versie adaptive staircase builder,,2026.1.3,60.079906275732384,2026-04-20 12h41.19.130147 +0200,
20.5,ecc10neg,right,31,0,31,f,0,1.873624200001359,None,0,2,2,2,31,0,31,0,1350.2203270999998,,,,,,,,,,,,,,,1350.2090200000002,1350.2203270999998,1350.2203270999998,1351.1265865999994,1350.2203270999998,1352.1104560999993,f,0,1.873624200001359,None,direct,19,"[18, 19, 18, 20, 19, 20, 19, 20, 18, 19, 18, 20, 17, 19, 17]",15,shifteddirectgaze.png,f,0,3,results28,001,2026-04-20_12h41.18.726,mogelijke versie adaptive staircase builder,,2026.1.3,60.079906275732384,2026-04-20 12h41.19.130147 +0200,
20.5,ecc10neg,right,32,0,32,j,0,1.7193368999996892,None,0,2,2,2,32,0,32,0,1352.2064601000002,,,,,,,,,,,,,,,1352.1931710999997,1352.2064601000002,1352.2064601000002,1353.1105401999994,1352.2064601000002,1353.9271102000002,j,0,1.7193368999996892,None,left,20,"[18, 19, 18, 20, 19, 20, 19, 20, 18, 19, 18, 20, 17, 19, 17]",15,shiftedgaze_L_20.png,j,0,3,results28,001,2026-04-20_12h41.18.726,mogelijke versie adaptive staircase builder,,2026.1.3,60.079906275732384,2026-04-20 12h41.19.130147 +0200,
20.5,ecc10neg,right,33,0,33,f,0,1.690702500000043,None,0,2,2,2,33,0,33,0,1354.0191484999996,,,,,,,,,,,,,,,1354.008737799999,1354.0191484999996,1354.0191484999996,1354.926727099999,1354.0191484999996,1355.7104805999988,f,0,1.690702500000043,None,direct,20,"[18, 19, 18, 20, 19, 20, 19, 20, 18, 19, 18, 20, 17, 19, 17]",15,shifteddirectgaze.png,f,0,3,results28,001,2026-04-20_12h41.18.726,mogelijke versie adaptive staircase builder,,2026.1.3,60.079906275732384,2026-04-20 12h41.19.130147 +0200,
20.5,ecc10neg,right,34,0,34,f,0,1.593525899999804,None,0,2,2,2,34,0,34,0,1355.804218899999,,,,,,,,,,,,,,,1355.7938737999993,1355.804218899999,1355.804218899999,1356.7100334999996,1355.804218899999,1357.4104463000003,f,0,1.593525899999804,None,direct,20,"[18, 19, 18, 20, 19, 20, 19, 20, 18, 19, 18, 20, 17, 19, 17]",15,shifteddirectgaze.png,f,0,3,results28,001,2026-04-20_12h41.18.726,mogelijke versie adaptive staircase builder,,2026.1.3,60.079906275732384,2026-04-20 12h41.19.130147 +0200,
20.5,ecc10neg,right,35,0,35,f,1,1.4172335000002931,None,0,2,2,2,35,0,35,0,1357.5246523000005,,,,,,,,,,,,,,,1357.5130186000006,1357.5246523000005,1357.5246523000005,1358.4101248999996,1357.5246523000005,1358.9437567000004,f,1,1.4172335000002931,None,right,20,"[18, 19, 18, 20, 19, 20, 19, 20, 18, 19, 18, 20, 17, 19, 17, 20]",16,shiftedgaze_R_20.png,f,1,3,results28,001,2026-04-20_12h41.18.726,mogelijke versie adaptive staircase builder,,2026.1.3,60.079906275732384,2026-04-20 12h41.19.130147 +0200,
20.5,ecc10neg,right,36,0,36,j,0,1.6163366000000678,None,0,2,2,2,36,0,36,0,1359.0535185999997,,,,,,,,,,,,,,,1359.0422897999997,1359.0535185999997,1359.0535185999997,1359.9433596,1359.0535185999997,1360.676995599999,j,0,1.6163366000000678,None,left,19,"[18, 19, 18, 20, 19, 20, 19, 20, 18, 19, 18, 20, 17, 19, 17, 20, 19]",17,shiftedgaze_L_19.png,j,0,3,results28,001,2026-04-20_12h41.18.726,mogelijke versie adaptive staircase builder,,2026.1.3,60.079906275732384,2026-04-20 12h41.19.130147 +0200,
20.5,ecc10neg,right,37,0,37,f,1,1.948700999999346,None,0,2,2,2,37,0,37,0,1360.7930667,,,,,,,,,,,,,,,1360.7816162999989,1360.7930667,1360.7930667,1361.6766234000006,1360.7930667,1362.7436046000003,f,1,1.948700999999346,None,right,20,"[18, 19, 18, 20, 19, 20, 19, 20, 18, 19, 18, 20, 17, 19, 17, 20, 19, 20]",18,shiftedgaze_R_20.png,f,1,3,results28,001,2026-04-20_12h41.18.726,mogelijke versie adaptive staircase builder,,2026.1.3,60.079906275732384,2026-04-20 12h41.19.130147 +0200,
20.5,ecc10neg,right,38,0,38,f,0,1.6560788999995566,None,0,2,2,2,38,0,38,0,1362.8538444000005,,,,,,,,,,,,,,,1362.8426591999996,1362.8538444000005,1362.8538444000005,1363.7432869000004,1362.8538444000005,1364.5102955999992,f,0,1.6560788999995566,None,direct,19,"[18, 19, 18, 20, 19, 20, 19, 20, 18, 19, 18, 20, 17, 19, 17, 20, 19, 20, 19]",19,shifteddirectgaze.png,f,0,3,results28,001,2026-04-20_12h41.18.726,mogelijke versie adaptive staircase builder,,2026.1.3,60.079906275732384,2026-04-20 12h41.19.130147 +0200,
20.5,ecc10neg,right,39,0,39,f,1,1.5072235999996337,None,0,2,2,2,39,0,39,0,1364.626401899999,,,,,,,,,,,,,,,1364.6148166999992,1364.626401899999,1364.626401899999,1365.5100549,1364.626401899999,1366.1436178000004,f,1,1.5072235999996337,None,right,20,"[18, 19, 18, 20, 19, 20, 19, 20, 18, 19, 18, 20, 17, 19, 17, 20, 19, 20, 19, 20]",20,shiftedgaze_R_20.png,f,1,3,results28,001,2026-04-20_12h41.18.726,mogelijke versie adaptive staircase builder,,2026.1.3,60.079906275732384,2026-04-20 12h41.19.130147 +0200,
20.5,ecc10neg,right,40,0,40,f,1,1.3715662000013253,None,0,2,2,2,40,0,40,0,1366.290123499999,,,,,,,,,,,,,,,1366.2786787000005,1366.290123499999,1366.290123499999,1367.1433340999993,1366.290123499999,1367.6769513999989,f,1,1.3715662000013253,None,left,19,"[18, 19, 18, 20, 19, 20, 19, 20, 18, 19, 18, 20, 17, 19, 17, 20, 19, 20, 19, 20]",20,shiftedgaze_L_19.png,f,1,3,results28,001,2026-04-20_12h41.18.726,mogelijke versie adaptive staircase builder,,2026.1.3,60.079906275732384,2026-04-20 12h41.19.130147 +0200,
20.5,ecc10neg,right,41,0,41,j,0,1.5631757999999536,None,0,2,2,2,41,0,41,0,1367.7704460000004,,,,,,,,,,,,,,,1367.7593782999993,1367.7704460000004,1367.7704460000004,1368.6764537,1367.7704460000004,1369.3435905000006,j,0,1.5631757999999536,None,left,18,"[18, 19, 18, 20, 19, 20, 19, 20, 18, 19, 18, 20, 17, 19, 17, 20, 19, 20, 19, 20, 18]",21,shiftedgaze_L_18.png,j,0,3,results28,001,2026-04-20_12h41.18.726,mogelijke versie adaptive staircase builder,,2026.1.3,60.079906275732384,2026-04-20 12h41.19.130147 +0200,
20.5,ecc10neg,right,42,0,42,f,0,1.7452672999988863,None,0,2,2,2,42,0,42,0,1369.4364826,,,,,,,,,,,,,,,1369.4248718,1369.4364826,1369.4364826,1370.3433021,1369.4364826,1371.1934574999996,f,0,1.7452672999988863,None,direct,19,"[18, 19, 18, 20, 19, 20, 19, 20, 18, 19, 18, 20, 17, 19, 17, 20, 19, 20, 19, 20, 18]",21,shifteddirectgaze.png,f,0,3,results28,001,2026-04-20_12h41.18.726,mogelijke versie adaptive staircase builder,,2026.1.3,60.079906275732384,2026-04-20 12h41.19.130147 +0200,
20.5,ecc10neg,right,43,0,43,j,0,1.8162059999995108,None,0,2,2,2,43,0,43,0,1371.2854970999997,,,,,,,,,,,,,,,1371.2750954000003,1371.2854970999997,1371.2854970999997,1372.1932650999988,1371.2854970999997,1373.1102470999995,j,0,1.8162059999995108,None,left,20,"[18, 19, 18, 20, 19, 20, 19, 20, 18, 19, 18, 20, 17, 19, 17, 20, 19, 20, 19, 20, 18]",21,shiftedgaze_L_20.png,j,0,3,results28,001,2026-04-20_12h41.18.726,mogelijke versie adaptive staircase builder,,2026.1.3,60.079906275732384,2026-04-20 12h41.19.130147 +0200,
20.5,ecc10neg,right,44,0,44,f,0,1.779523799999879,None,0,2,2,2,44,0,44,0,1373.2022216000005,,,,,,,,,,,,,,,1373.1912474,1373.2022216000005,1373.2022216000005,1374.1097334000006,1373.2022216000005,1374.9934042000004,f,0,1.779523799999879,None,direct,20,"[18, 19, 18, 20, 19, 20, 19, 20, 18, 19, 18, 20, 17, 19, 17, 20, 19, 20, 19, 20, 18]",21,shifteddirectgaze.png,f,0,3,results28,001,2026-04-20_12h41.18.726,mogelijke versie adaptive staircase builder,,2026.1.3,60.079906275732384,2026-04-20 12h41.19.130147 +0200,
20.5,ecc10neg,right,45,0,45,f,0,1.6869993999989674,None,0,2,2,2,45,0,45,0,1375.0867550999992,,,,,,,,,,,,,,,1375.0757044999991,1375.0867550999992,1375.0867550999992,1375.9930700999994,1375.0867550999992,1376.7768711999997,f,0,1.6869993999989674,None,direct,20,"[18, 19, 18, 20, 19, 20, 19, 20, 18, 19, 18, 20, 17, 19, 17, 20, 19, 20, 19, 20, 18]",21,shifteddirectgaze.png,f,0,3,results28,001,2026-04-20_12h41.18.726,mogelijke versie adaptive staircase builder,,2026.1.3,60.079906275732384,2026-04-20 12h41.19.130147 +0200,
20.5,ecc10neg,right,46,0,46,f,0,1.8565514999991137,None,0,2,2,2,46,0,46,0,1376.8694302000004,,,,,,,,,,,,,,,1376.8584059000004,1376.8694302000004,1376.8694302000004,1377.7764066,1376.8694302000004,1378.726915199999,f,0,1.8565514999991137,None,direct,20,"[18, 19, 18, 20, 19, 20, 19, 20, 18, 19, 18, 20, 17, 19, 17, 20, 19, 20, 19, 20, 18]",21,shifteddirectgaze.png,f,0,3,results28,001,2026-04-20_12h41.18.726,mogelijke versie adaptive staircase builder,,2026.1.3,60.079906275732384,2026-04-20 12h41.19.130147 +0200,
20.5,ecc10neg,right,47,0,47,j,0,1.7130668999998306,None,0,2,2,2,47,0,47,0,1378.8206697000005,,,,,,,,,,,,,,,1378.8096533999997,1378.8206697000005,1378.8206697000005,1379.7265088999993,1378.8206697000005,1380.5434351999993,j,0,1.7130668999998306,None,left,20,"[18, 19, 18, 20, 19, 20, 19, 20, 18, 19, 18, 20, 17, 19, 17, 20, 19, 20, 19, 20, 18]",21,shiftedgaze_L_20.png,j,0,3,results28,001,2026-04-20_12h41.18.726,mogelijke versie adaptive staircase builder,,2026.1.3,60.079906275732384,2026-04-20 12h41.19.130147 +0200,
20.5,ecc10neg,right,48,0,48,f,0,1.9152302999991662,None,0,2,2,2,48,0,48,0,1380.6350289999991,,,,,,,,,,,,,,,1380.6244987999999,1380.6350289999991,1380.6350289999991,1381.5430354,1380.6350289999991,1382.5600593999989,f,0,1.9152302999991662,None,direct,20,"[18, 19, 18, 20, 19, 20, 19, 20, 18, 19, 18, 20, 17, 19, 17, 20, 19, 20, 19, 20, 18]",21,shifteddirectgaze.png,f,0,3,results28,001,2026-04-20_12h41.18.726,mogelijke versie adaptive staircase builder,,2026.1.3,60.079906275732384,2026-04-20 12h41.19.130147 +0200,
20.5,ecc10neg,right,49,0,49,f,0,1.615668000000369,None,0,2,2,2,49,0,49,0,1382.6541799000006,,,,,,,,,,,,,,,1382.6428940999995,1382.6541799000006,1382.6541799000006,1383.559678399999,1382.6541799000006,1384.2766976000003,f,0,1.615668000000369,None,direct,20,"[18, 19, 18, 20, 19, 20, 19, 20, 18, 19, 18, 20, 17, 19, 17, 20, 19, 20, 19, 20, 18]",21,shifteddirectgaze.png,f,0,3,results28,001,2026-04-20_12h41.18.726,mogelijke versie adaptive staircase builder,,2026.1.3,60.079906275732384,2026-04-20 12h41.19.130147 +0200,
20.5,ecc10neg,right,50,0,50,j,0,1.699238900000637,None,0,2,2,2,50,0,50,0,1384.3706222,,,,,,,,,,,,,,,1384.3588184,1384.3706222,1384.3706222,1385.2763835999995,1384.3706222,1386.0766313999993,j,0,1.699238900000637,None,left,20,"[18, 19, 18, 20, 19, 20, 19, 20, 18, 19, 18, 20, 17, 19, 17, 20, 19, 20, 19, 20, 18]",21,shiftedgaze_L_20.png,j,0,3,results28,001,2026-04-20_12h41.18.726,mogelijke versie adaptive staircase builder,,2026.1.3,60.079906275732384,2026-04-20 12h41.19.130147 +0200,
20.5,ecc10neg,right,51,0,51,j,0,1.683402800001204,None,0,2,2,2,51,0,51,0,1386.1703307999996,,,,,,,,,,,,,,,1386.1589693000005,1386.1703307999996,1386.1703307999996,1387.0763291000003,1386.1703307999996,1387.8598733999988,j,0,1.683402800001204,None,left,20,"[18, 19, 18, 20, 19, 20, 19, 20, 18, 19, 18, 20, 17, 19, 17, 20, 19, 20, 19, 20, 18]",21,shiftedgaze_L_20.png,j,0,3,results28,001,2026-04-20_12h41.18.726,mogelijke versie adaptive staircase builder,,2026.1.3,60.079906275732384,2026-04-20 12h41.19.130147 +0200,
20.5,ecc10neg,right,52,0,52,f,0,1.8975171000001865,None,0,2,2,2,52,0,52,0,1387.956322099999,,,,,,,,,,,,,,,1387.9432218999991,1387.956322099999,1387.956322099999,1388.8596034000002,1387.956322099999,1389.8599034999988,f,0,1.8975171000001865,None,direct,20,"[18, 19, 18, 20, 19, 20, 19, 20, 18, 19, 18, 20, 17, 19, 17, 20, 19, 20, 19, 20, 18]",21,shifteddirectgaze.png,f,0,3,results28,001,2026-04-20_12h41.18.726,mogelijke versie adaptive staircase builder,,2026.1.3,60.079906275732384,2026-04-20 12h41.19.130147 +0200,
20.5,ecc10neg,right,53,0,53,f,1,2.014416199999687,None,0,2,2,2,53,0,53,0,1389.975409499999,,,,,,,,,,,,,,,1389.9634898000004,1389.975409499999,1389.975409499999,1390.8596324999999,1389.975409499999,1391.9932411999998,f,1,2.014416199999687,None,right,20,"[18, 19, 18, 20, 19, 20, 19, 20, 18, 19, 18, 20, 17, 19, 17, 20, 19, 20, 19, 20, 18, 20]",22,shiftedgaze_R_20.png,f,1,3,results28,001,2026-04-20_12h41.18.726,mogelijke versie adaptive staircase builder,,2026.1.3,60.079906275732384,2026-04-20 12h41.19.130147 +0200,
20.5,ecc10neg,right,54,0,54,j,0,1.768999600000825,None,0,2,2,2,54,0,54,0,1392.1009892999991,,,,,,,,,,,,,,,1392.0895070999995,1392.1009892999991,1392.1009892999991,1392.9931464000001,1392.1009892999991,1393.8765239999993,j,0,1.768999600000825,None,left,19,"[18, 19, 18, 20, 19, 20, 19, 20, 18, 19, 18, 20, 17, 19, 17, 20, 19, 20, 19, 20, 18, 20, 19]",23,shiftedgaze_L_19.png,j,0,3,results28,001,2026-04-20_12h41.18.726,mogelijke versie adaptive staircase builder,,2026.1.3,60.079906275732384,2026-04-20 12h41.19.130147 +0200,
20.5,ecc10neg,right,55,0,55,j,0,1.6947835000009945,None,0,2,2,2,55,0,55,0,1393.9670215999995,,,,,,,,,,,,,,,1393.9560056999999,1393.9670215999995,1393.9670215999995,1394.8761985,1393.9670215999995,1395.6765063000003,j,0,1.6947835000009945,None,left,20,"[18, 19, 18, 20, 19, 20, 19, 20, 18, 19, 18, 20, 17, 19, 17, 20, 19, 20, 19, 20, 18, 20, 19]",23,shiftedgaze_L_20.png,j,0,3,results28,001,2026-04-20_12h41.18.726,mogelijke versie adaptive staircase builder,,2026.1.3,60.079906275732384,2026-04-20 12h41.19.130147 +0200,
20.5,ecc10neg,right,56,0,56,f,1,1.666557799999282,None,0,2,2,2,56,0,56,0,1395.7952525,,,,,,,,,,,,,,,1395.7836042,1395.7952525,1395.7952525,1396.6761317,1395.7952525,1397.4766328000005,f,1,1.666557799999282,None,right,20,"[18, 19, 18, 20, 19, 20, 19, 20, 18, 19, 18, 20, 17, 19, 17, 20, 19, 20, 19, 20, 18, 20, 19, 20]",24,shiftedgaze_R_20.png,f,1,3,results28,001,2026-04-20_12h41.18.726,mogelijke versie adaptive staircase builder,,2026.1.3,60.079906275732384,2026-04-20 12h41.19.130147 +0200,
20.5,ecc10neg,right,57,0,57,f,0,1.756808900001488,None,0,2,2,2,57,0,57,0,1397.5850455,,,,,,,,,,,,,,,1397.5733115000003,1397.5850455,1397.5850455,1398.4761199000004,1397.5850455,1399.3431652,f,0,1.756808900001488,None,direct,19,"[18, 19, 18, 20, 19, 20, 19, 20, 18, 19, 18, 20, 17, 19, 17, 20, 19, 20, 19, 20, 18, 20, 19, 20, 19]",25,shifteddirectgaze.png,f,0,3,results28,001,2026-04-20_12h41.18.726,mogelijke versie adaptive staircase builder,,2026.1.3,60.079906275732384,2026-04-20 12h41.19.130147 +0200,
20.5,ecc10neg,right,58,0,58,f,0,1.6274797000005492,None,0,2,2,2,58,0,58,0,1399.4343530000006,,,,,,,,,,,,,,,1399.4233430999993,1399.4343530000006,1399.4343530000006,1400.3427809999994,1399.4343530000006,1401.0764304000004,f,0,1.6274797000005492,None,direct,20,"[18, 19, 18, 20, 19, 20, 19, 20, 18, 19, 18, 20, 17, 19, 17, 20, 19, 20, 19, 20, 18, 20, 19, 20, 19]",25,shifteddirectgaze.png,f,0,3,results28,001,2026-04-20_12h41.18.726,mogelijke versie adaptive staircase builder,,2026.1.3,60.079906275732384,2026-04-20 12h41.19.130147 +0200,
20.5,ecc10neg,right,59,0,59,j,0,1.6625024999993911,None,0,2,2,2,59,0,59,0,1401.1672877,,,,,,,,,,,,,,,1401.1563315999992,1401.1672877,1401.1672877,1402.0761301999992,1401.1672877,1402.8431383999996,j,0,1.6625024999993911,None,left,20,"[18, 19, 18, 20, 19, 20, 19, 20, 18, 19, 18, 20, 17, 19, 17, 20, 19, 20, 19, 20, 18, 20, 19, 20, 19]",25,shiftedgaze_L_20.png,j,0,3,results28,001,2026-04-20_12h41.18.726,mogelijke versie adaptive staircase builder,,2026.1.3,60.079906275732384,2026-04-20 12h41.19.130147 +0200,
20.5,ecc10neg,right,2,2,0,,,,,0,2,2,2,,,,,,,,,,,,,,,,,,,,,,,,,,,,,,,,,,,,,,results28,001,2026-04-20_12h41.18.726,mogelijke versie adaptive staircase builder,,2026.1.3,60.079906275732384,2026-04-20 12h41.19.130147 +0200,
