xPos,stimulusSet,whichImage,thisN,thisTrialN,thisRepN,key_resp.keys,key_resp.corr,key_resp.rt,key_resp.duration,blocks.thisRepN,blocks.thisTrialN,blocks.thisN,blocks.thisIndex,trials.thisRepN,trials.thisTrialN,trials.thisN,trials.thisIndex,thisRow.t,notes,piloting,intro.started,introinstructions.started,intro_key.started,demo_image_left.started,demo_image_middle.started,demo_image_right.started,intro.stopped,intro_key.keys,intro_key.rt,intro_key.duration,block_start.started,block_start.stopped,trial.started,key_resp.started,middle_image.started,right_image.started,left_image.started,trial.stopped,trials.key_resp.keys,trials.key_resp.corr,trials.key_resp.rt,trials.key_resp.duration,direction,angle,reversal_intensities,number_reversals,stimulus,response,correct,blockNumber,participant,session,date,expName,expVersion,psychopyVersion,frameRate,expStart,
,,,,,,,,,,,,,,,,,,,,False,0.00349129999995057,0.00636080000003858,0.00636080000003858,0.00636080000003858,0.00636080000003858,0.00636080000003858,520.8485720999997,space,520.6835030000002,0.15165060000072117,,,,,,,,,,,,,,,,,,,,,results18,001,2026-04-14_13h55.45.498,mogelijke versie adaptive staircase builder,,2026.1.3,59.97659713142611,2026-04-14 13h55.45.769118 +0200,
4.5,ecc10pos,left,0,0,0,j,1,9.468248900000617,None,0,0,0,0,0,0,0,0,521.1651026999989,,,,,,,,,,,,,521.0649831999999,521.0650377000002,521.1614954999986,521.1651026999989,521.1651026999989,521.1651026999989,522.0642885999987,530.647925199999,j,1,9.468248900000617,None,direct,20,[],0,shifteddirectgaze.png,j,1,1,results18,001,2026-04-14_13h55.45.498,mogelijke versie adaptive staircase builder,,2026.1.3,59.97659713142611,2026-04-14 13h55.45.769118 +0200,
4.5,ecc10pos,left,1,0,1,j,0,4.567837599999621,None,0,0,0,0,1,0,1,0,530.8095526999987,,,,,,,,,,,,,,,530.804833799999,530.8095526999987,530.8095526999987,530.8095526999987,531.6482364999993,535.3813297999986,j,0,4.567837599999621,None,right,19,[19],1,shiftedgaze_R_19.png,j,0,1,results18,001,2026-04-14_13h55.45.498,mogelijke versie adaptive staircase builder,,2026.1.3,59.97659713142611,2026-04-14 13h55.45.769118 +0200,
4.5,ecc10pos,left,2,0,2,f,1,5.586602899998979,None,0,0,0,0,2,0,2,0,535.5110335999998,,,,,,,,,,,,,,,535.5011200999998,535.5110335999998,535.5110335999998,535.5110335999998,536.3818704999994,541.0985115000003,f,1,5.586602899998979,None,left,20,"[19, 20]",2,shiftedgaze_L_20.png,f,1,1,results18,001,2026-04-14_13h55.45.498,mogelijke versie adaptive staircase builder,,2026.1.3,59.97659713142611,2026-04-14 13h55.45.769118 +0200,
4.5,ecc10pos,left,3,0,3,j,0,5.058197000000291,None,0,0,0,0,3,0,3,0,541.1991738999986,,,,,,,,,,,,,,,541.1854207999986,541.1991738999986,541.1991738999986,541.1991738999986,542.0983858,546.2648343000001,j,0,5.058197000000291,None,right,19,"[19, 20, 19]",3,shiftedgaze_R_19.png,j,0,1,results18,001,2026-04-14_13h55.45.498,mogelijke versie adaptive staircase builder,,2026.1.3,59.97659713142611,2026-04-14 13h55.45.769118 +0200,
4.5,ecc10pos,left,4,0,4,f,0,2.2207418999987567,None,0,0,0,0,4,0,4,0,546.3649886000003,,,,,,,,,,,,,,,546.3549798999993,546.3649886000003,546.3649886000003,546.3649886000003,547.2812803999986,548.5983600999989,f,0,2.2207418999987567,None,direct,20,"[19, 20, 19]",3,shifteddirectgaze.png,f,0,1,results18,001,2026-04-14_13h55.45.498,mogelijke versie adaptive staircase builder,,2026.1.3,59.97659713142611,2026-04-14 13h55.45.769118 +0200,
4.5,ecc10pos,left,5,0,5,f,1,5.611646100000144,None,0,0,0,0,5,0,5,0,548.7337289999996,,,,,,,,,,,,,,,548.7238060999989,548.7337289999996,548.7337289999996,548.7337289999996,549.5982695999992,554.3481085000003,f,1,5.611646100000144,None,left,20,"[19, 20, 19, 20]",4,shiftedgaze_L_20.png,f,1,1,results18,001,2026-04-14_13h55.45.498,mogelijke versie adaptive staircase builder,,2026.1.3,59.97659713142611,2026-04-14 13h55.45.769118 +0200,
4.5,ecc10pos,left,6,0,6,f,0,4.436021100000289,None,0,0,0,0,6,0,6,0,554.4452552999992,,,,,,,,,,,,,,,554.4350201999987,554.4452552999992,554.4452552999992,554.4452552999992,555.347854399999,558.8815349999986,f,0,4.436021100000289,None,direct,19,"[19, 20, 19, 20, 19]",5,shifteddirectgaze.png,f,0,1,results18,001,2026-04-14_13h55.45.498,mogelijke versie adaptive staircase builder,,2026.1.3,59.97659713142611,2026-04-14 13h55.45.769118 +0200,
4.5,ecc10pos,left,7,0,7,j,0,3.5720100999988063,None,0,0,0,0,7,0,7,0,558.9896966999986,,,,,,,,,,,,,,,558.9844211999989,558.9896966999986,558.9896966999986,558.9896966999986,559.8811662999997,562.5653884999992,j,0,3.5720100999988063,None,right,20,"[19, 20, 19, 20, 19]",5,shiftedgaze_R_20.png,j,0,1,results18,001,2026-04-14_13h55.45.498,mogelijke versie adaptive staircase builder,,2026.1.3,59.97659713142611,2026-04-14 13h55.45.769118 +0200,
4.5,ecc10pos,left,8,0,8,j,1,1.9848726999989594,None,0,0,0,0,8,0,8,0,562.6485094,,,,,,,,,,,,,,,562.6442584999986,562.6485094,562.6485094,562.6485094,563.5812282999996,564.6480603999989,j,1,1.9848726999989594,None,direct,20,"[19, 20, 19, 20, 19, 20]",6,shifteddirectgaze.png,j,1,1,results18,001,2026-04-14_13h55.45.498,mogelijke versie adaptive staircase builder,,2026.1.3,59.97659713142611,2026-04-14 13h55.45.769118 +0200,
4.5,ecc10pos,left,9,0,9,f,1,10.551348100001633,None,0,0,0,0,9,0,9,0,564.7700237999998,,,,,,,,,,,,,,,564.7596592999998,564.7700237999998,564.7700237999998,564.7700237999998,565.6478595999997,575.3313774999988,f,1,10.551348100001633,None,left,19,"[19, 20, 19, 20, 19, 20]",6,shiftedgaze_L_19.png,f,1,1,results18,001,2026-04-14_13h55.45.498,mogelijke versie adaptive staircase builder,,2026.1.3,59.97659713142611,2026-04-14 13h55.45.769118 +0200,
4.5,ecc10pos,left,10,0,10,f,1,8.040889699999752,None,0,0,0,0,10,0,10,0,575.4324022000001,,,,,,,,,,,,,,,575.4277791999993,575.4324022000001,575.4324022000001,575.4324022000001,576.3312659999992,583.4813391999996,f,1,8.040889699999752,None,left,18,"[19, 20, 19, 20, 19, 20]",6,shiftedgaze_L_18.png,f,1,1,results18,001,2026-04-14_13h55.45.498,mogelijke versie adaptive staircase builder,,2026.1.3,59.97659713142611,2026-04-14 13h55.45.769118 +0200,
4.5,ecc10pos,left,11,0,11,f,1,2.703722199999902,None,0,0,0,0,11,0,11,0,583.5776465999988,,,,,,,,,,,,,,,583.5733449999989,583.5776465999988,583.5776465999988,583.5776465999988,584.4812669999992,586.2816139999995,f,1,2.703722199999902,None,left,17,"[19, 20, 19, 20, 19, 20]",6,shiftedgaze_L_17.png,f,1,1,results18,001,2026-04-14_13h55.45.498,mogelijke versie adaptive staircase builder,,2026.1.3,59.97659713142611,2026-04-14 13h55.45.769118 +0200,
4.5,ecc10pos,left,12,0,12,j,1,2.2081550999992032,None,0,0,0,0,12,0,12,0,586.3852424999986,,,,,,,,,,,,,,,586.3750296999988,586.3852424999986,586.3852424999986,586.3852424999986,587.2811736999993,588.5980770999995,j,1,2.2081550999992032,None,direct,16,"[19, 20, 19, 20, 19, 20]",6,shifteddirectgaze.png,j,1,1,results18,001,2026-04-14_13h55.45.498,mogelijke versie adaptive staircase builder,,2026.1.3,59.97659713142611,2026-04-14 13h55.45.769118 +0200,
4.5,ecc10pos,left,13,0,13,j,0,3.3450551999994786,None,0,0,0,0,13,0,13,0,588.6963213999989,,,,,,,,,,,,,,,588.6912854000002,588.6963213999989,588.6963213999989,588.6963213999989,589.5978496999996,592.0480232999998,j,0,3.3450551999994786,None,right,15,"[19, 20, 19, 20, 19, 20, 15]",7,shiftedgaze_R_15.png,j,0,1,results18,001,2026-04-14_13h55.45.498,mogelijke versie adaptive staircase builder,,2026.1.3,59.97659713142611,2026-04-14 13h55.45.769118 +0200,
4.5,ecc10pos,left,14,0,14,f,0,2.1306784999997035,None,0,0,0,0,14,0,14,0,592.1356151,,,,,,,,,,,,,,,592.1314145999986,592.1356151,592.1356151,592.1356151,593.0477352999987,594.2666745999995,f,0,2.1306784999997035,None,direct,16,"[19, 20, 19, 20, 19, 20, 15]",7,shifteddirectgaze.png,f,0,1,results18,001,2026-04-14_13h55.45.498,mogelijke versie adaptive staircase builder,,2026.1.3,59.97659713142611,2026-04-14 13h55.45.769118 +0200,
4.5,ecc10pos,left,15,0,15,f,0,4.475570399999924,None,0,0,0,0,15,0,15,0,594.3579512999986,,,,,,,,,,,,,,,594.3537295999995,594.3579512999986,594.3579512999986,594.3579512999986,595.2816358,598.8482328999999,f,0,4.475570399999924,None,direct,17,"[19, 20, 19, 20, 19, 20, 15]",7,shifteddirectgaze.png,f,0,1,results18,001,2026-04-14_13h55.45.498,mogelijke versie adaptive staircase builder,,2026.1.3,59.97659713142611,2026-04-14 13h55.45.769118 +0200,
4.5,ecc10pos,left,16,0,16,j,1,4.9487575000002835,None,0,0,0,0,16,0,16,0,598.9328200999989,,,,,,,,,,,,,,,598.9288240999995,598.9328200999989,598.9328200999989,598.9328200999989,599.8482836000003,603.8819598999999,j,1,4.9487575000002835,None,direct,18,"[19, 20, 19, 20, 19, 20, 15, 18]",8,shifteddirectgaze.png,j,1,1,results18,001,2026-04-14_13h55.45.498,mogelijke versie adaptive staircase builder,,2026.1.3,59.97659713142611,2026-04-14 13h55.45.769118 +0200,
4.5,ecc10pos,left,17,0,17,f,1,2.4565196999992622,None,0,0,0,0,17,0,17,0,603.9850809,,,,,,,,,,,,,,,603.9745598999998,603.9850809,603.9850809,603.9850809,604.8816084999999,606.4485554999992,f,1,2.4565196999992622,None,left,17,"[19, 20, 19, 20, 19, 20, 15, 18]",8,shiftedgaze_L_17.png,f,1,1,results18,001,2026-04-14_13h55.45.498,mogelijke versie adaptive staircase builder,,2026.1.3,59.97659713142611,2026-04-14 13h55.45.769118 +0200,
4.5,ecc10pos,left,18,0,18,f,1,2.9431617999998707,None,0,0,0,0,18,0,18,0,606.5623705999988,,,,,,,,,,,,,,,606.5516468999995,606.5623705999988,606.5623705999988,606.5623705999988,607.464850299999,609.5151454999996,f,1,2.9431617999998707,None,right,16,"[19, 20, 19, 20, 19, 20, 15, 18]",8,shiftedgaze_R_16.png,f,1,1,results18,001,2026-04-14_13h55.45.498,mogelijke versie adaptive staircase builder,,2026.1.3,59.97659713142611,2026-04-14 13h55.45.769118 +0200,
4.5,ecc10pos,left,19,0,19,j,1,6.011052300000301,None,0,0,0,0,19,0,19,0,609.6067434999986,,,,,,,,,,,,,,,609.6018127999996,609.6067434999986,609.6067434999986,609.6067434999986,610.5310457999985,615.6317987000002,j,1,6.011052300000301,None,direct,15,"[19, 20, 19, 20, 19, 20, 15, 18]",8,shifteddirectgaze.png,j,1,1,results18,001,2026-04-14_13h55.45.498,mogelijke versie adaptive staircase builder,,2026.1.3,59.97659713142611,2026-04-14 13h55.45.769118 +0200,
4.5,ecc10pos,left,20,0,20,j,1,8.820502500000657,None,0,0,0,0,20,0,20,0,615.7172257999991,,,,,,,,,,,,,,,615.7131367000002,615.7172257999991,615.7172257999991,615.7172257999991,616.6315197999993,624.5485482999993,j,1,8.820502500000657,None,direct,14,"[19, 20, 19, 20, 19, 20, 15, 18]",8,shifteddirectgaze.png,j,1,1,results18,001,2026-04-14_13h55.45.498,mogelijke versie adaptive staircase builder,,2026.1.3,59.97659713142611,2026-04-14 13h55.45.769118 +0200,
4.5,ecc10pos,left,21,0,21,j,1,2.0727571999996144,None,0,0,0,0,21,0,21,0,624.6330667999991,,,,,,,,,,,,,,,624.6288814999989,624.6330667999991,624.6330667999991,624.6330667999991,625.5649178999993,626.7155299999995,j,1,2.0727571999996144,None,direct,13,"[19, 20, 19, 20, 19, 20, 15, 18]",8,shifteddirectgaze.png,j,1,1,results18,001,2026-04-14_13h55.45.498,mogelijke versie adaptive staircase builder,,2026.1.3,59.97659713142611,2026-04-14 13h55.45.769118 +0200,
4.5,ecc10pos,left,22,0,22,f,1,2.1302935000003345,None,0,0,0,0,22,0,22,0,626.8074822999988,,,,,,,,,,,,,,,626.8031907999994,626.8074822999988,626.8074822999988,626.8074822999988,627.7147296999992,628.9485616999991,f,1,2.1302935000003345,None,right,12,"[19, 20, 19, 20, 19, 20, 15, 18]",8,shiftedgaze_R_12.png,f,1,1,results18,001,2026-04-14_13h55.45.498,mogelijke versie adaptive staircase builder,,2026.1.3,59.97659713142611,2026-04-14 13h55.45.769118 +0200,
4.5,ecc10pos,left,23,0,23,j,0,5.273310000000492,None,0,0,0,0,23,0,23,0,629.056792899999,,,,,,,,,,,,,,,629.0464878000002,629.056792899999,629.056792899999,629.056792899999,629.9482339999995,634.3318633999988,j,0,5.273310000000492,None,left,11,"[19, 20, 19, 20, 19, 20, 15, 18, 11]",9,shiftedgaze_L_11.png,j,0,1,results18,001,2026-04-14_13h55.45.498,mogelijke versie adaptive staircase builder,,2026.1.3,59.97659713142611,2026-04-14 13h55.45.769118 +0200,
4.5,ecc10pos,left,24,0,24,f,1,3.0282673000001523,None,0,0,0,0,24,0,24,0,634.4371034999986,,,,,,,,,,,,,,,634.4267884000001,634.4371034999986,634.4371034999986,634.4371034999986,635.3478235999992,637.4812739999998,f,1,3.0282673000001523,None,left,12,"[19, 20, 19, 20, 19, 20, 15, 18, 11, 12]",10,shiftedgaze_L_12.png,f,1,1,results18,001,2026-04-14_13h55.45.498,mogelijke versie adaptive staircase builder,,2026.1.3,59.97659713142611,2026-04-14 13h55.45.769118 +0200,
4.5,ecc10pos,left,25,0,25,f,0,6.349295899999561,None,0,0,0,0,25,0,25,0,637.572021,,,,,,,,,,,,,,,637.5675933000002,637.572021,637.572021,637.572021,638.4811723000003,643.9316579999995,f,0,6.349295899999561,None,direct,11,"[19, 20, 19, 20, 19, 20, 15, 18, 11, 12, 11]",11,shifteddirectgaze.png,f,0,1,results18,001,2026-04-14_13h55.45.498,mogelijke versie adaptive staircase builder,,2026.1.3,59.97659713142611,2026-04-14 13h55.45.769118 +0200,
4.5,ecc10pos,left,26,0,26,f,1,3.4222457999985636,None,0,0,0,0,26,0,26,0,644.0432728999986,,,,,,,,,,,,,,,644.0380163999998,644.0432728999986,644.0432728999986,644.0432728999986,644.9312176999993,647.4816620000001,f,1,3.4222457999985636,None,left,12,"[19, 20, 19, 20, 19, 20, 15, 18, 11, 12, 11, 12]",12,shiftedgaze_L_12.png,f,1,1,results18,001,2026-04-14_13h55.45.498,mogelijke versie adaptive staircase builder,,2026.1.3,59.97659713142611,2026-04-14 13h55.45.769118 +0200,
4.5,ecc10pos,left,27,0,27,j,1,2.2005779999999504,None,0,0,0,0,27,0,27,0,647.5772546999997,,,,,,,,,,,,,,,647.5732222999995,647.5772546999997,647.5772546999997,647.5772546999997,648.4813897999993,649.7818941999994,j,1,2.2005779999999504,None,direct,11,"[19, 20, 19, 20, 19, 20, 15, 18, 11, 12, 11, 12]",12,shifteddirectgaze.png,j,1,1,results18,001,2026-04-14_13h55.45.498,mogelijke versie adaptive staircase builder,,2026.1.3,59.97659713142611,2026-04-14 13h55.45.769118 +0200,
4.5,ecc10pos,left,28,0,28,j,0,4.097410399999717,None,0,0,0,0,28,0,28,0,649.8723338999989,,,,,,,,,,,,,,,649.8679644999993,649.8723338999989,649.8723338999989,649.8723338999989,650.7977980999985,653.9820490999991,j,0,4.097410399999717,None,right,10,"[19, 20, 19, 20, 19, 20, 15, 18, 11, 12, 11, 12, 10]",13,shiftedgaze_R_10.png,j,0,1,results18,001,2026-04-14_13h55.45.498,mogelijke versie adaptive staircase builder,,2026.1.3,59.97659713142611,2026-04-14 13h55.45.769118 +0200,
4.5,ecc10pos,left,29,0,29,j,0,2.3208586999990075,None,0,0,0,0,29,0,29,0,654.0728634999996,,,,,,,,,,,,,,,654.0689487999989,654.0728634999996,654.0728634999996,654.0728634999996,654.9812764999988,656.3986891999994,j,0,2.3208586999990075,None,right,11,"[19, 20, 19, 20, 19, 20, 15, 18, 11, 12, 11, 12, 10]",13,shiftedgaze_R_11.png,j,0,1,results18,001,2026-04-14_13h55.45.498,mogelijke versie adaptive staircase builder,,2026.1.3,59.97659713142611,2026-04-14 13h55.45.769118 +0200,
4.5,ecc10pos,left,30,0,30,f,0,4.206797099999676,None,0,0,0,0,30,0,30,0,656.4825831999988,,,,,,,,,,,,,,,656.4784103000002,656.4825831999988,656.4825831999988,656.4825831999988,657.4146528000001,660.6980939999994,f,0,4.206797099999676,None,direct,12,"[19, 20, 19, 20, 19, 20, 15, 18, 11, 12, 11, 12, 10]",13,shifteddirectgaze.png,f,0,1,results18,001,2026-04-14_13h55.45.498,mogelijke versie adaptive staircase builder,,2026.1.3,59.97659713142611,2026-04-14 13h55.45.769118 +0200,
4.5,ecc10pos,left,31,0,31,f,1,3.7802253999998356,None,0,0,0,0,31,0,31,0,660.7891246999989,,,,,,,,,,,,,,,660.784996299999,660.7891246999989,660.7891246999989,660.7891246999989,661.6978070999994,664.581440599999,f,1,3.7802253999998356,None,right,13,"[19, 20, 19, 20, 19, 20, 15, 18, 11, 12, 11, 12, 10, 13]",14,shiftedgaze_R_13.png,f,1,1,results18,001,2026-04-14_13h55.45.498,mogelijke versie adaptive staircase builder,,2026.1.3,59.97659713142611,2026-04-14 13h55.45.769118 +0200,
4.5,ecc10pos,left,32,0,32,j,1,1.8884072000000742,None,0,0,0,0,32,0,32,0,664.6653307999986,,,,,,,,,,,,,,,664.6610423000002,664.6653307999986,664.6653307999986,664.6653307999986,665.5815299999995,666.5653860000002,j,1,1.8884072000000742,None,direct,12,"[19, 20, 19, 20, 19, 20, 15, 18, 11, 12, 11, 12, 10, 13]",14,shifteddirectgaze.png,j,1,1,results18,001,2026-04-14_13h55.45.498,mogelijke versie adaptive staircase builder,,2026.1.3,59.97659713142611,2026-04-14 13h55.45.769118 +0200,
4.5,ecc10pos,left,33,0,33,f,0,5.207588600000236,None,0,0,0,0,33,0,33,0,666.6497872,,,,,,,,,,,,,,,666.6457124999997,666.6497872,666.6497872,666.6497872,667.5811887,671.8648085999994,f,0,5.207588600000236,None,direct,11,"[19, 20, 19, 20, 19, 20, 15, 18, 11, 12, 11, 12, 10, 13, 11]",15,shifteddirectgaze.png,f,0,1,results18,001,2026-04-14_13h55.45.498,mogelijke versie adaptive staircase builder,,2026.1.3,59.97659713142611,2026-04-14 13h55.45.769118 +0200,
4.5,ecc10pos,left,34,0,34,f,1,6.277589600000283,None,0,0,0,0,34,0,34,0,671.947816599999,,,,,,,,,,,,,,,671.9438634999988,671.947816599999,671.947816599999,671.947816599999,672.8645414000002,678.2314006999986,f,1,6.277589600000283,None,left,12,"[19, 20, 19, 20, 19, 20, 15, 18, 11, 12, 11, 12, 10, 13, 11, 12]",16,shiftedgaze_L_12.png,f,1,1,results18,001,2026-04-14_13h55.45.498,mogelijke versie adaptive staircase builder,,2026.1.3,59.97659713142611,2026-04-14 13h55.45.769118 +0200,
4.5,ecc10pos,left,35,0,35,j,1,2.6773764999998093,None,0,0,0,0,35,0,35,0,678.3164024999987,,,,,,,,,,,,,,,678.3122249999997,678.3164024999987,678.3164024999987,678.3164024999987,679.2317745,680.9986681999999,j,1,2.6773764999998093,None,direct,11,"[19, 20, 19, 20, 19, 20, 15, 18, 11, 12, 11, 12, 10, 13, 11, 12]",16,shifteddirectgaze.png,j,1,1,results18,001,2026-04-14_13h55.45.498,mogelijke versie adaptive staircase builder,,2026.1.3,59.97659713142611,2026-04-14 13h55.45.769118 +0200,
4.5,ecc10pos,left,36,0,36,j,1,2.37483229999998,None,0,0,0,0,36,0,36,0,681.0824252000002,,,,,,,,,,,,,,,681.0782227999989,681.0824252000002,681.0824252000002,681.0824252000002,681.998416299999,683.4646395999989,j,1,2.37483229999998,None,direct,10,"[19, 20, 19, 20, 19, 20, 15, 18, 11, 12, 11, 12, 10, 13, 11, 12]",16,shifteddirectgaze.png,j,1,1,results18,001,2026-04-14_13h55.45.498,mogelijke versie adaptive staircase builder,,2026.1.3,59.97659713142611,2026-04-14 13h55.45.769118 +0200,
4.5,ecc10pos,left,37,0,37,f,1,2.2117318999989948,None,0,0,0,0,37,0,37,0,683.5575716999992,,,,,,,,,,,,,,,683.5535944999992,683.5575716999992,683.5575716999992,683.5575716999992,684.4647035999988,685.7813288999987,f,1,2.2117318999989948,None,left,9,"[19, 20, 19, 20, 19, 20, 15, 18, 11, 12, 11, 12, 10, 13, 11, 12]",16,shiftedgaze_L_9.png,f,1,1,results18,001,2026-04-14_13h55.45.498,mogelijke versie adaptive staircase builder,,2026.1.3,59.97659713142611,2026-04-14 13h55.45.769118 +0200,
4.5,ecc10pos,left,38,0,38,f,1,4.064466699999684,None,0,0,0,0,38,0,38,0,685.8729187999998,,,,,,,,,,,,,,,685.8687892999988,685.8729187999998,685.8729187999998,685.8729187999998,686.7811882999995,689.9482824999996,f,1,4.064466699999684,None,right,8,"[19, 20, 19, 20, 19, 20, 15, 18, 11, 12, 11, 12, 10, 13, 11, 12]",16,shiftedgaze_R_8.png,f,1,1,results18,001,2026-04-14_13h55.45.498,mogelijke versie adaptive staircase builder,,2026.1.3,59.97659713142611,2026-04-14 13h55.45.769118 +0200,
4.5,ecc10pos,left,39,0,39,f,0,2.9921958000013547,None,0,0,0,0,39,0,39,0,690.0331446,,,,,,,,,,,,,,,690.0288898999988,690.0331446,690.0331446,690.0331446,690.9478304999993,693.0313590999995,f,0,2.9921958000013547,None,direct,7,"[19, 20, 19, 20, 19, 20, 15, 18, 11, 12, 11, 12, 10, 13, 11, 12, 7]",17,shifteddirectgaze.png,f,0,1,results18,001,2026-04-14_13h55.45.498,mogelijke versie adaptive staircase builder,,2026.1.3,59.97659713142611,2026-04-14 13h55.45.769118 +0200,
4.5,ecc10pos,left,40,0,40,f,0,2.4529309999998077,None,0,0,0,0,40,0,40,0,693.1164069999995,,,,,,,,,,,,,,,693.1121090999986,693.1164069999995,693.1164069999995,693.1164069999995,694.0314175000003,695.5815481999998,f,0,2.4529309999998077,None,direct,8,"[19, 20, 19, 20, 19, 20, 15, 18, 11, 12, 11, 12, 10, 13, 11, 12, 7]",17,shifteddirectgaze.png,f,0,1,results18,001,2026-04-14_13h55.45.498,mogelijke versie adaptive staircase builder,,2026.1.3,59.97659713142611,2026-04-14 13h55.45.769118 +0200,
4.5,ecc10pos,left,41,0,41,f,1,2.7258600999994087,None,0,0,0,0,41,0,41,0,696.0593448999989,,,,,,,,,,,,,,,696.0551177999987,696.0593448999989,696.0593448999989,696.0593448999989,696.5813972999986,698.7982417000003,f,1,2.7258600999994087,None,right,9,"[19, 20, 19, 20, 19, 20, 15, 18, 11, 12, 11, 12, 10, 13, 11, 12, 7, 9]",18,shiftedgaze_R_9.png,f,1,1,results18,001,2026-04-14_13h55.45.498,mogelijke versie adaptive staircase builder,,2026.1.3,59.97659713142611,2026-04-14 13h55.45.769118 +0200,
4.5,ecc10pos,left,42,0,42,j,1,2.6717889000010473,None,0,0,0,0,42,0,42,0,698.8816123999986,,,,,,,,,,,,,,,698.8776252999996,698.8816123999986,698.8816123999986,698.8816123999986,699.7978850999989,701.5646684999992,j,1,2.6717889000010473,None,direct,8,"[19, 20, 19, 20, 19, 20, 15, 18, 11, 12, 11, 12, 10, 13, 11, 12, 7, 9]",18,shifteddirectgaze.png,j,1,1,results18,001,2026-04-14_13h55.45.498,mogelijke versie adaptive staircase builder,,2026.1.3,59.97659713142611,2026-04-14 13h55.45.769118 +0200,
4.5,ecc10pos,left,43,0,43,j,1,3.984315499999866,None,0,0,0,0,43,0,43,0,701.6490689999991,,,,,,,,,,,,,,,701.6448564999992,701.6490689999991,701.6490689999991,701.6490689999991,702.5644754999994,705.6479971999997,j,1,3.984315499999866,None,direct,7,"[19, 20, 19, 20, 19, 20, 15, 18, 11, 12, 11, 12, 10, 13, 11, 12, 7, 9]",18,shifteddirectgaze.png,j,1,1,results18,001,2026-04-14_13h55.45.498,mogelijke versie adaptive staircase builder,,2026.1.3,59.97659713142611,2026-04-14 13h55.45.769118 +0200,
4.5,ecc10pos,left,44,0,44,f,1,3.1426810000011756,None,0,0,0,0,44,0,44,0,705.7386800999993,,,,,,,,,,,,,,,705.7343523,705.7386800999993,705.7386800999993,705.7386800999993,706.6480051999988,708.8816068999986,f,1,3.1426810000011756,None,left,6,"[19, 20, 19, 20, 19, 20, 15, 18, 11, 12, 11, 12, 10, 13, 11, 12, 7, 9]",18,shiftedgaze_L_6.png,f,1,1,results18,001,2026-04-14_13h55.45.498,mogelijke versie adaptive staircase builder,,2026.1.3,59.97659713142611,2026-04-14 13h55.45.769118 +0200,
4.5,ecc10pos,left,45,0,45,f,1,2.4885326999992685,None,0,0,0,0,45,0,45,0,708.9767422999994,,,,,,,,,,,,,,,708.9726835000001,708.9767422999994,708.9767422999994,708.9767422999994,709.8812390000003,711.4813770000001,f,1,2.4885326999992685,None,left,5,"[19, 20, 19, 20, 19, 20, 15, 18, 11, 12, 11, 12, 10, 13, 11, 12, 7, 9]",18,shiftedgaze_L_5.png,f,1,1,results18,001,2026-04-14_13h55.45.498,mogelijke versie adaptive staircase builder,,2026.1.3,59.97659713142611,2026-04-14 13h55.45.769118 +0200,
4.5,ecc10pos,left,46,0,46,j,0,2.7096473000001424,None,0,0,0,0,46,0,46,0,711.5720433999995,,,,,,,,,,,,,,,711.5679094999996,711.5720433999995,711.5720433999995,711.5720433999995,712.4810565999996,714.2821578999992,j,0,2.7096473000001424,None,left,4,"[19, 20, 19, 20, 19, 20, 15, 18, 11, 12, 11, 12, 10, 13, 11, 12, 7, 9, 4]",19,shiftedgaze_L_4.png,j,0,1,results18,001,2026-04-14_13h55.45.498,mogelijke versie adaptive staircase builder,,2026.1.3,59.97659713142611,2026-04-14 13h55.45.769118 +0200,
4.5,ecc10pos,left,47,0,47,f,0,3.461120599999049,None,0,0,0,0,47,0,47,0,714.3647088999987,,,,,,,,,,,,,,,714.3606889000002,714.3647088999987,714.3647088999987,714.3647088999987,715.2980150000003,717.8319047999994,f,0,3.461120599999049,None,direct,5,"[19, 20, 19, 20, 19, 20, 15, 18, 11, 12, 11, 12, 10, 13, 11, 12, 7, 9, 4]",19,shifteddirectgaze.png,f,0,1,results18,001,2026-04-14_13h55.45.498,mogelijke versie adaptive staircase builder,,2026.1.3,59.97659713142611,2026-04-14 13h55.45.769118 +0200,
4.5,ecc10pos,left,48,0,48,j,1,4.351425200000449,None,0,0,0,0,48,0,48,0,717.9153403,,,,,,,,,,,,,,,717.9113373,717.9153403,717.9153403,717.9153403,718.8482535000003,722.2812832999989,j,1,4.351425200000449,None,direct,6,"[19, 20, 19, 20, 19, 20, 15, 18, 11, 12, 11, 12, 10, 13, 11, 12, 7, 9, 4, 6]",20,shifteddirectgaze.png,j,1,1,results18,001,2026-04-14_13h55.45.498,mogelijke versie adaptive staircase builder,,2026.1.3,59.97659713142611,2026-04-14 13h55.45.769118 +0200,
4.5,ecc10pos,left,49,0,49,f,1,2.5261372000004485,None,0,0,0,0,49,0,49,0,722.3637010999992,,,,,,,,,,,,,,,722.3596380999988,722.3637010999992,722.3637010999992,722.3637010999992,723.281238399999,724.8985997999989,f,1,2.5261372000004485,None,left,5,"[19, 20, 19, 20, 19, 20, 15, 18, 11, 12, 11, 12, 10, 13, 11, 12, 7, 9, 4, 6]",20,shiftedgaze_L_5.png,f,1,1,results18,001,2026-04-14_13h55.45.498,mogelijke versie adaptive staircase builder,,2026.1.3,59.97659713142611,2026-04-14 13h55.45.769118 +0200,
4.5,ecc10pos,left,50,0,50,f,1,5.573405200000707,None,0,0,0,0,50,0,50,0,724.9883632000001,,,,,,,,,,,,,,,724.9843292999994,724.9883632000001,724.9883632000001,724.9883632000001,725.8979468999987,730.5651863000003,f,1,5.573405200000707,None,right,4,"[19, 20, 19, 20, 19, 20, 15, 18, 11, 12, 11, 12, 10, 13, 11, 12, 7, 9, 4, 6]",20,shiftedgaze_R_4.png,f,1,1,results18,001,2026-04-14_13h55.45.498,mogelijke versie adaptive staircase builder,,2026.1.3,59.97659713142611,2026-04-14 13h55.45.769118 +0200,
4.5,ecc10pos,left,51,0,51,f,1,2.4668133000013768,None,0,0,0,0,51,0,51,0,730.6546581999992,,,,,,,,,,,,,,,730.6503855999999,730.6546581999992,730.6546581999992,730.6546581999992,731.5646094999993,733.1313414999986,f,1,2.4668133000013768,None,left,3,"[19, 20, 19, 20, 19, 20, 15, 18, 11, 12, 11, 12, 10, 13, 11, 12, 7, 9, 4, 6]",20,shiftedgaze_L_3.png,f,1,1,results18,001,2026-04-14_13h55.45.498,mogelijke versie adaptive staircase builder,,2026.1.3,59.97659713142611,2026-04-14 13h55.45.769118 +0200,
4.5,ecc10pos,left,52,0,52,j,0,3.6024890999997297,None,0,0,0,0,52,0,52,0,733.5669535999987,,,,,,,,,,,,,,,733.5630474999998,733.5669535999987,733.5669535999987,733.5669535999987,734.1314216999999,737.1813294999993,j,0,3.6024890999997297,None,right,2,"[19, 20, 19, 20, 19, 20, 15, 18, 11, 12, 11, 12, 10, 13, 11, 12, 7, 9, 4, 6, 2]",21,shiftedgaze_R_2.png,j,0,1,results18,001,2026-04-14_13h55.45.498,mogelijke versie adaptive staircase builder,,2026.1.3,59.97659713142611,2026-04-14 13h55.45.769118 +0200,
4.5,ecc10pos,left,53,0,53,f,1,8.945916999999099,None,0,0,0,0,53,0,53,0,737.2639065999992,,,,,,,,,,,,,,,737.2594644000001,737.2639065999992,737.2639065999992,737.2639065999992,738.1816342999991,746.2152009000001,f,1,8.945916999999099,None,left,3,"[19, 20, 19, 20, 19, 20, 15, 18, 11, 12, 11, 12, 10, 13, 11, 12, 7, 9, 4, 6, 2, 3]",22,shiftedgaze_L_3.png,f,1,1,results18,001,2026-04-14_13h55.45.498,mogelijke versie adaptive staircase builder,,2026.1.3,59.97659713142611,2026-04-14 13h55.45.769118 +0200,
4.5,ecc10pos,left,54,0,54,j,1,4.518085300000166,None,0,0,0,0,54,0,54,0,746.2993541999986,,,,,,,,,,,,,,,746.2953562999992,746.2993541999986,746.2993541999986,746.2993541999986,747.2311289999998,750.8312858999998,j,1,4.518085300000166,None,direct,2,"[19, 20, 19, 20, 19, 20, 15, 18, 11, 12, 11, 12, 10, 13, 11, 12, 7, 9, 4, 6, 2, 3]",22,shifteddirectgaze.png,j,1,1,results18,001,2026-04-14_13h55.45.498,mogelijke versie adaptive staircase builder,,2026.1.3,59.97659713142611,2026-04-14 13h55.45.769118 +0200,
4.5,ecc10pos,left,55,0,55,f,0,4.8796683000000485,None,0,0,0,0,55,0,55,0,750.9137957999992,,,,,,,,,,,,,,,750.9098176999996,750.9137957999992,750.9137957999992,750.9137957999992,751.8316082999991,755.7981605999994,f,0,4.8796683000000485,None,direct,1,"[19, 20, 19, 20, 19, 20, 15, 18, 11, 12, 11, 12, 10, 13, 11, 12, 7, 9, 4, 6, 2, 3, 1]",23,shifteddirectgaze.png,f,0,1,results18,001,2026-04-14_13h55.45.498,mogelijke versie adaptive staircase builder,,2026.1.3,59.97659713142611,2026-04-14 13h55.45.769118 +0200,
4.5,ecc10pos,left,56,0,56,j,1,4.160302199999933,None,0,0,0,0,56,0,56,0,755.8811537999991,,,,,,,,,,,,,,,755.8769385999985,755.8811537999991,755.8811537999991,755.8811537999991,756.7977673999994,760.0479743999986,j,1,4.160302199999933,None,direct,2,"[19, 20, 19, 20, 19, 20, 15, 18, 11, 12, 11, 12, 10, 13, 11, 12, 7, 9, 4, 6, 2, 3, 1, 2]",24,shifteddirectgaze.png,j,1,1,results18,001,2026-04-14_13h55.45.498,mogelijke versie adaptive staircase builder,,2026.1.3,59.97659713142611,2026-04-14 13h55.45.769118 +0200,
4.5,ecc10pos,left,57,0,57,j,0,7.17776159999994,None,0,0,0,0,57,0,57,0,760.471700099999,,,,,,,,,,,,,,,760.4675671999994,760.471700099999,760.471700099999,760.471700099999,761.0477257000002,767.6646934,j,0,7.17776159999994,None,right,1,"[19, 20, 19, 20, 19, 20, 15, 18, 11, 12, 11, 12, 10, 13, 11, 12, 7, 9, 4, 6, 2, 3, 1, 2, 1]",25,shiftedgaze_R_1.png,j,0,1,results18,001,2026-04-14_13h55.45.498,mogelijke versie adaptive staircase builder,,2026.1.3,59.97659713142611,2026-04-14 13h55.45.769118 +0200,
4.5,ecc10pos,left,58,0,58,f,1,2.6074461999996856,None,0,0,0,0,58,0,58,0,767.7460087,,,,,,,,,,,,,,,767.7421937999989,767.7460087,767.7460087,767.7460087,768.6646414999996,770.3646128,f,1,2.6074461999996856,None,right,2,"[19, 20, 19, 20, 19, 20, 15, 18, 11, 12, 11, 12, 10, 13, 11, 12, 7, 9, 4, 6, 2, 3, 1, 2, 1, 2]",26,shiftedgaze_R_2.png,f,1,1,results18,001,2026-04-14_13h55.45.498,mogelijke versie adaptive staircase builder,,2026.1.3,59.97659713142611,2026-04-14 13h55.45.769118 +0200,
4.5,ecc10pos,left,59,0,59,f,1,3.7923296999997547,None,0,0,0,0,59,0,59,0,770.5930499999995,,,,,,,,,,,,,,,770.5888349999987,770.5930499999995,770.5930499999995,770.5930499999995,771.3642600000003,774.3980561999997,f,1,3.7923296999997547,None,left,1,"[19, 20, 19, 20, 19, 20, 15, 18, 11, 12, 11, 12, 10, 13, 11, 12, 7, 9, 4, 6, 2, 3, 1, 2, 1, 2]",26,shiftedgaze_L_1.png,f,1,1,results18,001,2026-04-14_13h55.45.498,mogelijke versie adaptive staircase builder,,2026.1.3,59.97659713142611,2026-04-14 13h55.45.769118 +0200,
4.5,ecc10pos,left,0,0,0,,,,,0,0,0,0,,,,,,,,,,,,,,,,,,,,,,,,,,,,,,,,,,,,,,results18,001,2026-04-14_13h55.45.498,mogelijke versie adaptive staircase builder,,2026.1.3,59.97659713142611,2026-04-14 13h55.45.769118 +0200,
12.5,ecc0,mid,0,0,0,j,1,2.521050000001196,None,0,1,1,1,0,0,0,0,774.4964881999986,,,,,,,,,,,,,774.4006308999997,774.4006606000003,774.4914990999987,774.4964881999986,775.4147460999993,774.4964881999986,774.4964881999986,777.0316387000003,j,1,2.521050000001196,None,direct,20,[],0,direct_gaze.png,j,1,2,results18,001,2026-04-14_13h55.45.498,mogelijke versie adaptive staircase builder,,2026.1.3,59.97659713142611,2026-04-14 13h55.45.769118 +0200,
12.5,ecc0,mid,1,0,1,j,0,2.699086399999942,None,0,1,1,1,1,0,1,0,777.1266771999999,,,,,,,,,,,,,,,777.122472699999,777.1266771999999,778.0316198,777.1266771999999,777.1266771999999,779.8320519999997,j,0,2.699086399999942,None,right,19,[19],1,gaze_R_19.png,j,0,2,results18,001,2026-04-14_13h55.45.498,mogelijke versie adaptive staircase builder,,2026.1.3,59.97659713142611,2026-04-14 13h55.45.769118 +0200,
12.5,ecc0,mid,2,0,2,f,0,2.353050199999416,None,0,1,1,1,2,0,2,0,779.9131037999996,,,,,,,,,,,,,,,779.9087733999986,779.9131037999996,780.8478856999991,779.9131037999996,779.9131037999996,782.2664035999987,f,0,2.353050199999416,None,direct,20,[19],1,direct_gaze.png,f,0,2,results18,001,2026-04-14_13h55.45.498,mogelijke versie adaptive staircase builder,,2026.1.3,59.97659713142611,2026-04-14 13h55.45.769118 +0200,
12.5,ecc0,mid,3,0,3,j,1,4.477757599999677,None,0,1,1,1,3,0,3,0,782.3476838999995,,,,,,,,,,,,,,,782.3434608999996,782.3476838999995,783.2810814999993,782.3476838999995,782.3476838999995,786.8317570999989,j,1,4.477757599999677,None,direct,20,"[19, 20]",2,direct_gaze.png,j,1,2,results18,001,2026-04-14_13h55.45.498,mogelijke versie adaptive staircase builder,,2026.1.3,59.97659713142611,2026-04-14 13h55.45.769118 +0200,
12.5,ecc0,mid,4,0,4,f,1,4.4243410999988555,None,0,1,1,1,4,0,4,0,786.9369195999989,,,,,,,,,,,,,,,786.9320494999993,786.9369195999989,787.8315286999987,786.9369195999989,786.9369195999989,791.3646147999989,f,1,4.4243410999988555,None,left,19,"[19, 20]",2,gaze_L_19.png,f,1,2,results18,001,2026-04-14_13h55.45.498,mogelijke versie adaptive staircase builder,,2026.1.3,59.97659713142611,2026-04-14 13h55.45.769118 +0200,
12.5,ecc0,mid,5,0,5,f,1,2.4773433999998815,None,0,1,1,1,5,0,5,0,791.4526616000003,,,,,,,,,,,,,,,791.4486558999997,791.4526616000003,792.364481999999,791.4526616000003,791.4526616000003,793.9317754999993,f,1,2.4773433999998815,None,right,18,"[19, 20]",2,gaze_R_18.png,f,1,2,results18,001,2026-04-14_13h55.45.498,mogelijke versie adaptive staircase builder,,2026.1.3,59.97659713142611,2026-04-14 13h55.45.769118 +0200,
12.5,ecc0,mid,6,0,6,j,0,2.0379133000005822,None,0,1,1,1,6,0,6,0,794.0273643,,,,,,,,,,,,,,,794.0223036999996,794.0273643,794.9311988999998,794.0273643,794.0273643,796.081365,j,0,2.0379133000005822,None,left,17,"[19, 20, 17]",3,gaze_L_17.png,j,0,2,results18,001,2026-04-14_13h55.45.498,mogelijke versie adaptive staircase builder,,2026.1.3,59.97659713142611,2026-04-14 13h55.45.769118 +0200,
12.5,ecc0,mid,7,0,7,f,1,3.88882410000042,None,0,1,1,1,7,0,7,0,796.1764500999998,,,,,,,,,,,,,,,796.1714529000001,796.1764500999998,797.08115,796.1764500999998,796.1764500999998,800.0813988999998,f,1,3.88882410000042,None,left,18,"[19, 20, 17, 18]",4,gaze_L_18.png,f,1,2,results18,001,2026-04-14_13h55.45.498,mogelijke versie adaptive staircase builder,,2026.1.3,59.97659713142611,2026-04-14 13h55.45.769118 +0200,
12.5,ecc0,mid,8,0,8,j,1,2.2542513999997027,None,0,1,1,1,8,0,8,0,800.1631457000003,,,,,,,,,,,,,,,800.158689599999,800.1631457000003,801.0811737999993,800.1631457000003,800.1631457000003,802.4313815999994,j,1,2.2542513999997027,None,direct,17,"[19, 20, 17, 18]",4,direct_gaze.png,j,1,2,results18,001,2026-04-14_13h55.45.498,mogelijke versie adaptive staircase builder,,2026.1.3,59.97659713142611,2026-04-14 13h55.45.769118 +0200,
12.5,ecc0,mid,9,0,9,j,0,2.1411228999986633,None,0,1,1,1,9,0,9,0,802.5241924999991,,,,,,,,,,,,,,,802.5197244999999,802.5241924999991,803.4316956000002,802.5241924999991,802.5241924999991,804.6818587999987,j,0,2.1411228999986633,None,left,16,"[19, 20, 17, 18, 16]",5,gaze_L_16.png,j,0,2,results18,001,2026-04-14_13h55.45.498,mogelijke versie adaptive staircase builder,,2026.1.3,59.97659713142611,2026-04-14 13h55.45.769118 +0200,
12.5,ecc0,mid,10,0,10,f,0,1.8959830999992846,None,0,1,1,1,10,0,10,0,804.7693404000001,,,,,,,,,,,,,,,804.7648845999993,804.7693404000001,805.6817367999993,804.7693404000001,804.7693404000001,806.6656313999993,f,0,1.8959830999992846,None,direct,17,"[19, 20, 17, 18, 16]",5,direct_gaze.png,f,0,2,results18,001,2026-04-14_13h55.45.498,mogelijke versie adaptive staircase builder,,2026.1.3,59.97659713142611,2026-04-14 13h55.45.769118 +0200,
12.5,ecc0,mid,11,0,11,j,1,2.3042654000000766,None,0,1,1,1,11,0,11,0,806.753060699999,,,,,,,,,,,,,,,806.7487028999985,806.753060699999,807.6815272999993,806.753060699999,806.753060699999,809.0647817999998,j,1,2.3042654000000766,None,direct,18,"[19, 20, 17, 18, 16, 18]",6,direct_gaze.png,j,1,2,results18,001,2026-04-14_13h55.45.498,mogelijke versie adaptive staircase builder,,2026.1.3,59.97659713142611,2026-04-14 13h55.45.769118 +0200,
12.5,ecc0,mid,12,0,12,f,1,3.750812999998743,None,0,1,1,1,12,0,12,0,809.1466287000003,,,,,,,,,,,,,,,809.1424293,809.1466287000003,810.0646550999991,809.1466287000003,809.1466287000003,812.8979822000001,f,1,3.750812999998743,None,left,17,"[19, 20, 17, 18, 16, 18]",6,gaze_L_17.png,f,1,2,results18,001,2026-04-14_13h55.45.498,mogelijke versie adaptive staircase builder,,2026.1.3,59.97659713142611,2026-04-14 13h55.45.769118 +0200,
12.5,ecc0,mid,13,0,13,f,1,2.514046500000404,None,0,1,1,1,13,0,13,0,812.9913239999987,,,,,,,,,,,,,,,812.9870083999995,812.9913239999987,813.8978671999994,812.9913239999987,812.9913239999987,815.5146960000002,f,1,2.514046500000404,None,right,16,"[19, 20, 17, 18, 16, 18]",6,gaze_R_16.png,f,1,2,results18,001,2026-04-14_13h55.45.498,mogelijke versie adaptive staircase builder,,2026.1.3,59.97659713142611,2026-04-14 13h55.45.769118 +0200,
12.5,ecc0,mid,14,0,14,j,1,2.3339985000002343,None,0,1,1,1,14,0,14,0,815.6035945999993,,,,,,,,,,,,,,,815.5986164999995,815.6035945999993,816.5147724999988,815.6035945999993,815.6035945999993,817.9486860999987,j,1,2.3339985000002343,None,direct,15,"[19, 20, 17, 18, 16, 18]",6,direct_gaze.png,j,1,2,results18,001,2026-04-14_13h55.45.498,mogelijke versie adaptive staircase builder,,2026.1.3,59.97659713142611,2026-04-14 13h55.45.769118 +0200,
12.5,ecc0,mid,15,0,15,j,1,3.115214699999342,None,0,1,1,1,15,0,15,0,818.0300721999993,,,,,,,,,,,,,,,818.0261680000003,818.0300721999993,818.9646201999985,818.0300721999993,818.0300721999993,821.1489012000002,j,1,3.115214699999342,None,direct,14,"[19, 20, 17, 18, 16, 18]",6,direct_gaze.png,j,1,2,results18,001,2026-04-14_13h55.45.498,mogelijke versie adaptive staircase builder,,2026.1.3,59.97659713142611,2026-04-14 13h55.45.769118 +0200,
12.5,ecc0,mid,16,0,16,j,1,2.0026945999998134,None,0,1,1,1,16,0,16,0,821.2307045999987,,,,,,,,,,,,,,,821.2265623999992,821.2307045999987,822.1644679000001,821.2307045999987,821.2307045999987,823.2483983000002,j,1,2.0026945999998134,None,direct,13,"[19, 20, 17, 18, 16, 18]",6,direct_gaze.png,j,1,2,results18,001,2026-04-14_13h55.45.498,mogelijke versie adaptive staircase builder,,2026.1.3,59.97659713142611,2026-04-14 13h55.45.769118 +0200,
12.5,ecc0,mid,17,0,17,f,0,2.9106324999993376,None,0,1,1,1,17,0,17,0,823.3387497999993,,,,,,,,,,,,,,,823.3340269,823.3387497999993,824.2478357,823.3387497999993,823.3387497999993,826.2660675999996,f,0,2.9106324999993376,None,direct,12,"[19, 20, 17, 18, 16, 18, 12]",7,direct_gaze.png,f,0,2,results18,001,2026-04-14_13h55.45.498,mogelijke versie adaptive staircase builder,,2026.1.3,59.97659713142611,2026-04-14 13h55.45.769118 +0200,
12.5,ecc0,mid,18,0,18,f,1,2.1017202000002726,None,0,1,1,1,18,0,18,0,826.3556721999994,,,,,,,,,,,,,,,826.3516904999997,826.3556721999994,827.2812260999999,826.3556721999994,826.3556721999994,828.4647797999987,f,1,2.1017202000002726,None,right,13,"[19, 20, 17, 18, 16, 18, 12, 13]",8,gaze_R_13.png,f,1,2,results18,001,2026-04-14_13h55.45.498,mogelijke versie adaptive staircase builder,,2026.1.3,59.97659713142611,2026-04-14 13h55.45.769118 +0200,
12.5,ecc0,mid,19,0,19,j,0,2.959655399999974,None,0,1,1,1,19,0,19,0,828.5536850999997,,,,,,,,,,,,,,,828.5498109,828.5536850999997,829.4645436999999,828.5536850999997,828.5536850999997,831.5147388999994,j,0,2.959655399999974,None,left,12,"[19, 20, 17, 18, 16, 18, 12, 13, 12]",9,gaze_L_12.png,j,0,2,results18,001,2026-04-14_13h55.45.498,mogelijke versie adaptive staircase builder,,2026.1.3,59.97659713142611,2026-04-14 13h55.45.769118 +0200,
12.5,ecc0,mid,20,0,20,f,1,3.054126400000314,None,0,1,1,1,20,0,20,0,831.5953227999998,,,,,,,,,,,,,,,831.5912725999988,831.5953227999998,832.5146065999998,831.5953227999998,831.5953227999998,834.6646263000002,f,1,3.054126400000314,None,right,13,"[19, 20, 17, 18, 16, 18, 12, 13, 12, 13]",10,gaze_R_13.png,f,1,2,results18,001,2026-04-14_13h55.45.498,mogelijke versie adaptive staircase builder,,2026.1.3,59.97659713142611,2026-04-14 13h55.45.769118 +0200,
12.5,ecc0,mid,21,0,21,f,0,3.519361500000741,None,0,1,1,1,21,0,21,0,834.7466716999988,,,,,,,,,,,,,,,834.7427838999993,834.7466716999988,835.664948399999,834.7466716999988,834.7466716999988,838.2662843999988,f,0,3.519361500000741,None,direct,12,"[19, 20, 17, 18, 16, 18, 12, 13, 12, 13, 12]",11,direct_gaze.png,f,0,2,results18,001,2026-04-14_13h55.45.498,mogelijke versie adaptive staircase builder,,2026.1.3,59.97659713142611,2026-04-14 13h55.45.769118 +0200,
12.5,ecc0,mid,22,0,22,f,0,2.4282283000011375,None,0,1,1,1,22,0,22,0,838.3492547999995,,,,,,,,,,,,,,,838.3450118000001,838.3492547999995,839.2809864999999,838.3492547999995,838.3492547999995,840.7811464999995,f,0,2.4282283000011375,None,direct,13,"[19, 20, 17, 18, 16, 18, 12, 13, 12, 13, 12]",11,direct_gaze.png,f,0,2,results18,001,2026-04-14_13h55.45.498,mogelijke versie adaptive staircase builder,,2026.1.3,59.97659713142611,2026-04-14 13h55.45.769118 +0200,
12.5,ecc0,mid,23,0,23,f,1,2.4411727000006067,None,0,1,1,1,23,0,23,0,840.8725367999996,,,,,,,,,,,,,,,840.8683621,840.8725367999996,841.7815843999997,840.8725367999996,840.8725367999996,843.3154575999997,f,1,2.4411727000006067,None,left,14,"[19, 20, 17, 18, 16, 18, 12, 13, 12, 13, 12, 14]",12,gaze_L_14.png,f,1,2,results18,001,2026-04-14_13h55.45.498,mogelijke versie adaptive staircase builder,,2026.1.3,59.97659713142611,2026-04-14 13h55.45.769118 +0200,
12.5,ecc0,mid,24,0,24,f,1,2.5391669000000547,None,0,1,1,1,24,0,24,0,843.4060388999987,,,,,,,,,,,,,,,843.402067699999,843.4060388999987,844.3316533999987,843.4060388999987,843.4060388999987,845.9478596999998,f,1,2.5391669000000547,None,left,13,"[19, 20, 17, 18, 16, 18, 12, 13, 12, 13, 12, 14]",12,gaze_L_13.png,f,1,2,results18,001,2026-04-14_13h55.45.498,mogelijke versie adaptive staircase builder,,2026.1.3,59.97659713142611,2026-04-14 13h55.45.769118 +0200,
12.5,ecc0,mid,25,0,25,j,1,2.3232734000011988,None,0,1,1,1,25,0,25,0,846.0308415999989,,,,,,,,,,,,,,,846.0270669999991,846.0308415999989,846.9479621999999,846.0308415999989,846.0308415999989,848.3652192999998,j,1,2.3232734000011988,None,direct,12,"[19, 20, 17, 18, 16, 18, 12, 13, 12, 13, 12, 14]",12,direct_gaze.png,j,1,2,results18,001,2026-04-14_13h55.45.498,mogelijke versie adaptive staircase builder,,2026.1.3,59.97659713142611,2026-04-14 13h55.45.769118 +0200,
12.5,ecc0,mid,26,0,26,f,0,2.897842300000775,None,0,1,1,1,26,0,26,0,848.4475322999988,,,,,,,,,,,,,,,848.4435618999996,848.4475322999988,849.3646739999986,848.4475322999988,848.4475322999988,851.3478925999989,f,0,2.897842300000775,None,direct,11,"[19, 20, 17, 18, 16, 18, 12, 13, 12, 13, 12, 14, 11]",13,direct_gaze.png,f,0,2,results18,001,2026-04-14_13h55.45.498,mogelijke versie adaptive staircase builder,,2026.1.3,59.97659713142611,2026-04-14 13h55.45.769118 +0200,
12.5,ecc0,mid,27,0,27,f,1,1.9877569000000221,None,0,1,1,1,27,0,27,0,851.4376882999986,,,,,,,,,,,,,,,851.4337976999996,851.4376882999986,852.3476281999992,851.4376882999986,851.4376882999986,853.4312403999993,f,1,1.9877569000000221,None,right,12,"[19, 20, 17, 18, 16, 18, 12, 13, 12, 13, 12, 14, 11, 12]",14,gaze_R_12.png,f,1,2,results18,001,2026-04-14_13h55.45.498,mogelijke versie adaptive staircase builder,,2026.1.3,59.97659713142611,2026-04-14 13h55.45.769118 +0200,
12.5,ecc0,mid,28,0,28,j,1,4.6238372000007075,None,0,1,1,1,28,0,28,0,853.5133336999988,,,,,,,,,,,,,,,853.5094425999996,853.5133336999988,854.430996699999,853.5133336999988,853.5133336999988,858.1479401999986,j,1,4.6238372000007075,None,direct,11,"[19, 20, 17, 18, 16, 18, 12, 13, 12, 13, 12, 14, 11, 12]",14,direct_gaze.png,j,1,2,results18,001,2026-04-14_13h55.45.498,mogelijke versie adaptive staircase builder,,2026.1.3,59.97659713142611,2026-04-14 13h55.45.769118 +0200,
12.5,ecc0,mid,29,0,29,j,1,2.322687699999733,None,0,1,1,1,29,0,29,0,858.2311308999997,,,,,,,,,,,,,,,858.2270774999997,858.2311308999997,859.1480886999998,858.2311308999997,858.2311308999997,860.5652210999997,j,1,2.322687699999733,None,direct,10,"[19, 20, 17, 18, 16, 18, 12, 13, 12, 13, 12, 14, 11, 12]",14,direct_gaze.png,j,1,2,results18,001,2026-04-14_13h55.45.498,mogelijke versie adaptive staircase builder,,2026.1.3,59.97659713142611,2026-04-14 13h55.45.769118 +0200,
12.5,ecc0,mid,30,0,30,f,1,4.912836699999389,None,0,1,1,1,30,0,30,0,860.6807429,,,,,,,,,,,,,,,860.670521099999,860.6807429,861.5649236999998,860.6807429,860.6807429,865.5983555000003,f,1,4.912836699999389,None,right,9,"[19, 20, 17, 18, 16, 18, 12, 13, 12, 13, 12, 14, 11, 12]",14,gaze_R_9.png,f,1,2,results18,001,2026-04-14_13h55.45.498,mogelijke versie adaptive staircase builder,,2026.1.3,59.97659713142611,2026-04-14 13h55.45.769118 +0200,
12.5,ecc0,mid,31,0,31,j,0,3.964362999999139,None,0,1,1,1,31,0,31,0,865.7089870999989,,,,,,,,,,,,,,,865.6985860999994,865.7089870999989,866.5977875999997,865.7089870999989,865.7089870999989,869.6812420999995,j,0,3.964362999999139,None,left,8,"[19, 20, 17, 18, 16, 18, 12, 13, 12, 13, 12, 14, 11, 12, 8]",15,gaze_L_8.png,j,0,2,results18,001,2026-04-14_13h55.45.498,mogelijke versie adaptive staircase builder,,2026.1.3,59.97659713142611,2026-04-14 13h55.45.769118 +0200,
12.5,ecc0,mid,32,0,32,j,0,3.2201598999999987,None,0,1,1,1,32,0,32,0,869.7732993999998,,,,,,,,,,,,,,,869.7682550999998,869.7732993999998,870.6810198999992,869.7732993999998,869.7732993999998,872.9979944999995,j,0,3.2201598999999987,None,left,9,"[19, 20, 17, 18, 16, 18, 12, 13, 12, 13, 12, 14, 11, 12, 8]",15,gaze_L_9.png,j,0,2,results18,001,2026-04-14_13h55.45.498,mogelijke versie adaptive staircase builder,,2026.1.3,59.97659713142611,2026-04-14 13h55.45.769118 +0200,
12.5,ecc0,mid,33,0,33,f,1,4.280283199999758,None,0,1,1,1,33,0,33,0,873.0971783999994,,,,,,,,,,,,,,,873.0924885999993,873.0971783999994,873.9981055999997,873.0971783999994,873.0971783999994,877.3814422999985,f,1,4.280283199999758,None,left,10,"[19, 20, 17, 18, 16, 18, 12, 13, 12, 13, 12, 14, 11, 12, 8, 10]",16,gaze_L_10.png,f,1,2,results18,001,2026-04-14_13h55.45.498,mogelijke versie adaptive staircase builder,,2026.1.3,59.97659713142611,2026-04-14 13h55.45.769118 +0200,
12.5,ecc0,mid,34,0,34,j,1,4.040532999999414,None,0,1,1,1,34,0,34,0,877.4652670999985,,,,,,,,,,,,,,,877.4612551999999,877.4652670999985,878.3816238999989,877.4652670999985,877.4652670999985,881.5155338999994,j,1,4.040532999999414,None,direct,9,"[19, 20, 17, 18, 16, 18, 12, 13, 12, 13, 12, 14, 11, 12, 8, 10]",16,direct_gaze.png,j,1,2,results18,001,2026-04-14_13h55.45.498,mogelijke versie adaptive staircase builder,,2026.1.3,59.97659713142611,2026-04-14 13h55.45.769118 +0200,
12.5,ecc0,mid,35,0,35,j,1,1.8358772000010504,None,0,1,1,1,35,0,35,0,881.5975682999997,,,,,,,,,,,,,,,881.5936229999988,881.5975682999997,882.5310301999998,881.5975682999997,881.5975682999997,883.4479117999999,j,1,1.8358772000010504,None,direct,8,"[19, 20, 17, 18, 16, 18, 12, 13, 12, 13, 12, 14, 11, 12, 8, 10]",16,direct_gaze.png,j,1,2,results18,001,2026-04-14_13h55.45.498,mogelijke versie adaptive staircase builder,,2026.1.3,59.97659713142611,2026-04-14 13h55.45.769118 +0200,
12.5,ecc0,mid,36,0,36,j,0,2.302894299999025,None,0,1,1,1,36,0,36,0,883.8988771999993,,,,,,,,,,,,,,,883.8949328999988,883.8988771999993,884.447714599999,883.8988771999993,883.8988771999993,886.2148297999993,j,0,2.302894299999025,None,left,7,"[19, 20, 17, 18, 16, 18, 12, 13, 12, 13, 12, 14, 11, 12, 8, 10, 7]",17,gaze_L_7.png,j,0,2,results18,001,2026-04-14_13h55.45.498,mogelijke versie adaptive staircase builder,,2026.1.3,59.97659713142611,2026-04-14 13h55.45.769118 +0200,
12.5,ecc0,mid,37,0,37,j,0,2.0248783999995794,None,0,1,1,1,37,0,37,0,886.2963877999991,,,,,,,,,,,,,,,886.2923000999999,886.2963877999991,887.2148461999986,886.2963877999991,886.2963877999991,888.3312898999993,j,0,2.0248783999995794,None,left,8,"[19, 20, 17, 18, 16, 18, 12, 13, 12, 13, 12, 14, 11, 12, 8, 10, 7]",17,gaze_L_8.png,j,0,2,results18,001,2026-04-14_13h55.45.498,mogelijke versie adaptive staircase builder,,2026.1.3,59.97659713142611,2026-04-14 13h55.45.769118 +0200,
12.5,ecc0,mid,38,0,38,j,0,1.8848097000009147,None,0,1,1,1,38,0,38,0,888.4205411000003,,,,,,,,,,,,,,,888.4166534999986,888.4205411000003,889.3311245999994,888.4205411000003,888.4205411000003,890.3152270999999,j,0,1.8848097000009147,None,left,9,"[19, 20, 17, 18, 16, 18, 12, 13, 12, 13, 12, 14, 11, 12, 8, 10, 7]",17,gaze_L_9.png,j,0,2,results18,001,2026-04-14_13h55.45.498,mogelijke versie adaptive staircase builder,,2026.1.3,59.97659713142611,2026-04-14 13h55.45.769118 +0200,
12.5,ecc0,mid,39,0,39,j,0,2.5809745000005933,None,0,1,1,1,39,0,39,0,890.3964034,,,,,,,,,,,,,,,890.3920232,890.3964034,891.3144558999993,890.3964034,890.3964034,892.9813873000003,j,0,2.5809745000005933,None,left,10,"[19, 20, 17, 18, 16, 18, 12, 13, 12, 13, 12, 14, 11, 12, 8, 10, 7]",17,gaze_L_10.png,j,0,2,results18,001,2026-04-14_13h55.45.498,mogelijke versie adaptive staircase builder,,2026.1.3,59.97659713142611,2026-04-14 13h55.45.769118 +0200,
12.5,ecc0,mid,40,0,40,f,1,3.6287975999985065,None,0,1,1,1,40,0,40,0,893.0686944999998,,,,,,,,,,,,,,,893.0648721999987,893.0686944999998,893.9811818999988,893.0686944999998,893.0686944999998,896.6980465999986,f,1,3.6287975999985065,None,left,11,"[19, 20, 17, 18, 16, 18, 12, 13, 12, 13, 12, 14, 11, 12, 8, 10, 7, 11]",18,gaze_L_11.png,f,1,2,results18,001,2026-04-14_13h55.45.498,mogelijke versie adaptive staircase builder,,2026.1.3,59.97659713142611,2026-04-14 13h55.45.769118 +0200,
12.5,ecc0,mid,41,0,41,j,1,4.612899099998685,None,0,1,1,1,41,0,41,0,896.7804199000002,,,,,,,,,,,,,,,896.7763223999991,896.7804199000002,897.6978438999995,896.7804199000002,896.7804199000002,901.3981390999998,j,1,4.612899099998685,None,direct,10,"[19, 20, 17, 18, 16, 18, 12, 13, 12, 13, 12, 14, 11, 12, 8, 10, 7, 11]",18,direct_gaze.png,j,1,2,results18,001,2026-04-14_13h55.45.498,mogelijke versie adaptive staircase builder,,2026.1.3,59.97659713142611,2026-04-14 13h55.45.769118 +0200,
12.5,ecc0,mid,42,0,42,j,1,3.818460000000414,None,0,1,1,1,42,0,42,0,901.4789849999997,,,,,,,,,,,,,,,901.4748741999992,901.4789849999997,902.3982813000002,901.4789849999997,901.4789849999997,905.2980016999991,j,1,3.818460000000414,None,direct,9,"[19, 20, 17, 18, 16, 18, 12, 13, 12, 13, 12, 14, 11, 12, 8, 10, 7, 11]",18,direct_gaze.png,j,1,2,results18,001,2026-04-14_13h55.45.498,mogelijke versie adaptive staircase builder,,2026.1.3,59.97659713142611,2026-04-14 13h55.45.769118 +0200,
12.5,ecc0,mid,43,0,43,f,1,1.8786698000003526,None,0,1,1,1,43,0,43,0,905.387793599999,,,,,,,,,,,,,,,905.3838098999986,905.387793599999,906.2977658,905.387793599999,905.387793599999,907.2668877999986,f,1,1.8786698000003526,None,right,8,"[19, 20, 17, 18, 16, 18, 12, 13, 12, 13, 12, 14, 11, 12, 8, 10, 7, 11]",18,gaze_R_8.png,f,1,2,results18,001,2026-04-14_13h55.45.498,mogelijke versie adaptive staircase builder,,2026.1.3,59.97659713142611,2026-04-14 13h55.45.769118 +0200,
12.5,ecc0,mid,44,0,44,j,1,1.7899642000011227,None,0,1,1,1,44,0,44,0,907.3473212999997,,,,,,,,,,,,,,,907.3431737999999,907.3473212999997,908.2811456999989,907.3473212999997,907.3473212999997,909.1480162999997,j,1,1.7899642000011227,None,direct,7,"[19, 20, 17, 18, 16, 18, 12, 13, 12, 13, 12, 14, 11, 12, 8, 10, 7, 11]",18,direct_gaze.png,j,1,2,results18,001,2026-04-14_13h55.45.498,mogelijke versie adaptive staircase builder,,2026.1.3,59.97659713142611,2026-04-14 13h55.45.769118 +0200,
12.5,ecc0,mid,45,0,45,j,0,1.6777326000010362,None,0,1,1,1,45,0,45,0,909.235799,,,,,,,,,,,,,,,909.2317463999989,909.235799,910.1480931999995,909.235799,909.235799,910.9152685999998,j,0,1.6777326000010362,None,left,6,"[19, 20, 17, 18, 16, 18, 12, 13, 12, 13, 12, 14, 11, 12, 8, 10, 7, 11, 6]",19,gaze_L_6.png,j,0,2,results18,001,2026-04-14_13h55.45.498,mogelijke versie adaptive staircase builder,,2026.1.3,59.97659713142611,2026-04-14 13h55.45.769118 +0200,
12.5,ecc0,mid,46,0,46,j,0,2.077837400000135,None,0,1,1,1,46,0,46,0,910.9959048000001,,,,,,,,,,,,,,,910.9919663000001,910.9959048000001,911.9311784999991,910.9959048000001,910.9959048000001,913.0817262,j,0,2.077837400000135,None,left,7,"[19, 20, 17, 18, 16, 18, 12, 13, 12, 13, 12, 14, 11, 12, 8, 10, 7, 11, 6]",19,gaze_L_7.png,j,0,2,results18,001,2026-04-14_13h55.45.498,mogelijke versie adaptive staircase builder,,2026.1.3,59.97659713142611,2026-04-14 13h55.45.769118 +0200,
12.5,ecc0,mid,47,0,47,j,0,2.108766100000139,None,0,1,1,1,47,0,47,0,913.1646364999997,,,,,,,,,,,,,,,913.1602531999997,913.1646364999997,914.0811392999985,913.1646364999997,913.1646364999997,915.2813955999991,j,0,2.108766100000139,None,left,8,"[19, 20, 17, 18, 16, 18, 12, 13, 12, 13, 12, 14, 11, 12, 8, 10, 7, 11, 6]",19,gaze_L_8.png,j,0,2,results18,001,2026-04-14_13h55.45.498,mogelijke versie adaptive staircase builder,,2026.1.3,59.97659713142611,2026-04-14 13h55.45.769118 +0200,
12.5,ecc0,mid,48,0,48,f,1,2.2873216000007233,None,0,1,1,1,48,0,48,0,915.3620688999999,,,,,,,,,,,,,,,915.3580681000003,915.3620688999999,916.281235299999,915.3620688999999,915.3620688999999,917.6646794999997,f,1,2.2873216000007233,None,left,9,"[19, 20, 17, 18, 16, 18, 12, 13, 12, 13, 12, 14, 11, 12, 8, 10, 7, 11, 6, 9]",20,gaze_L_9.png,f,1,2,results18,001,2026-04-14_13h55.45.498,mogelijke versie adaptive staircase builder,,2026.1.3,59.97659713142611,2026-04-14 13h55.45.769118 +0200,
12.5,ecc0,mid,49,0,49,j,1,2.174790999999459,None,0,1,1,1,49,0,49,0,917.746423999999,,,,,,,,,,,,,,,917.7423386999999,917.746423999999,918.6645153999998,917.746423999999,917.746423999999,919.9313222000001,j,1,2.174790999999459,None,direct,8,"[19, 20, 17, 18, 16, 18, 12, 13, 12, 13, 12, 14, 11, 12, 8, 10, 7, 11, 6, 9]",20,direct_gaze.png,j,1,2,results18,001,2026-04-14_13h55.45.498,mogelijke versie adaptive staircase builder,,2026.1.3,59.97659713142611,2026-04-14 13h55.45.769118 +0200,
12.5,ecc0,mid,50,0,50,j,1,1.9007090000013704,None,0,1,1,1,50,0,50,0,920.0125912999993,,,,,,,,,,,,,,,920.0086018000002,920.0125912999993,920.9311034000002,920.0125912999993,920.0125912999993,921.9147127999986,j,1,1.9007090000013704,None,direct,7,"[19, 20, 17, 18, 16, 18, 12, 13, 12, 13, 12, 14, 11, 12, 8, 10, 7, 11, 6, 9]",20,direct_gaze.png,j,1,2,results18,001,2026-04-14_13h55.45.498,mogelijke versie adaptive staircase builder,,2026.1.3,59.97659713142611,2026-04-14 13h55.45.769118 +0200,
12.5,ecc0,mid,51,0,51,j,0,2.693327099999806,None,0,1,1,1,51,0,51,0,921.996470099999,,,,,,,,,,,,,,,921.9923956999992,921.996470099999,922.9149271999995,921.996470099999,921.996470099999,924.6987161999987,j,0,2.693327099999806,None,left,6,"[19, 20, 17, 18, 16, 18, 12, 13, 12, 13, 12, 14, 11, 12, 8, 10, 7, 11, 6, 9, 6]",21,gaze_L_6.png,j,0,2,results18,001,2026-04-14_13h55.45.498,mogelijke versie adaptive staircase builder,,2026.1.3,59.97659713142611,2026-04-14 13h55.45.769118 +0200,
12.5,ecc0,mid,52,0,52,f,1,3.049178800001755,None,0,1,1,1,52,0,52,0,924.7921743999996,,,,,,,,,,,,,,,924.787268099999,924.7921743999996,925.6982083000003,924.7921743999996,924.7921743999996,927.8486723999995,f,1,3.049178800001755,None,right,7,"[19, 20, 17, 18, 16, 18, 12, 13, 12, 13, 12, 14, 11, 12, 8, 10, 7, 11, 6, 9, 6, 7]",22,gaze_R_7.png,f,1,2,results18,001,2026-04-14_13h55.45.498,mogelijke versie adaptive staircase builder,,2026.1.3,59.97659713142611,2026-04-14 13h55.45.769118 +0200,
12.5,ecc0,mid,53,0,53,f,0,3.9284303000004,None,0,1,1,1,53,0,53,0,927.9289177999999,,,,,,,,,,,,,,,927.9249768999998,927.9289177999999,928.8645251999988,927.9289177999999,927.9289177999999,931.8647507999995,f,0,3.9284303000004,None,direct,6,"[19, 20, 17, 18, 16, 18, 12, 13, 12, 13, 12, 14, 11, 12, 8, 10, 7, 11, 6, 9, 6, 7, 6]",23,direct_gaze.png,f,0,2,results18,001,2026-04-14_13h55.45.498,mogelijke versie adaptive staircase builder,,2026.1.3,59.97659713142611,2026-04-14 13h55.45.769118 +0200,
12.5,ecc0,mid,54,0,54,j,0,2.144186300000001,None,0,1,1,1,54,0,54,0,931.945270799999,,,,,,,,,,,,,,,931.9413127999997,931.945270799999,932.8644996000003,931.945270799999,931.945270799999,934.0982683999991,j,0,2.144186300000001,None,left,7,"[19, 20, 17, 18, 16, 18, 12, 13, 12, 13, 12, 14, 11, 12, 8, 10, 7, 11, 6, 9, 6, 7, 6]",23,gaze_L_7.png,j,0,2,results18,001,2026-04-14_13h55.45.498,mogelijke versie adaptive staircase builder,,2026.1.3,59.97659713142611,2026-04-14 13h55.45.769118 +0200,
12.5,ecc0,mid,55,0,55,f,0,2.901635399999577,None,0,1,1,1,55,0,55,0,934.1797428999998,,,,,,,,,,,,,,,934.1756686999997,934.1797428999998,935.0978326999993,934.1797428999998,934.1797428999998,937.0816204999992,f,0,2.901635399999577,None,direct,8,"[19, 20, 17, 18, 16, 18, 12, 13, 12, 13, 12, 14, 11, 12, 8, 10, 7, 11, 6, 9, 6, 7, 6]",23,direct_gaze.png,f,0,2,results18,001,2026-04-14_13h55.45.498,mogelijke versie adaptive staircase builder,,2026.1.3,59.97659713142611,2026-04-14 13h55.45.769118 +0200,
12.5,ecc0,mid,56,0,56,f,0,2.6389024000000063,None,0,1,1,1,56,0,56,0,937.1624905999997,,,,,,,,,,,,,,,937.1586929999994,937.1624905999997,938.0813603999995,937.1624905999997,937.1624905999997,939.814764499999,f,0,2.6389024000000063,None,direct,9,"[19, 20, 17, 18, 16, 18, 12, 13, 12, 13, 12, 14, 11, 12, 8, 10, 7, 11, 6, 9, 6, 7, 6]",23,direct_gaze.png,f,0,2,results18,001,2026-04-14_13h55.45.498,mogelijke versie adaptive staircase builder,,2026.1.3,59.97659713142611,2026-04-14 13h55.45.769118 +0200,
12.5,ecc0,mid,57,0,57,j,0,4.409128100000089,None,0,1,1,1,57,0,57,0,939.8962628999998,,,,,,,,,,,,,,,939.8922065999996,939.8962628999998,940.8145702999991,939.8962628999998,939.8962628999998,944.3148062,j,0,4.409128100000089,None,left,10,"[19, 20, 17, 18, 16, 18, 12, 13, 12, 13, 12, 14, 11, 12, 8, 10, 7, 11, 6, 9, 6, 7, 6]",23,gaze_L_10.png,j,0,2,results18,001,2026-04-14_13h55.45.498,mogelijke versie adaptive staircase builder,,2026.1.3,59.97659713142611,2026-04-14 13h55.45.769118 +0200,
12.5,ecc0,mid,58,0,58,f,1,3.76329700000133,None,0,1,1,1,58,0,58,0,944.3984693999992,,,,,,,,,,,,,,,944.3946770999992,944.3984693999992,945.3145511999992,944.3984693999992,944.3984693999992,948.1653632999987,f,1,3.76329700000133,None,left,11,"[19, 20, 17, 18, 16, 18, 12, 13, 12, 13, 12, 14, 11, 12, 8, 10, 7, 11, 6, 9, 6, 7, 6, 11]",24,gaze_L_11.png,f,1,2,results18,001,2026-04-14_13h55.45.498,mogelijke versie adaptive staircase builder,,2026.1.3,59.97659713142611,2026-04-14 13h55.45.769118 +0200,
12.5,ecc0,mid,59,0,59,j,0,2.730308599999262,None,0,1,1,1,59,0,59,0,948.2469846999993,,,,,,,,,,,,,,,948.2429324999994,948.2469846999993,949.1810972000003,948.2469846999993,948.2469846999993,950.9813854999993,j,0,2.730308599999262,None,left,10,"[19, 20, 17, 18, 16, 18, 12, 13, 12, 13, 12, 14, 11, 12, 8, 10, 7, 11, 6, 9, 6, 7, 6, 11, 10]",25,gaze_L_10.png,j,0,2,results18,001,2026-04-14_13h55.45.498,mogelijke versie adaptive staircase builder,,2026.1.3,59.97659713142611,2026-04-14 13h55.45.769118 +0200,
12.5,ecc0,mid,1,1,0,,,,,0,1,1,1,,,,,,,,,,,,,,,,,,,,,,,,,,,,,,,,,,,,,,results18,001,2026-04-14_13h55.45.498,mogelijke versie adaptive staircase builder,,2026.1.3,59.97659713142611,2026-04-14 13h55.45.769118 +0200,
20.5,ecc10neg,right,0,0,0,f,1,1.8220744999998715,None,0,2,2,2,0,0,0,0,951.1073476999991,,,,,,,,,,,,,950.9837740999992,950.9838031999989,951.0966437999996,951.1073476999991,951.1073476999991,951.997884299999,951.1073476999991,952.9311780999997,f,1,1.8220744999998715,None,right,20,[],0,shiftedgaze_R_20.png,f,1,3,results18,001,2026-04-14_13h55.45.498,mogelijke versie adaptive staircase builder,,2026.1.3,59.97659713142611,2026-04-14 13h55.45.769118 +0200,
20.5,ecc10neg,right,1,0,1,f,1,1.9410115999999107,None,0,2,2,2,1,0,1,0,953.0365454999992,,,,,,,,,,,,,,,953.0324124999988,953.0365454999992,953.0365454999992,953.9311416,953.0365454999992,954.9815436999997,f,1,1.9410115999999107,None,right,19,[],0,shiftedgaze_R_19.png,f,1,3,results18,001,2026-04-14_13h55.45.498,mogelijke versie adaptive staircase builder,,2026.1.3,59.97659713142611,2026-04-14 13h55.45.769118 +0200,
20.5,ecc10neg,right,2,0,2,f,0,1.9899113999999827,None,0,2,2,2,2,0,2,0,955.0914330999985,,,,,,,,,,,,,,,955.0817658999986,955.0914330999985,955.0914330999985,955.981598299999,955.0914330999985,957.0981032,f,0,1.9899113999999827,None,direct,18,[18],1,shifteddirectgaze.png,f,0,3,results18,001,2026-04-14_13h55.45.498,mogelijke versie adaptive staircase builder,,2026.1.3,59.97659713142611,2026-04-14 13h55.45.769118 +0200,
20.5,ecc10neg,right,3,0,3,f,1,1.7562166000006982,None,0,2,2,2,3,0,3,0,957.1970985999997,,,,,,,,,,,,,,,957.1875053999993,957.1970985999997,957.1970985999997,958.0982752,957.1970985999997,958.9646118000001,f,1,1.7562166000006982,None,right,19,"[18, 19]",2,shiftedgaze_R_19.png,f,1,3,results18,001,2026-04-14_13h55.45.498,mogelijke versie adaptive staircase builder,,2026.1.3,59.97659713142611,2026-04-14 13h55.45.769118 +0200,
20.5,ecc10neg,right,4,0,4,j,1,1.6661961999998312,None,0,2,2,2,4,0,4,0,959.0553681999991,,,,,,,,,,,,,,,959.0455371999997,959.0553681999991,959.0553681999991,959.9649203999998,959.0553681999991,960.7317242999998,j,1,1.6661961999998312,None,direct,18,"[18, 19]",2,shifteddirectgaze.png,j,1,3,results18,001,2026-04-14_13h55.45.498,mogelijke versie adaptive staircase builder,,2026.1.3,59.97659713142611,2026-04-14 13h55.45.769118 +0200,
20.5,ecc10neg,right,5,0,5,j,0,1.7222535999990214,None,0,2,2,2,5,0,5,0,960.8235685999989,,,,,,,,,,,,,,,960.819633699999,960.8235685999989,960.8235685999989,961.7477973999994,960.8235685999989,962.5485374,j,0,1.7222535999990214,None,left,17,"[18, 19, 17]",3,shiftedgaze_L_17.png,j,0,3,results18,001,2026-04-14_13h55.45.498,mogelijke versie adaptive staircase builder,,2026.1.3,59.97659713142611,2026-04-14 13h55.45.769118 +0200,
20.5,ecc10neg,right,6,0,6,f,1,1.7243825000005018,None,0,2,2,2,6,0,6,0,962.6534209000001,,,,,,,,,,,,,,,962.6436477999996,962.6534209000001,962.6534209000001,963.5479240999994,962.6534209000001,964.381905799999,f,1,1.7243825000005018,None,right,18,"[18, 19, 17, 18]",4,shiftedgaze_R_18.png,f,1,3,results18,001,2026-04-14_13h55.45.498,mogelijke versie adaptive staircase builder,,2026.1.3,59.97659713142611,2026-04-14 13h55.45.769118 +0200,
20.5,ecc10neg,right,7,0,7,j,0,1.5598895000002813,None,0,2,2,2,7,0,7,0,964.4734319999989,,,,,,,,,,,,,,,964.4632113999996,964.4734319999989,964.4734319999989,965.3812292999992,964.4734319999989,966.0485339999996,j,0,1.5598895000002813,None,left,17,"[18, 19, 17, 18, 17]",5,shiftedgaze_L_17.png,j,0,3,results18,001,2026-04-14_13h55.45.498,mogelijke versie adaptive staircase builder,,2026.1.3,59.97659713142611,2026-04-14 13h55.45.769118 +0200,
20.5,ecc10neg,right,8,0,8,f,1,1.7368481999983487,None,0,2,2,2,8,0,8,0,966.1445609000002,,,,,,,,,,,,,,,966.1347902999987,966.1445609000002,966.1445609000002,967.0645583999994,966.1445609000002,967.8815921999994,f,1,1.7368481999983487,None,right,18,"[18, 19, 17, 18, 17, 18]",6,shiftedgaze_R_18.png,f,1,3,results18,001,2026-04-14_13h55.45.498,mogelijke versie adaptive staircase builder,,2026.1.3,59.97659713142611,2026-04-14 13h55.45.769118 +0200,
20.5,ecc10neg,right,9,0,9,j,0,1.88012130000061,None,0,2,2,2,9,0,9,0,967.9772261999988,,,,,,,,,,,,,,,967.9670870999998,967.9772261999988,967.9772261999988,968.8811392999996,967.9772261999988,969.8645648999991,j,0,1.88012130000061,None,left,17,"[18, 19, 17, 18, 17, 18, 17]",7,shiftedgaze_L_17.png,j,0,3,results18,001,2026-04-14_13h55.45.498,mogelijke versie adaptive staircase builder,,2026.1.3,59.97659713142611,2026-04-14 13h55.45.769118 +0200,
20.5,ecc10neg,right,10,0,10,f,1,1.8347592999998596,None,0,2,2,2,10,0,10,0,969.9587063999988,,,,,,,,,,,,,,,969.9547033999988,969.9587063999988,969.9587063999988,970.8647220000003,969.9587063999988,971.7978907999986,f,1,1.8347592999998596,None,left,18,"[18, 19, 17, 18, 17, 18, 17, 18]",8,shiftedgaze_L_18.png,f,1,3,results18,001,2026-04-14_13h55.45.498,mogelijke versie adaptive staircase builder,,2026.1.3,59.97659713142611,2026-04-14 13h55.45.769118 +0200,
20.5,ecc10neg,right,11,0,11,j,0,2.3301254999987577,None,0,2,2,2,11,0,11,0,971.9033657,,,,,,,,,,,,,,,971.8936968999988,971.9033657,971.9033657,972.7978332999992,971.9033657,974.2485175000002,j,0,2.3301254999987577,None,right,17,"[18, 19, 17, 18, 17, 18, 17, 18, 17]",9,shiftedgaze_R_17.png,j,0,3,results18,001,2026-04-14_13h55.45.498,mogelijke versie adaptive staircase builder,,2026.1.3,59.97659713142611,2026-04-14 13h55.45.769118 +0200,
20.5,ecc10neg,right,12,0,12,f,0,1.8518261999997776,None,0,2,2,2,12,0,12,0,974.341850499999,,,,,,,,,,,,,,,974.3318287999991,974.341850499999,974.341850499999,975.2482922999989,974.341850499999,976.1985561000001,f,0,1.8518261999997776,None,direct,18,"[18, 19, 17, 18, 17, 18, 17, 18, 17]",9,shifteddirectgaze.png,f,0,3,results18,001,2026-04-14_13h55.45.498,mogelijke versie adaptive staircase builder,,2026.1.3,59.97659713142611,2026-04-14 13h55.45.769118 +0200,
20.5,ecc10neg,right,13,0,13,f,1,1.5924362999994628,None,0,2,2,2,13,0,13,0,976.2973136,,,,,,,,,,,,,,,976.2877867999996,976.2973136,976.2973136,977.1982939999998,976.2973136,977.8985868999989,f,1,1.5924362999994628,None,right,19,"[18, 19, 17, 18, 17, 18, 17, 18, 17, 19]",10,shiftedgaze_R_19.png,f,1,3,results18,001,2026-04-14_13h55.45.498,mogelijke versie adaptive staircase builder,,2026.1.3,59.97659713142611,2026-04-14 13h55.45.769118 +0200,
20.5,ecc10neg,right,14,0,14,f,0,1.6267619999998715,None,0,2,2,2,14,0,14,0,977.9904733999992,,,,,,,,,,,,,,,977.9806105999996,977.9904733999992,977.9904733999992,978.9144352000003,977.9904733999992,979.6312237000002,f,0,1.6267619999998715,None,direct,18,"[18, 19, 17, 18, 17, 18, 17, 18, 17, 19, 18]",11,shifteddirectgaze.png,f,0,3,results18,001,2026-04-14_13h55.45.498,mogelijke versie adaptive staircase builder,,2026.1.3,59.97659713142611,2026-04-14 13h55.45.769118 +0200,
20.5,ecc10neg,right,15,0,15,f,1,1.64603519999946,None,0,2,2,2,15,0,15,0,979.7318593,,,,,,,,,,,,,,,979.7277428999987,979.7318593,979.7318593,980.6310799000003,979.7318593,981.3817538000003,f,1,1.64603519999946,None,left,19,"[18, 19, 17, 18, 17, 18, 17, 18, 17, 19, 18, 19]",12,shiftedgaze_L_19.png,f,1,3,results18,001,2026-04-14_13h55.45.498,mogelijke versie adaptive staircase builder,,2026.1.3,59.97659713142611,2026-04-14 13h55.45.769118 +0200,
20.5,ecc10neg,right,16,0,16,j,0,1.5513645999999426,None,0,2,2,2,16,0,16,0,981.4664440999986,,,,,,,,,,,,,,,981.4625172999986,981.4664440999986,981.4664440999986,982.3815853999986,981.4664440999986,983.0316303999989,j,0,1.5513645999999426,None,left,18,"[18, 19, 17, 18, 17, 18, 17, 18, 17, 19, 18, 19, 18]",13,shiftedgaze_L_18.png,j,0,3,results18,001,2026-04-14_13h55.45.498,mogelijke versie adaptive staircase builder,,2026.1.3,59.97659713142611,2026-04-14 13h55.45.769118 +0200,
20.5,ecc10neg,right,17,0,17,f,0,1.6910829999997077,None,0,2,2,2,17,0,17,0,983.1183228999998,,,,,,,,,,,,,,,983.114117699999,983.1183228999998,983.1183228999998,984.0315930999986,983.1183228999998,984.8145798999994,f,0,1.6910829999997077,None,direct,19,"[18, 19, 17, 18, 17, 18, 17, 18, 17, 19, 18, 19, 18]",13,shifteddirectgaze.png,f,0,3,results18,001,2026-04-14_13h55.45.498,mogelijke versie adaptive staircase builder,,2026.1.3,59.97659713142611,2026-04-14 13h55.45.769118 +0200,
20.5,ecc10neg,right,18,0,18,f,0,1.733415500000774,None,0,2,2,2,18,0,18,0,984.9000696999992,,,,,,,,,,,,,,,984.8959608999994,984.9000696999992,984.9000696999992,985.8144267999996,984.9000696999992,986.6485388000001,f,0,1.733415500000774,None,direct,20,"[18, 19, 17, 18, 17, 18, 17, 18, 17, 19, 18, 19, 18]",13,shifteddirectgaze.png,f,0,3,results18,001,2026-04-14_13h55.45.498,mogelijke versie adaptive staircase builder,,2026.1.3,59.97659713142611,2026-04-14 13h55.45.769118 +0200,
20.5,ecc10neg,right,19,0,19,f,1,1.7348707999990438,None,0,2,2,2,19,0,19,0,986.7465327999998,,,,,,,,,,,,,,,986.7409731999996,986.7465327999998,986.7465327999998,987.6481163999997,986.7465327999998,988.4982235999996,f,1,1.7348707999990438,None,left,20,"[18, 19, 17, 18, 17, 18, 17, 18, 17, 19, 18, 19, 18, 20]",14,shiftedgaze_L_20.png,f,1,3,results18,001,2026-04-14_13h55.45.498,mogelijke versie adaptive staircase builder,,2026.1.3,59.97659713142611,2026-04-14 13h55.45.769118 +0200,
20.5,ecc10neg,right,20,0,20,f,1,1.666975399999501,None,0,2,2,2,20,0,20,0,988.6067188999987,,,,,,,,,,,,,,,988.5962328999994,988.6067188999987,988.6067188999987,989.4982889999992,988.6067188999987,990.2819178999998,f,1,1.666975399999501,None,right,19,"[18, 19, 17, 18, 17, 18, 17, 18, 17, 19, 18, 19, 18, 20]",14,shiftedgaze_R_19.png,f,1,3,results18,001,2026-04-14_13h55.45.498,mogelijke versie adaptive staircase builder,,2026.1.3,59.97659713142611,2026-04-14 13h55.45.769118 +0200,
20.5,ecc10neg,right,21,0,21,j,0,1.712930800000322,None,0,2,2,2,21,0,21,0,990.3844539999991,,,,,,,,,,,,,,,990.3735368999987,990.3844539999991,990.3844539999991,991.29774,990.3844539999991,992.0978242000001,j,0,1.712930800000322,None,left,18,"[18, 19, 17, 18, 17, 18, 17, 18, 17, 19, 18, 19, 18, 20, 18]",15,shiftedgaze_L_18.png,j,0,3,results18,001,2026-04-14_13h55.45.498,mogelijke versie adaptive staircase builder,,2026.1.3,59.97659713142611,2026-04-14 13h55.45.769118 +0200,
20.5,ecc10neg,right,22,0,22,f,0,1.7541204000008292,None,0,2,2,2,22,0,22,0,992.1837178999995,,,,,,,,,,,,,,,992.1795710999995,992.1837178999995,992.1837178999995,993.0978835999995,992.1837178999995,993.9484679999987,f,0,1.7541204000008292,None,direct,19,"[18, 19, 17, 18, 17, 18, 17, 18, 17, 19, 18, 19, 18, 20, 18]",15,shifteddirectgaze.png,f,0,3,results18,001,2026-04-14_13h55.45.498,mogelijke versie adaptive staircase builder,,2026.1.3,59.97659713142611,2026-04-14 13h55.45.769118 +0200,
20.5,ecc10neg,right,23,0,23,f,1,1.4937723999992158,None,0,2,2,2,23,0,23,0,994.0517247999996,,,,,,,,,,,,,,,994.0419556999987,994.0517247999996,994.0517247999996,994.9481970999987,994.0517247999996,995.5486186999988,f,1,1.4937723999992158,None,right,20,"[18, 19, 17, 18, 17, 18, 17, 18, 17, 19, 18, 19, 18, 20, 18, 20]",16,shiftedgaze_R_20.png,f,1,3,results18,001,2026-04-14_13h55.45.498,mogelijke versie adaptive staircase builder,,2026.1.3,59.97659713142611,2026-04-14 13h55.45.769118 +0200,
20.5,ecc10neg,right,24,0,24,f,1,1.6701317999995808,None,0,2,2,2,24,0,24,0,995.6435615999999,,,,,,,,,,,,,,,995.6333463999999,995.6435615999999,995.6435615999999,996.5481710999993,995.6435615999999,997.3154481999991,f,1,1.6701317999995808,None,left,19,"[18, 19, 17, 18, 17, 18, 17, 18, 17, 19, 18, 19, 18, 20, 18, 20]",16,shiftedgaze_L_19.png,f,1,3,results18,001,2026-04-14_13h55.45.498,mogelijke versie adaptive staircase builder,,2026.1.3,59.97659713142611,2026-04-14 13h55.45.769118 +0200,
20.5,ecc10neg,right,25,0,25,f,1,1.7513524999994843,None,0,2,2,2,25,0,25,0,997.4020332,,,,,,,,,,,,,,,997.3978670999986,997.4020332,997.4020332,998.3312979999992,997.4020332,999.1645793999996,f,1,1.7513524999994843,None,left,18,"[18, 19, 17, 18, 17, 18, 17, 18, 17, 19, 18, 19, 18, 20, 18, 20]",16,shiftedgaze_L_18.png,f,1,3,results18,001,2026-04-14_13h55.45.498,mogelijke versie adaptive staircase builder,,2026.1.3,59.97659713142611,2026-04-14 13h55.45.769118 +0200,
20.5,ecc10neg,right,26,0,26,f,1,1.5073238000004494,None,0,2,2,2,26,0,26,0,999.2620864,,,,,,,,,,,,,,,999.2524118000001,999.2620864,999.2620864,1000.1644385,999.2620864,1000.7813452999999,f,1,1.5073238000004494,None,right,17,"[18, 19, 17, 18, 17, 18, 17, 18, 17, 19, 18, 19, 18, 20, 18, 20]",16,shiftedgaze_R_17.png,f,1,3,results18,001,2026-04-14_13h55.45.498,mogelijke versie adaptive staircase builder,,2026.1.3,59.97659713142611,2026-04-14 13h55.45.769118 +0200,
20.5,ecc10neg,right,27,0,27,f,1,1.5125348000001395,None,0,2,2,2,27,0,27,0,1000.8813183999991,,,,,,,,,,,,,,,1000.8772542999995,1000.8813183999991,1000.8813183999991,1001.7812357999992,1000.8813183999991,1002.3985954999989,f,1,1.5125348000001395,None,right,16,"[18, 19, 17, 18, 17, 18, 17, 18, 17, 19, 18, 19, 18, 20, 18, 20]",16,shiftedgaze_R_16.png,f,1,3,results18,001,2026-04-14_13h55.45.498,mogelijke versie adaptive staircase builder,,2026.1.3,59.97659713142611,2026-04-14 13h55.45.769118 +0200,
20.5,ecc10neg,right,28,0,28,f,0,1.8296656999991683,None,0,2,2,2,28,0,28,0,1002.4916412999992,,,,,,,,,,,,,,,1002.4815412999997,1002.4916412999992,1002.4916412999992,1003.4144574000002,1002.4916412999992,1004.3312685000001,f,0,1.8296656999991683,None,direct,15,"[18, 19, 17, 18, 17, 18, 17, 18, 17, 19, 18, 19, 18, 20, 18, 20, 15]",17,shifteddirectgaze.png,f,0,3,results18,001,2026-04-14_13h55.45.498,mogelijke versie adaptive staircase builder,,2026.1.3,59.97659713142611,2026-04-14 13h55.45.769118 +0200,
20.5,ecc10neg,right,29,0,29,f,1,3.1928545000009763,None,0,2,2,2,29,0,29,0,1004.4404638999986,,,,,,,,,,,,,,,1004.4361776999995,1004.4404638999986,1004.4404638999986,1005.3312913999998,1004.4404638999986,1007.6482828999997,f,1,3.1928545000009763,None,left,16,"[18, 19, 17, 18, 17, 18, 17, 18, 17, 19, 18, 19, 18, 20, 18, 20, 15, 16]",18,shiftedgaze_L_16.png,f,1,3,results18,001,2026-04-14_13h55.45.498,mogelijke versie adaptive staircase builder,,2026.1.3,59.97659713142611,2026-04-14 13h55.45.769118 +0200,
20.5,ecc10neg,right,30,0,30,f,0,1.5967247999997198,None,0,2,2,2,30,0,30,0,1007.7485584999995,,,,,,,,,,,,,,,1007.7442487999997,1007.7485584999995,1007.7485584999995,1008.6478893999993,1007.7485584999995,1009.3484487999995,f,0,1.5967247999997198,None,direct,15,"[18, 19, 17, 18, 17, 18, 17, 18, 17, 19, 18, 19, 18, 20, 18, 20, 15, 16, 15]",19,shifteddirectgaze.png,f,0,3,results18,001,2026-04-14_13h55.45.498,mogelijke versie adaptive staircase builder,,2026.1.3,59.97659713142611,2026-04-14 13h55.45.769118 +0200,
20.5,ecc10neg,right,31,0,31,f,1,3.0151010999998107,None,0,2,2,2,31,0,31,0,1009.4422748999987,,,,,,,,,,,,,,,1009.4380729999993,1009.4422748999987,1009.4422748999987,1010.3481123000001,1009.4422748999987,1012.4649922999997,f,1,3.0151010999998107,None,left,16,"[18, 19, 17, 18, 17, 18, 17, 18, 17, 19, 18, 19, 18, 20, 18, 20, 15, 16, 15, 16]",20,shiftedgaze_L_16.png,f,1,3,results18,001,2026-04-14_13h55.45.498,mogelijke versie adaptive staircase builder,,2026.1.3,59.97659713142611,2026-04-14 13h55.45.769118 +0200,
20.5,ecc10neg,right,32,0,32,f,1,1.6252660999998625,None,0,2,2,2,32,0,32,0,1012.5680765999987,,,,,,,,,,,,,,,1012.5637245999987,1012.5680765999987,1012.5680765999987,1013.4647251999995,1012.5680765999987,1014.1984658000001,f,1,1.6252660999998625,None,left,15,"[18, 19, 17, 18, 17, 18, 17, 18, 17, 19, 18, 19, 18, 20, 18, 20, 15, 16, 15, 16]",20,shiftedgaze_L_15.png,f,1,3,results18,001,2026-04-14_13h55.45.498,mogelijke versie adaptive staircase builder,,2026.1.3,59.97659713142611,2026-04-14 13h55.45.769118 +0200,
20.5,ecc10neg,right,33,0,33,f,1,1.5959991999989143,None,0,2,2,2,33,0,33,0,1014.3015262999998,,,,,,,,,,,,,,,1014.2971483999991,1014.3015262999998,1014.3015262999998,1015.1980373999995,1014.3015262999998,1015.8983635999994,f,1,1.5959991999989143,None,right,14,"[18, 19, 17, 18, 17, 18, 17, 18, 17, 19, 18, 19, 18, 20, 18, 20, 15, 16, 15, 16]",20,shiftedgaze_R_14.png,f,1,3,results18,001,2026-04-14_13h55.45.498,mogelijke versie adaptive staircase builder,,2026.1.3,59.97659713142611,2026-04-14 13h55.45.769118 +0200,
20.5,ecc10neg,right,34,0,34,f,1,1.4151913000005152,None,0,2,2,2,34,0,34,0,1016.0021078999998,,,,,,,,,,,,,,,1015.9976891999995,1016.0021078999998,1016.0021078999998,1016.8981167000002,1016.0021078999998,1017.4315840999989,f,1,1.4151913000005152,None,right,13,"[18, 19, 17, 18, 17, 18, 17, 18, 17, 19, 18, 19, 18, 20, 18, 20, 15, 16, 15, 16]",20,shiftedgaze_R_13.png,f,1,3,results18,001,2026-04-14_13h55.45.498,mogelijke versie adaptive staircase builder,,2026.1.3,59.97659713142611,2026-04-14 13h55.45.769118 +0200,
20.5,ecc10neg,right,35,0,35,f,0,1.5329424000010476,None,0,2,2,2,35,0,35,0,1017.5244414999997,,,,,,,,,,,,,,,1017.5202816000001,1017.5244414999997,1017.5244414999997,1018.4313855,1017.5244414999997,1019.0649835999993,f,0,1.5329424000010476,None,direct,12,"[18, 19, 17, 18, 17, 18, 17, 18, 17, 19, 18, 19, 18, 20, 18, 20, 15, 16, 15, 16, 12]",21,shifteddirectgaze.png,f,0,3,results18,001,2026-04-14_13h55.45.498,mogelijke versie adaptive staircase builder,,2026.1.3,59.97659713142611,2026-04-14 13h55.45.769118 +0200,
20.5,ecc10neg,right,36,0,36,f,1,1.6539644000004046,None,0,2,2,2,36,0,36,0,1019.1552929999998,,,,,,,,,,,,,,,1019.1508455000003,1019.1552929999998,1019.1552929999998,1020.0648070999996,1019.1552929999998,1020.8150606999989,f,1,1.6539644000004046,None,right,13,"[18, 19, 17, 18, 17, 18, 17, 18, 17, 19, 18, 19, 18, 20, 18, 20, 15, 16, 15, 16, 12, 13]",22,shiftedgaze_R_13.png,f,1,3,results18,001,2026-04-14_13h55.45.498,mogelijke versie adaptive staircase builder,,2026.1.3,59.97659713142611,2026-04-14 13h55.45.769118 +0200,
20.5,ecc10neg,right,37,0,37,f,1,1.6209183999999368,None,0,2,2,2,37,0,37,0,1020.9166619999996,,,,,,,,,,,,,,,1020.9121742999996,1020.9166619999996,1020.9166619999996,1021.8147326999988,1020.9166619999996,1022.548379599999,f,1,1.6209183999999368,None,left,12,"[18, 19, 17, 18, 17, 18, 17, 18, 17, 19, 18, 19, 18, 20, 18, 20, 15, 16, 15, 16, 12, 13]",22,shiftedgaze_L_12.png,f,1,3,results18,001,2026-04-14_13h55.45.498,mogelijke versie adaptive staircase builder,,2026.1.3,59.97659713142611,2026-04-14 13h55.45.769118 +0200,
20.5,ecc10neg,right,38,0,38,f,1,1.7606339000012667,None,0,2,2,2,38,0,38,0,1022.6486590999993,,,,,,,,,,,,,,,1022.6444082999988,1022.6486590999993,1022.6486590999993,1023.548125199999,1022.6486590999993,1024.415040599999,f,1,1.7606339000012667,None,left,11,"[18, 19, 17, 18, 17, 18, 17, 18, 17, 19, 18, 19, 18, 20, 18, 20, 15, 16, 15, 16, 12, 13]",22,shiftedgaze_L_11.png,f,1,3,results18,001,2026-04-14_13h55.45.498,mogelijke versie adaptive staircase builder,,2026.1.3,59.97659713142611,2026-04-14 13h55.45.769118 +0200,
20.5,ecc10neg,right,39,0,39,f,0,1.7723486000013509,None,0,2,2,2,39,0,39,0,1024.5090808999994,,,,,,,,,,,,,,,1024.5043565999986,1024.5090808999994,1024.5090808999994,1025.4148355999987,1024.5090808999994,1026.2818252999987,f,0,1.7723486000013509,None,direct,10,"[18, 19, 17, 18, 17, 18, 17, 18, 17, 19, 18, 19, 18, 20, 18, 20, 15, 16, 15, 16, 12, 13, 10]",23,shifteddirectgaze.png,f,0,3,results18,001,2026-04-14_13h55.45.498,mogelijke versie adaptive staircase builder,,2026.1.3,59.97659713142611,2026-04-14 13h55.45.769118 +0200,
20.5,ecc10neg,right,40,0,40,j,0,1.754139299999224,None,0,2,2,2,40,0,40,0,1026.3753265999985,,,,,,,,,,,,,,,1026.3710200999994,1026.3753265999985,1026.3753265999985,1027.2813848999995,1026.3753265999985,1028.1316479999987,j,0,1.754139299999224,None,left,11,"[18, 19, 17, 18, 17, 18, 17, 18, 17, 19, 18, 19, 18, 20, 18, 20, 15, 16, 15, 16, 12, 13, 10]",23,shiftedgaze_L_11.png,j,0,3,results18,001,2026-04-14_13h55.45.498,mogelijke versie adaptive staircase builder,,2026.1.3,59.97659713142611,2026-04-14 13h55.45.769118 +0200,
20.5,ecc10neg,right,41,0,41,f,1,1.6553020999999717,None,0,2,2,2,41,0,41,0,1028.2500431999997,,,,,,,,,,,,,,,1028.2383450999987,1028.2500431999997,1028.2500431999997,1029.1310796999987,1028.2500431999997,1029.9147212999997,f,1,1.6553020999999717,None,right,12,"[18, 19, 17, 18, 17, 18, 17, 18, 17, 19, 18, 19, 18, 20, 18, 20, 15, 16, 15, 16, 12, 13, 10, 12]",24,shiftedgaze_R_12.png,f,1,3,results18,001,2026-04-14_13h55.45.498,mogelijke versie adaptive staircase builder,,2026.1.3,59.97659713142611,2026-04-14 13h55.45.769118 +0200,
20.5,ecc10neg,right,42,0,42,f,0,1.4918765000002168,None,0,2,2,2,42,0,42,0,1030.0055735999995,,,,,,,,,,,,,,,1029.9957343999995,1030.0055735999995,1030.0055735999995,1030.914520799999,1030.0055735999995,1031.498043399999,f,0,1.4918765000002168,None,direct,11,"[18, 19, 17, 18, 17, 18, 17, 18, 17, 19, 18, 19, 18, 20, 18, 20, 15, 16, 15, 16, 12, 13, 10, 12, 11]",25,shifteddirectgaze.png,f,0,3,results18,001,2026-04-14_13h55.45.498,mogelijke versie adaptive staircase builder,,2026.1.3,59.97659713142611,2026-04-14 13h55.45.769118 +0200,
20.5,ecc10neg,right,43,0,43,f,1,1.7413087000004452,None,0,2,2,2,43,0,43,0,1031.5880070000003,,,,,,,,,,,,,,,1031.578485,1031.5880070000003,1031.5880070000003,1032.4979060999995,1031.5880070000003,1033.3313937999992,f,1,1.7413087000004452,None,right,12,"[18, 19, 17, 18, 17, 18, 17, 18, 17, 19, 18, 19, 18, 20, 18, 20, 15, 16, 15, 16, 12, 13, 10, 12, 11, 12]",26,shiftedgaze_R_12.png,f,1,3,results18,001,2026-04-14_13h55.45.498,mogelijke versie adaptive staircase builder,,2026.1.3,59.97659713142611,2026-04-14 13h55.45.769118 +0200,
20.5,ecc10neg,right,44,0,44,f,1,1.557795200000328,None,0,2,2,2,44,0,44,0,1033.4356193999993,,,,,,,,,,,,,,,1033.4249557999992,1033.4356193999993,1033.4356193999993,1034.3312723999989,1033.4356193999993,1034.9981396000003,f,1,1.557795200000328,None,left,11,"[18, 19, 17, 18, 17, 18, 17, 18, 17, 19, 18, 19, 18, 20, 18, 20, 15, 16, 15, 16, 12, 13, 10, 12, 11, 12]",26,shiftedgaze_L_11.png,f,1,3,results18,001,2026-04-14_13h55.45.498,mogelijke versie adaptive staircase builder,,2026.1.3,59.97659713142611,2026-04-14 13h55.45.769118 +0200,
20.5,ecc10neg,right,45,0,45,f,0,1.604664700000285,None,0,2,2,2,45,0,45,0,1035.0845628999996,,,,,,,,,,,,,,,1035.0805707,1035.0845628999996,1035.0845628999996,1035.9978365999996,1035.0845628999996,1036.6981811999995,f,0,1.604664700000285,None,direct,10,"[18, 19, 17, 18, 17, 18, 17, 18, 17, 19, 18, 19, 18, 20, 18, 20, 15, 16, 15, 16, 12, 13, 10, 12, 11, 12, 10]",27,shifteddirectgaze.png,f,0,3,results18,001,2026-04-14_13h55.45.498,mogelijke versie adaptive staircase builder,,2026.1.3,59.97659713142611,2026-04-14 13h55.45.769118 +0200,
20.5,ecc10neg,right,46,0,46,f,1,1.7376524999999674,None,0,2,2,2,46,0,46,0,1036.7839413000002,,,,,,,,,,,,,,,1036.7799204000003,1036.7839413000002,1036.7839413000002,1037.6983557999993,1036.7839413000002,1038.5319819999986,f,1,1.7376524999999674,None,left,11,"[18, 19, 17, 18, 17, 18, 17, 18, 17, 19, 18, 19, 18, 20, 18, 20, 15, 16, 15, 16, 12, 13, 10, 12, 11, 12, 10, 11]",28,shiftedgaze_L_11.png,f,1,3,results18,001,2026-04-14_13h55.45.498,mogelijke versie adaptive staircase builder,,2026.1.3,59.97659713142611,2026-04-14 13h55.45.769118 +0200,
20.5,ecc10neg,right,47,0,47,f,1,1.5519185999983165,None,0,2,2,2,47,0,47,0,1038.6254725999988,,,,,,,,,,,,,,,1038.6208756999986,1038.6254725999988,1038.6254725999988,1039.5312595999985,1038.6254725999988,1040.1813849999999,f,1,1.5519185999983165,None,left,10,"[18, 19, 17, 18, 17, 18, 17, 18, 17, 19, 18, 19, 18, 20, 18, 20, 15, 16, 15, 16, 12, 13, 10, 12, 11, 12, 10, 11]",28,shiftedgaze_L_10.png,f,1,3,results18,001,2026-04-14_13h55.45.498,mogelijke versie adaptive staircase builder,,2026.1.3,59.97659713142611,2026-04-14 13h55.45.769118 +0200,
20.5,ecc10neg,right,48,0,48,j,0,1.4069218000004184,None,0,2,2,2,48,0,48,0,1040.6504029999996,,,,,,,,,,,,,,,1040.6461576000002,1040.6504029999996,1040.6504029999996,1041.1808325999991,1040.6504029999996,1042.0646668999998,j,0,1.4069218000004184,None,left,9,"[18, 19, 17, 18, 17, 18, 17, 18, 17, 19, 18, 19, 18, 20, 18, 20, 15, 16, 15, 16, 12, 13, 10, 12, 11, 12, 10, 11, 9]",29,shiftedgaze_L_9.png,j,0,3,results18,001,2026-04-14_13h55.45.498,mogelijke versie adaptive staircase builder,,2026.1.3,59.97659713142611,2026-04-14 13h55.45.769118 +0200,
20.5,ecc10neg,right,49,0,49,j,0,1.7477605000003678,None,0,2,2,2,49,0,49,0,1042.1497089999993,,,,,,,,,,,,,,,1042.1455495999999,1042.1497089999993,1042.1497089999993,1043.0646357999995,1042.1497089999993,1043.8980678999997,j,0,1.7477605000003678,None,left,10,"[18, 19, 17, 18, 17, 18, 17, 18, 17, 19, 18, 19, 18, 20, 18, 20, 15, 16, 15, 16, 12, 13, 10, 12, 11, 12, 10, 11, 9]",29,shiftedgaze_L_10.png,j,0,3,results18,001,2026-04-14_13h55.45.498,mogelijke versie adaptive staircase builder,,2026.1.3,59.97659713142611,2026-04-14 13h55.45.769118 +0200,
20.5,ecc10neg,right,50,0,50,f,1,1.5328241999995953,None,0,2,2,2,50,0,50,0,1043.9885679999988,,,,,,,,,,,,,,,1043.9845860999994,1043.9885679999988,1043.9885679999988,1044.8979265999988,1043.9885679999988,1045.5316542,f,1,1.5328241999995953,None,right,11,"[18, 19, 17, 18, 17, 18, 17, 18, 17, 19, 18, 19, 18, 20, 18, 20, 15, 16, 15, 16, 12, 13, 10, 12, 11, 12, 10, 11, 9, 11]",30,shiftedgaze_R_11.png,f,1,3,results18,001,2026-04-14_13h55.45.498,mogelijke versie adaptive staircase builder,,2026.1.3,59.97659713142611,2026-04-14 13h55.45.769118 +0200,
20.5,ecc10neg,right,51,0,51,f,1,1.6438900000011927,None,0,2,2,2,51,0,51,0,1045.6223152000002,,,,,,,,,,,,,,,1045.6180284000002,1045.6223152000002,1045.6223152000002,1046.5317426000001,1045.6223152000002,1047.2664851999998,f,1,1.6438900000011927,None,right,10,"[18, 19, 17, 18, 17, 18, 17, 18, 17, 19, 18, 19, 18, 20, 18, 20, 15, 16, 15, 16, 12, 13, 10, 12, 11, 12, 10, 11, 9, 11]",30,shiftedgaze_R_10.png,f,1,3,results18,001,2026-04-14_13h55.45.498,mogelijke versie adaptive staircase builder,,2026.1.3,59.97659713142611,2026-04-14 13h55.45.769118 +0200,
20.5,ecc10neg,right,52,0,52,f,1,1.6198781999992207,None,0,2,2,2,52,0,52,0,1047.3495108999996,,,,,,,,,,,,,,,1047.3453995,1047.3495108999996,1047.3495108999996,1048.2815173999988,1047.3495108999996,1048.9813711999996,f,1,1.6198781999992207,None,left,9,"[18, 19, 17, 18, 17, 18, 17, 18, 17, 19, 18, 19, 18, 20, 18, 20, 15, 16, 15, 16, 12, 13, 10, 12, 11, 12, 10, 11, 9, 11]",30,shiftedgaze_L_9.png,f,1,3,results18,001,2026-04-14_13h55.45.498,mogelijke versie adaptive staircase builder,,2026.1.3,59.97659713142611,2026-04-14 13h55.45.769118 +0200,
20.5,ecc10neg,right,53,0,53,f,0,1.610158200001024,None,0,2,2,2,53,0,53,0,1049.0636078999996,,,,,,,,,,,,,,,1049.0597017,1049.0636078999996,1049.0636078999996,1049.9811953999997,1049.0636078999996,1050.6817124999998,f,0,1.610158200001024,None,direct,8,"[18, 19, 17, 18, 17, 18, 17, 18, 17, 19, 18, 19, 18, 20, 18, 20, 15, 16, 15, 16, 12, 13, 10, 12, 11, 12, 10, 11, 9, 11, 8]",31,shifteddirectgaze.png,f,0,3,results18,001,2026-04-14_13h55.45.498,mogelijke versie adaptive staircase builder,,2026.1.3,59.97659713142611,2026-04-14 13h55.45.769118 +0200,
20.5,ecc10neg,right,54,0,54,f,1,1.5335000000013679,None,0,2,2,2,54,0,54,0,1050.7639041000002,,,,,,,,,,,,,,,1050.7599095999994,1050.7639041000002,1050.7639041000002,1051.6811574000003,1050.7639041000002,1052.2979962999998,f,1,1.5335000000013679,None,left,9,"[18, 19, 17, 18, 17, 18, 17, 18, 17, 19, 18, 19, 18, 20, 18, 20, 15, 16, 15, 16, 12, 13, 10, 12, 11, 12, 10, 11, 9, 11, 8, 9]",32,shiftedgaze_L_9.png,f,1,3,results18,001,2026-04-14_13h55.45.498,mogelijke versie adaptive staircase builder,,2026.1.3,59.97659713142611,2026-04-14 13h55.45.769118 +0200,
20.5,ecc10neg,right,55,0,55,f,1,1.3729521000004752,None,0,2,2,2,55,0,55,0,1052.3888071000001,,,,,,,,,,,,,,,1052.3848194000002,1052.3888071000001,1052.3888071000001,1053.2979242000001,1052.3888071000001,1053.7651599,f,1,1.3729521000004752,None,right,8,"[18, 19, 17, 18, 17, 18, 17, 18, 17, 19, 18, 19, 18, 20, 18, 20, 15, 16, 15, 16, 12, 13, 10, 12, 11, 12, 10, 11, 9, 11, 8, 9]",32,shiftedgaze_R_8.png,f,1,3,results18,001,2026-04-14_13h55.45.498,mogelijke versie adaptive staircase builder,,2026.1.3,59.97659713142611,2026-04-14 13h55.45.769118 +0200,
20.5,ecc10neg,right,56,0,56,f,1,1.456480199998623,None,0,2,2,2,56,0,56,0,1053.8572098999994,,,,,,,,,,,,,,,1053.853022199999,1053.8572098999994,1053.8572098999994,1054.7647652999985,1053.8572098999994,1055.3150133,f,1,1.456480199998623,None,left,7,"[18, 19, 17, 18, 17, 18, 17, 18, 17, 19, 18, 19, 18, 20, 18, 20, 15, 16, 15, 16, 12, 13, 10, 12, 11, 12, 10, 11, 9, 11, 8, 9]",32,shiftedgaze_L_7.png,f,1,3,results18,001,2026-04-14_13h55.45.498,mogelijke versie adaptive staircase builder,,2026.1.3,59.97659713142611,2026-04-14 13h55.45.769118 +0200,
20.5,ecc10neg,right,57,0,57,j,1,1.6279630000008183,None,0,2,2,2,57,0,57,0,1055.405401,,,,,,,,,,,,,,,1055.4011747999994,1055.405401,1055.405401,1056.3147675,1055.405401,1057.0481406999988,j,1,1.6279630000008183,None,direct,6,"[18, 19, 17, 18, 17, 18, 17, 18, 17, 19, 18, 19, 18, 20, 18, 20, 15, 16, 15, 16, 12, 13, 10, 12, 11, 12, 10, 11, 9, 11, 8, 9]",32,shifteddirectgaze.png,j,1,3,results18,001,2026-04-14_13h55.45.498,mogelijke versie adaptive staircase builder,,2026.1.3,59.97659713142611,2026-04-14 13h55.45.769118 +0200,
20.5,ecc10neg,right,58,0,58,f,1,0.9455118000005314,None,0,2,2,2,58,0,58,0,1057.4959311999992,,,,,,,,,,,,,,,1057.491661099999,1057.4959311999992,1057.4959311999992,1058.0480620999988,1057.4959311999992,1058.4481393999995,f,1,0.9455118000005314,None,right,5,"[18, 19, 17, 18, 17, 18, 17, 18, 17, 19, 18, 19, 18, 20, 18, 20, 15, 16, 15, 16, 12, 13, 10, 12, 11, 12, 10, 11, 9, 11, 8, 9]",32,shiftedgaze_R_5.png,f,1,3,results18,001,2026-04-14_13h55.45.498,mogelijke versie adaptive staircase builder,,2026.1.3,59.97659713142611,2026-04-14 13h55.45.769118 +0200,
20.5,ecc10neg,right,59,0,59,f,1,1.3840777999994316,None,0,2,2,2,59,0,59,0,1058.7536949999994,,,,,,,,,,,,,,,1058.7494177999997,1058.7536949999994,1058.7536949999994,1059.4478248999985,1058.7536949999994,1060.1487027999992,f,1,1.3840777999994316,None,right,4,"[18, 19, 17, 18, 17, 18, 17, 18, 17, 19, 18, 19, 18, 20, 18, 20, 15, 16, 15, 16, 12, 13, 10, 12, 11, 12, 10, 11, 9, 11, 8, 9]",32,shiftedgaze_R_4.png,f,1,3,results18,001,2026-04-14_13h55.45.498,mogelijke versie adaptive staircase builder,,2026.1.3,59.97659713142611,2026-04-14 13h55.45.769118 +0200,
20.5,ecc10neg,right,2,2,0,,,,,0,2,2,2,,,,,,,,,,,,,,,,,,,,,,,,,,,,,,,,,,,,,,results18,001,2026-04-14_13h55.45.498,mogelijke versie adaptive staircase builder,,2026.1.3,59.97659713142611,2026-04-14 13h55.45.769118 +0200,
