xPos,stimulusSet,whichImage,thisN,thisTrialN,thisRepN,key_resp.keys,key_resp.corr,key_resp.rt,key_resp.duration,blocks.thisRepN,blocks.thisTrialN,blocks.thisN,blocks.thisIndex,trials.thisRepN,trials.thisTrialN,trials.thisN,trials.thisIndex,thisRow.t,notes,piloting,intro.started,introinstructions.started,intro_key.started,demo_image_left.started,demo_image_middle.started,demo_image_right.started,intro.stopped,intro_key.keys,intro_key.rt,intro_key.duration,block_start.started,block_start.stopped,trial.started,key_resp.started,middle_image.started,right_image.started,left_image.started,trial.stopped,trials.key_resp.keys,trials.key_resp.corr,trials.key_resp.rt,trials.key_resp.duration,direction,angle,reversal_intensities,number_reversals,stimulus,response,correct,blockNumber,participant,session,date,expName,expVersion,psychopyVersion,frameRate,expStart,
,,,,,,,,,,,,,,,,,,,,False,0.003665400000045338,0.006358699999964301,0.006358699999964301,0.006358699999964301,0.006358699999964301,0.006358699999964301,828.4612979999997,space,828.3180806000005,0.13575639999999112,,,,,,,,,,,,,,,,,,,,,results12,001,2026-04-14_10h49.12.977,mogelijke versie adaptive staircase builder,,2026.1.3,59.97864760148051,2026-04-14 10h49.13.259960 +0200,
4.5,ecc10pos,left,0,0,0,f,1,4.2213016000005155,None,0,0,0,0,0,0,0,0,828.7987509,,,,,,,,,,,,,828.6805675999999,828.6806339,828.7947931000003,828.7987509,828.7987509,828.7987509,829.6942527999995,833.0276601,f,1,4.2213016000005155,None,left,20,[],0,shiftedgaze_L_20.png,f,1,1,results12,001,2026-04-14_10h49.12.977,mogelijke versie adaptive staircase builder,,2026.1.3,59.97864760148051,2026-04-14 10h49.13.259960 +0200,
4.5,ecc10pos,left,1,0,1,f,1,3.5548327000005884,None,0,0,0,0,1,0,1,0,833.1933075000002,,,,,,,,,,,,,,,833.1858189,833.1933075000002,833.1933075000002,833.1933075000002,834.0279095000001,836.7613168000003,f,1,3.5548327000005884,None,right,19,[],0,shiftedgaze_R_19.png,f,1,1,results12,001,2026-04-14_10h49.12.977,mogelijke versie adaptive staircase builder,,2026.1.3,59.97864760148051,2026-04-14 10h49.13.259960 +0200,
4.5,ecc10pos,left,2,0,2,j,0,9.1719764999998,None,0,0,0,0,2,0,2,0,836.8959940999998,,,,,,,,,,,,,,,836.8864989999997,836.8959940999998,836.8959940999998,836.8959940999998,837.7607334999998,846.0777640000001,j,0,9.1719764999998,None,left,18,[18],1,shiftedgaze_L_18.png,j,0,1,results12,001,2026-04-14_10h49.12.977,mogelijke versie adaptive staircase builder,,2026.1.3,59.97864760148051,2026-04-14 10h49.13.259960 +0200,
4.5,ecc10pos,left,3,0,3,j,1,3.6101893000004566,None,0,0,0,0,3,0,3,0,846.1777342,,,,,,,,,,,,,,,846.1679528999998,846.1777342,846.1777342,846.1777342,847.0774059,849.7942410999999,j,1,3.6101893000004566,None,direct,19,"[18, 19]",2,shifteddirectgaze.png,j,1,1,results12,001,2026-04-14_10h49.12.977,mogelijke versie adaptive staircase builder,,2026.1.3,59.97864760148051,2026-04-14 10h49.13.259960 +0200,
4.5,ecc10pos,left,4,0,4,j,0,5.856494499999826,None,0,0,0,0,4,0,4,0,849.8836318999997,,,,,,,,,,,,,,,849.8791284000004,849.8836318999997,849.8836318999997,849.8836318999997,850.7941321000003,855.7444339999997,j,0,5.856494499999826,None,right,18,"[18, 19, 18]",3,shiftedgaze_R_18.png,j,0,1,results12,001,2026-04-14_10h49.12.977,mogelijke versie adaptive staircase builder,,2026.1.3,59.97864760148051,2026-04-14 10h49.13.259960 +0200,
4.5,ecc10pos,left,5,0,5,j,1,2.671897100000024,None,0,0,0,0,5,0,5,0,855.8284482000004,,,,,,,,,,,,,,,855.8243182000001,855.8284482000004,855.8284482000004,855.8284482000004,856.7441203000003,858.5114430999997,j,1,2.671897100000024,None,direct,19,"[18, 19, 18, 19]",4,shifteddirectgaze.png,j,1,1,results12,001,2026-04-14_10h49.12.977,mogelijke versie adaptive staircase builder,,2026.1.3,59.97864760148051,2026-04-14 10h49.13.259960 +0200,
4.5,ecc10pos,left,6,0,6,f,1,3.7606743000005736,None,0,0,0,0,6,0,6,0,858.5956056,,,,,,,,,,,,,,,858.5914486999995,858.5956056,858.5956056,858.5956056,859.5274277000003,862.3609631000004,f,1,3.7606743000005736,None,right,18,"[18, 19, 18, 19]",4,shiftedgaze_R_18.png,f,1,1,results12,001,2026-04-14_10h49.12.977,mogelijke versie adaptive staircase builder,,2026.1.3,59.97864760148051,2026-04-14 10h49.13.259960 +0200,
4.5,ecc10pos,left,7,0,7,f,1,6.921902999999475,None,0,0,0,0,7,0,7,0,862.4506033000002,,,,,,,,,,,,,,,862.4463234,862.4506033000002,862.4506033000002,862.4506033000002,863.3612066000001,869.3779541999997,f,1,6.921902999999475,None,right,17,"[18, 19, 18, 19]",4,shiftedgaze_R_17.png,f,1,1,results12,001,2026-04-14_10h49.12.977,mogelijke versie adaptive staircase builder,,2026.1.3,59.97864760148051,2026-04-14 10h49.13.259960 +0200,
4.5,ecc10pos,left,8,0,8,j,1,3.620864299999994,None,0,0,0,0,8,0,8,0,869.4631507999998,,,,,,,,,,,,,,,869.4586951999995,869.4631507999998,869.4631507999998,869.4631507999998,870.3778469000003,873.0942695999997,j,1,3.620864299999994,None,direct,16,"[18, 19, 18, 19]",4,shifteddirectgaze.png,j,1,1,results12,001,2026-04-14_10h49.12.977,mogelijke versie adaptive staircase builder,,2026.1.3,59.97864760148051,2026-04-14 10h49.13.259960 +0200,
4.5,ecc10pos,left,9,0,9,j,1,7.717869400000382,None,0,0,0,0,9,0,9,0,873.1822604000004,,,,,,,,,,,,,,,873.1781109999997,873.1822604000004,873.1822604000004,873.1822604000004,874.0943905999998,880.9108648999995,j,1,7.717869400000382,None,direct,15,"[18, 19, 18, 19]",4,shifteddirectgaze.png,j,1,1,results12,001,2026-04-14_10h49.12.977,mogelijke versie adaptive staircase builder,,2026.1.3,59.97864760148051,2026-04-14 10h49.13.259960 +0200,
4.5,ecc10pos,left,10,0,10,j,0,11.706423900000118,None,0,0,0,0,10,0,10,0,880.9940580999996,,,,,,,,,,,,,,,880.9899832999995,880.9940580999996,880.9940580999996,880.9940580999996,881.9106968000001,892.7114722000001,j,0,11.706423900000118,None,left,14,"[18, 19, 18, 19, 14]",5,shiftedgaze_L_14.png,j,0,1,results12,001,2026-04-14_10h49.12.977,mogelijke versie adaptive staircase builder,,2026.1.3,59.97864760148051,2026-04-14 10h49.13.259960 +0200,
4.5,ecc10pos,left,11,0,11,j,0,7.641078700000435,None,0,0,0,0,11,0,11,0,892.8113423,,,,,,,,,,,,,,,892.8016167999999,892.8113423,892.8113423,892.8113423,893.7111640999997,900.4614390000002,j,0,7.641078700000435,None,left,15,"[18, 19, 18, 19, 14]",5,shiftedgaze_L_15.png,j,0,1,results12,001,2026-04-14_10h49.12.977,mogelijke versie adaptive staircase builder,,2026.1.3,59.97864760148051,2026-04-14 10h49.13.259960 +0200,
4.5,ecc10pos,left,12,0,12,f,1,4.684855499999685,None,0,0,0,0,12,0,12,0,900.5753442,,,,,,,,,,,,,,,900.5652163,900.5753442,900.5753442,900.5753442,901.4607820999995,905.2607878000003,f,1,4.684855499999685,None,left,16,"[18, 19, 18, 19, 14, 16]",6,shiftedgaze_L_16.png,f,1,1,results12,001,2026-04-14_10h49.12.977,mogelijke versie adaptive staircase builder,,2026.1.3,59.97864760148051,2026-04-14 10h49.13.259960 +0200,
4.5,ecc10pos,left,13,0,13,j,0,2.749493600000278,None,0,0,0,0,13,0,13,0,905.3665988999996,,,,,,,,,,,,,,,905.3560229,905.3665988999996,905.3665988999996,905.3665988999996,906.2609691000002,908.1274515,j,0,2.749493600000278,None,right,15,"[18, 19, 18, 19, 14, 16, 15]",7,shiftedgaze_R_15.png,j,0,1,results12,001,2026-04-14_10h49.12.977,mogelijke versie adaptive staircase builder,,2026.1.3,59.97864760148051,2026-04-14 10h49.13.259960 +0200,
4.5,ecc10pos,left,14,0,14,f,0,4.697693899999649,None,0,0,0,0,14,0,14,0,908.2106052000004,,,,,,,,,,,,,,,908.2065402000003,908.2106052000004,908.2106052000004,908.2106052000004,909.1272949999998,912.9112173999997,f,0,4.697693899999649,None,direct,16,"[18, 19, 18, 19, 14, 16, 15]",7,shifteddirectgaze.png,f,0,1,results12,001,2026-04-14_10h49.12.977,mogelijke versie adaptive staircase builder,,2026.1.3,59.97864760148051,2026-04-14 10h49.13.259960 +0200,
4.5,ecc10pos,left,15,0,15,f,1,2.8333933000003526,None,0,0,0,0,15,0,15,0,913.0107512,,,,,,,,,,,,,,,913.0004788000001,913.0107512,913.0107512,913.0107512,913.9111969,915.8444076000001,f,1,2.8333933000003526,None,left,17,"[18, 19, 18, 19, 14, 16, 15, 17]",8,shiftedgaze_L_17.png,f,1,1,results12,001,2026-04-14_10h49.12.977,mogelijke versie adaptive staircase builder,,2026.1.3,59.97864760148051,2026-04-14 10h49.13.259960 +0200,
4.5,ecc10pos,left,16,0,16,j,0,2.1138246000000436,None,0,0,0,0,16,0,16,0,915.9467928999998,,,,,,,,,,,,,,,915.9362593999999,915.9467928999998,915.9467928999998,915.9467928999998,916.8440769000003,918.0615155,j,0,2.1138246000000436,None,right,16,"[18, 19, 18, 19, 14, 16, 15, 17, 16]",9,shiftedgaze_R_16.png,j,0,1,results12,001,2026-04-14_10h49.12.977,mogelijke versie adaptive staircase builder,,2026.1.3,59.97864760148051,2026-04-14 10h49.13.259960 +0200,
4.5,ecc10pos,left,17,0,17,f,1,5.4688224000001355,None,0,0,0,0,17,0,17,0,918.1593058000003,,,,,,,,,,,,,,,918.1491884000002,918.1593058000003,918.1593058000003,918.1593058000003,919.0612426000002,923.6284350999999,f,1,5.4688224000001355,None,left,17,"[18, 19, 18, 19, 14, 16, 15, 17, 16, 17]",10,shiftedgaze_L_17.png,f,1,1,results12,001,2026-04-14_10h49.12.977,mogelijke versie adaptive staircase builder,,2026.1.3,59.97864760148051,2026-04-14 10h49.13.259960 +0200,
4.5,ecc10pos,left,18,0,18,f,1,4.136405000000195,None,0,0,0,0,18,0,18,0,923.7235933999996,,,,,,,,,,,,,,,923.7133658999996,923.7235933999996,923.7235933999996,923.7235933999996,924.6278090000001,927.8612178999997,f,1,4.136405000000195,None,right,16,"[18, 19, 18, 19, 14, 16, 15, 17, 16, 17]",10,shiftedgaze_R_16.png,f,1,1,results12,001,2026-04-14_10h49.12.977,mogelijke versie adaptive staircase builder,,2026.1.3,59.97864760148051,2026-04-14 10h49.13.259960 +0200,
4.5,ecc10pos,left,19,0,19,f,1,4.306349400000727,None,0,0,0,0,19,0,19,0,927.9617000000003,,,,,,,,,,,,,,,927.9520164999999,927.9617000000003,927.9617000000003,927.9617000000003,928.8608337999999,932.2775895,f,1,4.306349400000727,None,left,15,"[18, 19, 18, 19, 14, 16, 15, 17, 16, 17]",10,shiftedgaze_L_15.png,f,1,1,results12,001,2026-04-14_10h49.12.977,mogelijke versie adaptive staircase builder,,2026.1.3,59.97864760148051,2026-04-14 10h49.13.259960 +0200,
4.5,ecc10pos,left,20,0,20,f,1,4.988059899999826,None,0,0,0,0,20,0,20,0,932.3681350000002,,,,,,,,,,,,,,,932.3585533,932.3681350000002,932.3681350000002,932.3681350000002,933.2774385999996,937.3612652999996,f,1,4.988059899999826,None,left,14,"[18, 19, 18, 19, 14, 16, 15, 17, 16, 17]",10,shiftedgaze_L_14.png,f,1,1,results12,001,2026-04-14_10h49.12.977,mogelijke versie adaptive staircase builder,,2026.1.3,59.97864760148051,2026-04-14 10h49.13.259960 +0200,
4.5,ecc10pos,left,21,0,21,j,0,6.022223299999496,None,0,0,0,0,21,0,21,0,937.4539374000001,,,,,,,,,,,,,,,937.4498687999999,937.4539374000001,937.4539374000001,937.4539374000001,938.3608186999995,943.4778088999997,j,0,6.022223299999496,None,right,13,"[18, 19, 18, 19, 14, 16, 15, 17, 16, 17, 13]",11,shiftedgaze_R_13.png,j,0,1,results12,001,2026-04-14_10h49.12.977,mogelijke versie adaptive staircase builder,,2026.1.3,59.97864760148051,2026-04-14 10h49.13.259960 +0200,
4.5,ecc10pos,left,22,0,22,f,0,4.947672700000112,None,0,0,0,0,22,0,22,0,943.5603853999996,,,,,,,,,,,,,,,943.5561700000003,943.5603853999996,943.5603853999996,943.5603853999996,944.4774991999998,948.5109746000003,f,0,4.947672700000112,None,direct,14,"[18, 19, 18, 19, 14, 16, 15, 17, 16, 17, 13]",11,shifteddirectgaze.png,f,0,1,results12,001,2026-04-14_10h49.12.977,mogelijke versie adaptive staircase builder,,2026.1.3,59.97864760148051,2026-04-14 10h49.13.259960 +0200,
4.5,ecc10pos,left,23,0,23,j,1,1.8897636000001512,None,0,0,0,0,23,0,23,0,948.5943536,,,,,,,,,,,,,,,948.5900361999998,948.5943536,948.5943536,948.5943536,949.511062,950.4945380000004,j,1,1.8897636000001512,None,direct,15,"[18, 19, 18, 19, 14, 16, 15, 17, 16, 17, 13, 15]",12,shifteddirectgaze.png,j,1,1,results12,001,2026-04-14_10h49.12.977,mogelijke versie adaptive staircase builder,,2026.1.3,59.97864760148051,2026-04-14 10h49.13.259960 +0200,
4.5,ecc10pos,left,24,0,24,j,1,2.6675100000002203,None,0,0,0,0,24,0,24,0,950.5765223000003,,,,,,,,,,,,,,,950.5723827999996,950.5765223000003,950.5765223000003,950.5765223000003,951.4946139999997,953.2442757000003,j,1,2.6675100000002203,None,direct,14,"[18, 19, 18, 19, 14, 16, 15, 17, 16, 17, 13, 15]",12,shifteddirectgaze.png,j,1,1,results12,001,2026-04-14_10h49.12.977,mogelijke versie adaptive staircase builder,,2026.1.3,59.97864760148051,2026-04-14 10h49.13.259960 +0200,
4.5,ecc10pos,left,25,0,25,f,0,4.1812786000000415,None,0,0,0,0,25,0,25,0,953.3271452000004,,,,,,,,,,,,,,,953.3228957999995,953.3271452000004,953.3271452000004,953.3271452000004,954.2446175,957.5115079000002,f,0,4.1812786000000415,None,direct,13,"[18, 19, 18, 19, 14, 16, 15, 17, 16, 17, 13, 15, 13]",13,shifteddirectgaze.png,f,0,1,results12,001,2026-04-14_10h49.12.977,mogelijke versie adaptive staircase builder,,2026.1.3,59.97864760148051,2026-04-14 10h49.13.259960 +0200,
4.5,ecc10pos,left,26,0,26,j,0,5.006831099999545,None,0,0,0,0,26,0,26,0,957.6052376000002,,,,,,,,,,,,,,,957.6011488999998,957.6052376000002,957.6052376000002,957.6052376000002,958.5275409999999,962.6275557000004,j,0,5.006831099999545,None,right,14,"[18, 19, 18, 19, 14, 16, 15, 17, 16, 17, 13, 15, 13]",13,shiftedgaze_R_14.png,j,0,1,results12,001,2026-04-14_10h49.12.977,mogelijke versie adaptive staircase builder,,2026.1.3,59.97864760148051,2026-04-14 10h49.13.259960 +0200,
4.5,ecc10pos,left,27,0,27,f,0,7.91782239999975,None,0,0,0,0,27,0,27,0,962.7101715000003,,,,,,,,,,,,,,,962.7062860999999,962.7101715000003,962.7101715000003,962.7101715000003,963.6274071000003,970.6442675000003,f,0,7.91782239999975,None,direct,15,"[18, 19, 18, 19, 14, 16, 15, 17, 16, 17, 13, 15, 13]",13,shifteddirectgaze.png,f,0,1,results12,001,2026-04-14_10h49.12.977,mogelijke versie adaptive staircase builder,,2026.1.3,59.97864760148051,2026-04-14 10h49.13.259960 +0200,
4.5,ecc10pos,left,28,0,28,j,1,3.9567555000003267,None,0,0,0,0,28,0,28,0,970.7273320999998,,,,,,,,,,,,,,,970.7236129999997,970.7273320999998,970.7273320999998,970.7273320999998,971.6443075000002,974.6942658000003,j,1,3.9567555000003267,None,direct,16,"[18, 19, 18, 19, 14, 16, 15, 17, 16, 17, 13, 15, 13, 16]",14,shifteddirectgaze.png,j,1,1,results12,001,2026-04-14_10h49.12.977,mogelijke versie adaptive staircase builder,,2026.1.3,59.97864760148051,2026-04-14 10h49.13.259960 +0200,
4.5,ecc10pos,left,29,0,29,f,1,7.267175900000439,None,0,0,0,0,29,0,29,0,974.7768481999997,,,,,,,,,,,,,,,974.7728566000001,974.7768481999997,974.7768481999997,974.7768481999997,975.6941161,982.0443073000001,f,1,7.267175900000439,None,right,15,"[18, 19, 18, 19, 14, 16, 15, 17, 16, 17, 13, 15, 13, 16]",14,shiftedgaze_R_15.png,f,1,1,results12,001,2026-04-14_10h49.12.977,mogelijke versie adaptive staircase builder,,2026.1.3,59.97864760148051,2026-04-14 10h49.13.259960 +0200,
4.5,ecc10pos,left,30,0,30,f,1,12.180915800000548,None,0,0,0,0,30,0,30,0,982.1275548999997,,,,,,,,,,,,,,,982.1235915000002,982.1275548999997,982.1275548999997,982.1275548999997,983.0446349999997,994.3114738999998,f,1,12.180915800000548,None,left,14,"[18, 19, 18, 19, 14, 16, 15, 17, 16, 17, 13, 15, 13, 16]",14,shiftedgaze_L_14.png,f,1,1,results12,001,2026-04-14_10h49.12.977,mogelijke versie adaptive staircase builder,,2026.1.3,59.97864760148051,2026-04-14 10h49.13.259960 +0200,
4.5,ecc10pos,left,31,0,31,j,1,1.7179099000004499,None,0,0,0,0,31,0,31,0,994.3981258999997,,,,,,,,,,,,,,,994.3939458999998,994.3981258999997,994.3981258999997,994.3981258999997,995.3111983000003,996.1275652999998,j,1,1.7179099000004499,None,direct,13,"[18, 19, 18, 19, 14, 16, 15, 17, 16, 17, 13, 15, 13, 16]",14,shifteddirectgaze.png,j,1,1,results12,001,2026-04-14_10h49.12.977,mogelijke versie adaptive staircase builder,,2026.1.3,59.97864760148051,2026-04-14 10h49.13.259960 +0200,
4.5,ecc10pos,left,32,0,32,j,1,3.360280299999431,None,0,0,0,0,32,0,32,0,996.2118685,,,,,,,,,,,,,,,996.2078765000001,996.2118685,996.2118685,996.2118685,997.1271998999996,999.5776106999997,j,1,3.360280299999431,None,direct,12,"[18, 19, 18, 19, 14, 16, 15, 17, 16, 17, 13, 15, 13, 16]",14,shifteddirectgaze.png,j,1,1,results12,001,2026-04-14_10h49.12.977,mogelijke versie adaptive staircase builder,,2026.1.3,59.97864760148051,2026-04-14 10h49.13.259960 +0200,
4.5,ecc10pos,left,33,0,33,f,1,5.970391400000153,None,0,0,0,0,33,0,33,0,1000.0576602999995,,,,,,,,,,,,,,,1000.0485033,1000.0576602999995,1000.0576602999995,1000.0576602999995,1000.5777446999996,1006.0445837000002,f,1,5.970391400000153,None,left,11,"[18, 19, 18, 19, 14, 16, 15, 17, 16, 17, 13, 15, 13, 16]",14,shiftedgaze_L_11.png,f,1,1,results12,001,2026-04-14_10h49.12.977,mogelijke versie adaptive staircase builder,,2026.1.3,59.97864760148051,2026-04-14 10h49.13.259960 +0200,
4.5,ecc10pos,left,34,0,34,j,0,1.9515478000002986,None,0,0,0,0,34,0,34,0,1006.2926849999999,,,,,,,,,,,,,,,1006.2823852999995,1006.2926849999999,1006.2926849999999,1006.2926849999999,1007.0441901999998,1008.2610524999996,j,0,1.9515478000002986,None,left,10,"[18, 19, 18, 19, 14, 16, 15, 17, 16, 17, 13, 15, 13, 16, 10]",15,shiftedgaze_L_10.png,j,0,1,results12,001,2026-04-14_10h49.12.977,mogelijke versie adaptive staircase builder,,2026.1.3,59.97864760148051,2026-04-14 10h49.13.259960 +0200,
4.5,ecc10pos,left,35,0,35,f,0,5.647346499999912,None,0,0,0,0,35,0,35,0,1008.3489206999998,,,,,,,,,,,,,,,1008.3450549000004,1008.3489206999998,1008.3489206999998,1008.3489206999998,1009.2606629999996,1014.0114544000003,f,0,5.647346499999912,None,direct,11,"[18, 19, 18, 19, 14, 16, 15, 17, 16, 17, 13, 15, 13, 16, 10]",15,shifteddirectgaze.png,f,0,1,results12,001,2026-04-14_10h49.12.977,mogelijke versie adaptive staircase builder,,2026.1.3,59.97864760148051,2026-04-14 10h49.13.259960 +0200,
4.5,ecc10pos,left,36,0,36,j,0,4.244718300000386,None,0,0,0,0,36,0,36,0,1014.1037023000004,,,,,,,,,,,,,,,1014.0990989999996,1014.1037023000004,1014.1037023000004,1014.1037023000004,1015.0111665999998,1018.3614962999995,j,0,4.244718300000386,None,right,12,"[18, 19, 18, 19, 14, 16, 15, 17, 16, 17, 13, 15, 13, 16, 10]",15,shiftedgaze_R_12.png,j,0,1,results12,001,2026-04-14_10h49.12.977,mogelijke versie adaptive staircase builder,,2026.1.3,59.97864760148051,2026-04-14 10h49.13.259960 +0200,
4.5,ecc10pos,left,37,0,37,f,1,9.008788899999672,None,0,0,0,0,37,0,37,0,1018.4514407000001,,,,,,,,,,,,,,,1018.4473540000004,1018.4514407000001,1018.4514407000001,1018.4514407000001,1019.3610504000003,1027.460775,f,1,9.008788899999672,None,left,13,"[18, 19, 18, 19, 14, 16, 15, 17, 16, 17, 13, 15, 13, 16, 10, 13]",16,shiftedgaze_L_13.png,f,1,1,results12,001,2026-04-14_10h49.12.977,mogelijke versie adaptive staircase builder,,2026.1.3,59.97864760148051,2026-04-14 10h49.13.259960 +0200,
4.5,ecc10pos,left,38,0,38,f,1,2.284580999999889,None,0,0,0,0,38,0,38,0,1027.5434186999996,,,,,,,,,,,,,,,1027.5395566000002,1027.5434186999996,1027.5434186999996,1027.5434186999996,1028.4607336000004,1029.8442185999997,f,1,2.284580999999889,None,left,12,"[18, 19, 18, 19, 14, 16, 15, 17, 16, 17, 13, 15, 13, 16, 10, 13]",16,shiftedgaze_L_12.png,f,1,1,results12,001,2026-04-14_10h49.12.977,mogelijke versie adaptive staircase builder,,2026.1.3,59.97864760148051,2026-04-14 10h49.13.259960 +0200,
4.5,ecc10pos,left,39,0,39,j,0,3.425004399999125,None,0,0,0,0,39,0,39,0,1029.9390601999999,,,,,,,,,,,,,,,1029.9298156999998,1029.9390601999999,1029.9390601999999,1029.9390601999999,1030.8439528000004,1033.3774679000003,j,0,3.425004399999125,None,left,11,"[18, 19, 18, 19, 14, 16, 15, 17, 16, 17, 13, 15, 13, 16, 10, 13, 11]",17,shiftedgaze_L_11.png,j,0,1,results12,001,2026-04-14_10h49.12.977,mogelijke versie adaptive staircase builder,,2026.1.3,59.97864760148051,2026-04-14 10h49.13.259960 +0200,
4.5,ecc10pos,left,40,0,40,j,0,3.250515699999596,None,0,0,0,0,40,0,40,0,1033.4739345000003,,,,,,,,,,,,,,,1033.4642740000004,1033.4739345000003,1033.4739345000003,1033.4739345000003,1034.3778125000003,1036.7280813000002,j,0,3.250515699999596,None,right,12,"[18, 19, 18, 19, 14, 16, 15, 17, 16, 17, 13, 15, 13, 16, 10, 13, 11]",17,shiftedgaze_R_12.png,j,0,1,results12,001,2026-04-14_10h49.12.977,mogelijke versie adaptive staircase builder,,2026.1.3,59.97864760148051,2026-04-14 10h49.13.259960 +0200,
4.5,ecc10pos,left,41,0,41,j,0,8.054839399999764,None,0,0,0,0,41,0,41,0,1036.813283,,,,,,,,,,,,,,,1036.8087281000003,1036.813283,1036.813283,1036.813283,1037.7278122000002,1044.8774594000001,j,0,8.054839399999764,None,right,13,"[18, 19, 18, 19, 14, 16, 15, 17, 16, 17, 13, 15, 13, 16, 10, 13, 11]",17,shiftedgaze_R_13.png,j,0,1,results12,001,2026-04-14_10h49.12.977,mogelijke versie adaptive staircase builder,,2026.1.3,59.97864760148051,2026-04-14 10h49.13.259960 +0200,
4.5,ecc10pos,left,42,0,42,f,1,3.457629100000304,None,0,0,0,0,42,0,42,0,1044.9622864999997,,,,,,,,,,,,,,,1044.9583172999996,1044.9622864999997,1044.9622864999997,1044.9622864999997,1045.8773651999995,1048.4274056,f,1,3.457629100000304,None,left,14,"[18, 19, 18, 19, 14, 16, 15, 17, 16, 17, 13, 15, 13, 16, 10, 13, 11, 14]",18,shiftedgaze_L_14.png,f,1,1,results12,001,2026-04-14_10h49.12.977,mogelijke versie adaptive staircase builder,,2026.1.3,59.97864760148051,2026-04-14 10h49.13.259960 +0200,
4.5,ecc10pos,left,43,0,43,f,1,3.6201216999997996,None,0,0,0,0,43,0,43,0,1048.5119227999999,,,,,,,,,,,,,,,1048.5078781999996,1048.5119227999999,1048.5119227999999,1048.5119227999999,1049.4274252999999,1052.1442564000004,f,1,3.6201216999997996,None,left,13,"[18, 19, 18, 19, 14, 16, 15, 17, 16, 17, 13, 15, 13, 16, 10, 13, 11, 14]",18,shiftedgaze_L_13.png,f,1,1,results12,001,2026-04-14_10h49.12.977,mogelijke versie adaptive staircase builder,,2026.1.3,59.97864760148051,2026-04-14 10h49.13.259960 +0200,
4.5,ecc10pos,left,44,0,44,j,0,4.85557179999978,None,0,0,0,0,44,0,44,0,1052.2284469,,,,,,,,,,,,,,,1052.2243790999996,1052.2284469,1052.2284469,1052.2284469,1053.1443726000002,1057.0943789999997,j,0,4.85557179999978,None,right,12,"[18, 19, 18, 19, 14, 16, 15, 17, 16, 17, 13, 15, 13, 16, 10, 13, 11, 14, 12]",19,shiftedgaze_R_12.png,j,0,1,results12,001,2026-04-14_10h49.12.977,mogelijke versie adaptive staircase builder,,2026.1.3,59.97864760148051,2026-04-14 10h49.13.259960 +0200,
4.5,ecc10pos,left,45,0,45,f,1,6.929926700000578,None,0,0,0,0,45,0,45,0,1057.1784979999998,,,,,,,,,,,,,,,1057.1742185999997,1057.1784979999998,1057.1784979999998,1057.1784979999998,1058.0946336000002,1064.1113646,f,1,6.929926700000578,None,right,13,"[18, 19, 18, 19, 14, 16, 15, 17, 16, 17, 13, 15, 13, 16, 10, 13, 11, 14, 12, 13]",20,shiftedgaze_R_13.png,f,1,1,results12,001,2026-04-14_10h49.12.977,mogelijke versie adaptive staircase builder,,2026.1.3,59.97864760148051,2026-04-14 10h49.13.259960 +0200,
4.5,ecc10pos,left,46,0,46,j,0,1.6244231000000582,None,0,0,0,0,46,0,46,0,1064.1956255999999,,,,,,,,,,,,,,,1064.191617,1064.1956255999999,1064.1956255999999,1064.1956255999999,1065.1110353999998,1065.8275398,j,0,1.6244231000000582,None,right,12,"[18, 19, 18, 19, 14, 16, 15, 17, 16, 17, 13, 15, 13, 16, 10, 13, 11, 14, 12, 13, 12]",21,shiftedgaze_R_12.png,j,0,1,results12,001,2026-04-14_10h49.12.977,mogelijke versie adaptive staircase builder,,2026.1.3,59.97864760148051,2026-04-14 10h49.13.259960 +0200,
4.5,ecc10pos,left,47,0,47,f,1,7.267955100000108,None,0,0,0,0,47,0,47,0,1065.9120179999995,,,,,,,,,,,,,,,1065.9080336000002,1065.9120179999995,1065.9120179999995,1065.9120179999995,1066.8275138000004,1073.1944673000003,f,1,7.267955100000108,None,left,13,"[18, 19, 18, 19, 14, 16, 15, 17, 16, 17, 13, 15, 13, 16, 10, 13, 11, 14, 12, 13, 12, 13]",22,shiftedgaze_L_13.png,f,1,1,results12,001,2026-04-14_10h49.12.977,mogelijke versie adaptive staircase builder,,2026.1.3,59.97864760148051,2026-04-14 10h49.13.259960 +0200,
4.5,ecc10pos,left,48,0,48,f,0,2.229858400000012,None,0,0,0,0,48,0,48,0,1073.2785428000002,,,,,,,,,,,,,,,1073.274398,1073.2785428000002,1073.2785428000002,1073.2785428000002,1074.1942402,1075.5116002,f,0,2.229858400000012,None,direct,12,"[18, 19, 18, 19, 14, 16, 15, 17, 16, 17, 13, 15, 13, 16, 10, 13, 11, 14, 12, 13, 12, 13, 12]",23,shifteddirectgaze.png,f,0,1,results12,001,2026-04-14_10h49.12.977,mogelijke versie adaptive staircase builder,,2026.1.3,59.97864760148051,2026-04-14 10h49.13.259960 +0200,
4.5,ecc10pos,left,49,0,49,f,1,2.0238853999999264,None,0,0,0,0,49,0,49,0,1075.5962256999996,,,,,,,,,,,,,,,1075.5921789,1075.5962256999996,1075.5962256999996,1075.5962256999996,1076.5277050999998,1077.6276728999997,f,1,2.0238853999999264,None,left,13,"[18, 19, 18, 19, 14, 16, 15, 17, 16, 17, 13, 15, 13, 16, 10, 13, 11, 14, 12, 13, 12, 13, 12, 13]",24,shiftedgaze_L_13.png,f,1,1,results12,001,2026-04-14_10h49.12.977,mogelijke versie adaptive staircase builder,,2026.1.3,59.97864760148051,2026-04-14 10h49.13.259960 +0200,
4.5,ecc10pos,left,50,0,50,j,1,1.4843766999993022,None,0,0,0,0,50,0,50,0,1077.7116408999996,,,,,,,,,,,,,,,1077.7076267999996,1077.7116408999996,1077.7116408999996,1077.7116408999996,1078.6274184999997,1079.2110254000004,j,1,1.4843766999993022,None,direct,12,"[18, 19, 18, 19, 14, 16, 15, 17, 16, 17, 13, 15, 13, 16, 10, 13, 11, 14, 12, 13, 12, 13, 12, 13]",24,shifteddirectgaze.png,j,1,1,results12,001,2026-04-14_10h49.12.977,mogelijke versie adaptive staircase builder,,2026.1.3,59.97864760148051,2026-04-14 10h49.13.259960 +0200,
4.5,ecc10pos,left,51,0,51,j,1,1.779337499999201,None,0,0,0,0,51,0,51,0,1079.2965472,,,,,,,,,,,,,,,1079.2924716000002,1079.2965472,1079.2965472,1079.2965472,1080.2107634999998,1081.0774225,j,1,1.779337499999201,None,direct,11,"[18, 19, 18, 19, 14, 16, 15, 17, 16, 17, 13, 15, 13, 16, 10, 13, 11, 14, 12, 13, 12, 13, 12, 13]",24,shifteddirectgaze.png,j,1,1,results12,001,2026-04-14_10h49.12.977,mogelijke versie adaptive staircase builder,,2026.1.3,59.97864760148051,2026-04-14 10h49.13.259960 +0200,
4.5,ecc10pos,left,52,0,52,j,0,1.8589075999998386,None,0,0,0,0,52,0,52,0,1081.1613352,,,,,,,,,,,,,,,1081.1571975000002,1081.1613352,1081.1613352,1081.1613352,1082.0779958999997,1083.0283083,j,0,1.8589075999998386,None,left,10,"[18, 19, 18, 19, 14, 16, 15, 17, 16, 17, 13, 15, 13, 16, 10, 13, 11, 14, 12, 13, 12, 13, 12, 13, 10]",25,shiftedgaze_L_10.png,j,0,1,results12,001,2026-04-14_10h49.12.977,mogelijke versie adaptive staircase builder,,2026.1.3,59.97864760148051,2026-04-14 10h49.13.259960 +0200,
4.5,ecc10pos,left,53,0,53,j,1,3.7726672000007966,None,0,0,0,0,53,0,53,0,1083.1114166000002,,,,,,,,,,,,,,,1083.1071782000004,1083.1114166000002,1083.1114166000002,1083.1114166000002,1084.0277659999997,1086.8942554999999,j,1,3.7726672000007966,None,direct,11,"[18, 19, 18, 19, 14, 16, 15, 17, 16, 17, 13, 15, 13, 16, 10, 13, 11, 14, 12, 13, 12, 13, 12, 13, 10, 11]",26,shifteddirectgaze.png,j,1,1,results12,001,2026-04-14_10h49.12.977,mogelijke versie adaptive staircase builder,,2026.1.3,59.97864760148051,2026-04-14 10h49.13.259960 +0200,
4.5,ecc10pos,left,54,0,54,j,1,2.154176100000768,None,0,0,0,0,54,0,54,0,1086.9778781999999,,,,,,,,,,,,,,,1086.9739476,1086.9778781999999,1086.9778781999999,1086.9778781999999,1087.8941281000002,1089.1442951000004,j,1,2.154176100000768,None,direct,10,"[18, 19, 18, 19, 14, 16, 15, 17, 16, 17, 13, 15, 13, 16, 10, 13, 11, 14, 12, 13, 12, 13, 12, 13, 10, 11]",26,shifteddirectgaze.png,j,1,1,results12,001,2026-04-14_10h49.12.977,mogelijke versie adaptive staircase builder,,2026.1.3,59.97864760148051,2026-04-14 10h49.13.259960 +0200,
4.5,ecc10pos,left,55,0,55,f,1,2.750480400000015,None,0,0,0,0,55,0,55,0,1089.5895174000002,,,,,,,,,,,,,,,1089.5853955999996,1089.5895174000002,1089.5895174000002,1089.5895174000002,1090.1443962999997,1092.3442839000004,f,1,2.750480400000015,None,left,9,"[18, 19, 18, 19, 14, 16, 15, 17, 16, 17, 13, 15, 13, 16, 10, 13, 11, 14, 12, 13, 12, 13, 12, 13, 10, 11]",26,shiftedgaze_L_9.png,f,1,1,results12,001,2026-04-14_10h49.12.977,mogelijke versie adaptive staircase builder,,2026.1.3,59.97864760148051,2026-04-14 10h49.13.259960 +0200,
4.5,ecc10pos,left,56,0,56,j,1,4.560721100000592,None,0,0,0,0,56,0,56,0,1092.4272927999996,,,,,,,,,,,,,,,1092.4231248,1092.4272927999996,1092.4272927999996,1092.4272927999996,1093.3445876,1096.9942761999996,j,1,4.560721100000592,None,direct,8,"[18, 19, 18, 19, 14, 16, 15, 17, 16, 17, 13, 15, 13, 16, 10, 13, 11, 14, 12, 13, 12, 13, 12, 13, 10, 11]",26,shifteddirectgaze.png,j,1,1,results12,001,2026-04-14_10h49.12.977,mogelijke versie adaptive staircase builder,,2026.1.3,59.97864760148051,2026-04-14 10h49.13.259960 +0200,
4.5,ecc10pos,left,57,0,57,j,1,2.6545389000002615,None,0,0,0,0,57,0,57,0,1097.0775624000003,,,,,,,,,,,,,,,1097.0736040999996,1097.0775624000003,1097.0775624000003,1097.0775624000003,1097.9946868000002,1099.7442299,j,1,2.6545389000002615,None,direct,7,"[18, 19, 18, 19, 14, 16, 15, 17, 16, 17, 13, 15, 13, 16, 10, 13, 11, 14, 12, 13, 12, 13, 12, 13, 10, 11]",26,shifteddirectgaze.png,j,1,1,results12,001,2026-04-14_10h49.12.977,mogelijke versie adaptive staircase builder,,2026.1.3,59.97864760148051,2026-04-14 10h49.13.259960 +0200,
4.5,ecc10pos,left,58,0,58,f,1,2.444609799999853,None,0,0,0,0,58,0,58,0,1100.1918111,,,,,,,,,,,,,,,1100.1875483,1100.1918111,1100.1918111,1100.1918111,1100.7444601000002,1102.6449467999996,f,1,2.444609799999853,None,right,6,"[18, 19, 18, 19, 14, 16, 15, 17, 16, 17, 13, 15, 13, 16, 10, 13, 11, 14, 12, 13, 12, 13, 12, 13, 10, 11]",26,shiftedgaze_R_6.png,f,1,1,results12,001,2026-04-14_10h49.12.977,mogelijke versie adaptive staircase builder,,2026.1.3,59.97864760148051,2026-04-14 10h49.13.259960 +0200,
4.5,ecc10pos,left,59,0,59,j,0,4.580812799999876,None,0,0,0,0,59,0,59,0,1102.7993126999995,,,,,,,,,,,,,,,1102.7954873000003,1102.7993126999995,1102.7993126999995,1102.7993126999995,1103.6445536999995,1107.3941053000003,j,0,4.580812799999876,None,right,5,"[18, 19, 18, 19, 14, 16, 15, 17, 16, 17, 13, 15, 13, 16, 10, 13, 11, 14, 12, 13, 12, 13, 12, 13, 10, 11, 5]",27,shiftedgaze_R_5.png,j,0,1,results12,001,2026-04-14_10h49.12.977,mogelijke versie adaptive staircase builder,,2026.1.3,59.97864760148051,2026-04-14 10h49.13.259960 +0200,
4.5,ecc10pos,left,0,0,0,,,,,0,0,0,0,,,,,,,,,,,,,,,,,,,,,,,,,,,,,,,,,,,,,,results12,001,2026-04-14_10h49.12.977,mogelijke versie adaptive staircase builder,,2026.1.3,59.97864760148051,2026-04-14 10h49.13.259960 +0200,
12.5,ecc0,mid,0,0,0,j,1,3.3164377000002787,None,0,1,1,1,0,0,0,0,1107.4796865000003,,,,,,,,,,,,,1107.3964723000004,1107.3965013000002,1107.4756261999996,1107.4796865000003,1108.4107446000003,1107.4796865000003,1107.4796865000003,1110.8108654000002,j,1,3.3164377000002787,None,direct,20,[],0,direct_gaze.png,j,1,2,results12,001,2026-04-14_10h49.12.977,mogelijke versie adaptive staircase builder,,2026.1.3,59.97864760148051,2026-04-14 10h49.13.259960 +0200,
12.5,ecc0,mid,1,0,1,f,1,2.1263905999994677,None,0,1,1,1,1,0,1,0,1110.8937373000003,,,,,,,,,,,,,,,1110.8899017999997,1110.8937373000003,1111.8106884000003,1110.8937373000003,1110.8937373000003,1113.0275149000004,f,1,2.1263905999994677,None,left,19,[],0,gaze_L_19.png,f,1,2,results12,001,2026-04-14_10h49.12.977,mogelijke versie adaptive staircase builder,,2026.1.3,59.97864760148051,2026-04-14 10h49.13.259960 +0200,
12.5,ecc0,mid,2,0,2,f,1,2.9576824000005217,None,0,1,1,1,2,0,2,0,1113.1104701,,,,,,,,,,,,,,,1113.1064964000002,1113.1104701,1114.0276159,1113.1104701,1113.1104701,1116.0775056999996,f,1,2.9576824000005217,None,left,18,[],0,gaze_L_18.png,f,1,2,results12,001,2026-04-14_10h49.12.977,mogelijke versie adaptive staircase builder,,2026.1.3,59.97864760148051,2026-04-14 10h49.13.259960 +0200,
12.5,ecc0,mid,3,0,3,f,1,2.6276488000003155,None,0,1,1,1,3,0,3,0,1116.1608012000002,,,,,,,,,,,,,,,1116.1568005000004,1116.1608012000002,1117.0773537999999,1116.1608012000002,1116.1608012000002,1118.7947827000003,f,1,2.6276488000003155,None,right,17,[],0,gaze_R_17.png,f,1,2,results12,001,2026-04-14_10h49.12.977,mogelijke versie adaptive staircase builder,,2026.1.3,59.97864760148051,2026-04-14 10h49.13.259960 +0200,
12.5,ecc0,mid,4,0,4,f,1,2.390090599999894,None,0,1,1,1,4,0,4,0,1118.8780414999997,,,,,,,,,,,,,,,1118.8740313000003,1118.8780414999997,1119.7940556999997,1118.8780414999997,1118.8780414999997,1121.2775243,f,1,2.390090599999894,None,right,16,[],0,gaze_R_16.png,f,1,2,results12,001,2026-04-14_10h49.12.977,mogelijke versie adaptive staircase builder,,2026.1.3,59.97864760148051,2026-04-14 10h49.13.259960 +0200,
12.5,ecc0,mid,5,0,5,j,1,5.731960600000093,None,0,1,1,1,5,0,5,0,1121.3602421,,,,,,,,,,,,,,,1121.3562244999998,1121.3602421,1122.2778655999996,1121.3602421,1121.3602421,1127.0942311000003,j,1,5.731960600000093,None,direct,15,[],0,direct_gaze.png,j,1,2,results12,001,2026-04-14_10h49.12.977,mogelijke versie adaptive staircase builder,,2026.1.3,59.97864760148051,2026-04-14 10h49.13.259960 +0200,
12.5,ecc0,mid,6,0,6,j,1,3.9939978000002156,None,0,1,1,1,6,0,6,0,1127.1781211000002,,,,,,,,,,,,,,,1127.1739851999996,1127.1781211000002,1128.094063,1127.1781211000002,1127.1781211000002,1131.1775148000002,j,1,3.9939978000002156,None,direct,14,[],0,direct_gaze.png,j,1,2,results12,001,2026-04-14_10h49.12.977,mogelijke versie adaptive staircase builder,,2026.1.3,59.97864760148051,2026-04-14 10h49.13.259960 +0200,
12.5,ecc0,mid,7,0,7,j,0,5.071699799999806,None,0,1,1,1,7,0,7,0,1131.2608376000003,,,,,,,,,,,,,,,1131.2566413999998,1131.2608376000003,1132.1773815000001,1131.2608376000003,1131.2608376000003,1136.3447642999995,j,0,5.071699799999806,None,right,13,[13],1,gaze_R_13.png,j,0,2,results12,001,2026-04-14_10h49.12.977,mogelijke versie adaptive staircase builder,,2026.1.3,59.97864760148051,2026-04-14 10h49.13.259960 +0200,
12.5,ecc0,mid,8,0,8,j,0,2.9183844999997746,None,0,1,1,1,8,0,8,0,1136.4297438999997,,,,,,,,,,,,,,,1136.4257993999995,1136.4297438999997,1137.3445219,1136.4297438999997,1136.4297438999997,1139.3608523999997,j,0,2.9183844999997746,None,left,14,[13],1,gaze_L_14.png,j,0,2,results12,001,2026-04-14_10h49.12.977,mogelijke versie adaptive staircase builder,,2026.1.3,59.97864760148051,2026-04-14 10h49.13.259960 +0200,
12.5,ecc0,mid,9,0,9,j,1,2.67119509999975,None,0,1,1,1,9,0,9,0,1139.4449576000002,,,,,,,,,,,,,,,1139.4409816000002,1139.4449576000002,1140.3610021999998,1139.4449576000002,1139.4449576000002,1142.1281344000004,j,1,2.67119509999975,None,direct,15,"[13, 15]",2,direct_gaze.png,j,1,2,results12,001,2026-04-14_10h49.12.977,mogelijke versie adaptive staircase builder,,2026.1.3,59.97864760148051,2026-04-14 10h49.13.259960 +0200,
12.5,ecc0,mid,10,0,10,f,1,4.152866000000358,None,0,1,1,1,10,0,10,0,1142.2112475999998,,,,,,,,,,,,,,,1142.2071858000004,1142.2112475999998,1143.1443107,1142.2112475999998,1142.2112475999998,1146.3774369999996,f,1,4.152866000000358,None,left,14,"[13, 15]",2,gaze_L_14.png,f,1,2,results12,001,2026-04-14_10h49.12.977,mogelijke versie adaptive staircase builder,,2026.1.3,59.97864760148051,2026-04-14 10h49.13.259960 +0200,
12.5,ecc0,mid,11,0,11,f,0,1.9982516000000032,None,0,1,1,1,11,0,11,0,1146.4620183000002,,,,,,,,,,,,,,,1146.4577668999996,1146.4620183000002,1147.3773815999998,1146.4620183000002,1146.4620183000002,1148.4608095999997,f,0,1.9982516000000032,None,direct,13,"[13, 15, 13]",3,direct_gaze.png,f,0,2,results12,001,2026-04-14_10h49.12.977,mogelijke versie adaptive staircase builder,,2026.1.3,59.97864760148051,2026-04-14 10h49.13.259960 +0200,
12.5,ecc0,mid,12,0,12,f,1,2.942849300000489,None,0,1,1,1,12,0,12,0,1148.5493785000003,,,,,,,,,,,,,,,1148.5449658000002,1148.5493785000003,1149.4608760999995,1148.5493785000003,1148.5493785000003,1151.4945343000004,f,1,2.942849300000489,None,left,14,"[13, 15, 13, 14]",4,gaze_L_14.png,f,1,2,results12,001,2026-04-14_10h49.12.977,mogelijke versie adaptive staircase builder,,2026.1.3,59.97864760148051,2026-04-14 10h49.13.259960 +0200,
12.5,ecc0,mid,13,0,13,f,0,3.0011036000005333,None,0,1,1,1,13,0,13,0,1151.5790519999996,,,,,,,,,,,,,,,1151.5750396999997,1151.5790519999996,1152.4943939999998,1151.5790519999996,1151.5790519999996,1154.5941697000003,f,0,3.0011036000005333,None,direct,13,"[13, 15, 13, 14, 13]",5,direct_gaze.png,f,0,2,results12,001,2026-04-14_10h49.12.977,mogelijke versie adaptive staircase builder,,2026.1.3,59.97864760148051,2026-04-14 10h49.13.259960 +0200,
12.5,ecc0,mid,14,0,14,j,0,1.4946340000005875,None,0,1,1,1,14,0,14,0,1154.6774487999996,,,,,,,,,,,,,,,1154.673362,1154.6774487999996,1155.5940517000004,1154.6774487999996,1154.6774487999996,1156.1775062000002,j,0,1.4946340000005875,None,left,14,"[13, 15, 13, 14, 13]",5,gaze_L_14.png,j,0,2,results12,001,2026-04-14_10h49.12.977,mogelijke versie adaptive staircase builder,,2026.1.3,59.97864760148051,2026-04-14 10h49.13.259960 +0200,
12.5,ecc0,mid,15,0,15,j,0,2.2154310999994777,None,0,1,1,1,15,0,15,0,1156.2611952000002,,,,,,,,,,,,,,,1156.2571641,1156.2611952000002,1157.1778352999995,1156.2611952000002,1156.2611952000002,1158.4783493999998,j,0,2.2154310999994777,None,left,15,"[13, 15, 13, 14, 13]",5,gaze_L_15.png,j,0,2,results12,001,2026-04-14_10h49.12.977,mogelijke versie adaptive staircase builder,,2026.1.3,59.97864760148051,2026-04-14 10h49.13.259960 +0200,
12.5,ecc0,mid,16,0,16,j,0,3.0508559999998397,None,0,1,1,1,16,0,16,0,1158.5613802000003,,,,,,,,,,,,,,,1158.5573634999996,1158.5613802000003,1159.4776519000002,1158.5613802000003,1158.5613802000003,1161.6281106000001,j,0,3.0508559999998397,None,right,16,"[13, 15, 13, 14, 13]",5,gaze_R_16.png,j,0,2,results12,001,2026-04-14_10h49.12.977,mogelijke versie adaptive staircase builder,,2026.1.3,59.97864760148051,2026-04-14 10h49.13.259960 +0200,
12.5,ecc0,mid,17,0,17,f,1,2.476834700000836,None,0,1,1,1,17,0,17,0,1161.7112921000003,,,,,,,,,,,,,,,1161.7073606,1161.7112921000003,1162.6278114000002,1161.7112921000003,1161.7112921000003,1164.1941516000002,f,1,2.476834700000836,None,right,17,"[13, 15, 13, 14, 13, 17]",6,gaze_R_17.png,f,1,2,results12,001,2026-04-14_10h49.12.977,mogelijke versie adaptive staircase builder,,2026.1.3,59.97864760148051,2026-04-14 10h49.13.259960 +0200,
12.5,ecc0,mid,18,0,18,j,1,3.9181878999997934,None,0,1,1,1,18,0,18,0,1164.2778833999996,,,,,,,,,,,,,,,1164.2738827999997,1164.2778833999996,1165.1939752000003,1164.2778833999996,1164.2778833999996,1168.2109784999998,j,1,3.9181878999997934,None,direct,16,"[13, 15, 13, 14, 13, 17]",6,direct_gaze.png,j,1,2,results12,001,2026-04-14_10h49.12.977,mogelijke versie adaptive staircase builder,,2026.1.3,59.97864760148051,2026-04-14 10h49.13.259960 +0200,
12.5,ecc0,mid,19,0,19,f,1,3.325717600000644,None,0,1,1,1,19,0,19,0,1168.2945929000002,,,,,,,,,,,,,,,1168.2906077000002,1168.2945929000002,1169.2107585999997,1168.2945929000002,1168.2945929000002,1171.6281936,f,1,3.325717600000644,None,right,15,"[13, 15, 13, 14, 13, 17]",6,gaze_R_15.png,f,1,2,results12,001,2026-04-14_10h49.12.977,mogelijke versie adaptive staircase builder,,2026.1.3,59.97864760148051,2026-04-14 10h49.13.259960 +0200,
12.5,ecc0,mid,20,0,20,f,1,1.772686000000249,None,0,1,1,1,20,0,20,0,1171.7113570999995,,,,,,,,,,,,,,,1171.7072885000002,1171.7113570999995,1172.6274354000002,1171.7113570999995,1171.7113570999995,1173.4942880000003,f,1,1.772686000000249,None,right,14,"[13, 15, 13, 14, 13, 17]",6,gaze_R_14.png,f,1,2,results12,001,2026-04-14_10h49.12.977,mogelijke versie adaptive staircase builder,,2026.1.3,59.97864760148051,2026-04-14 10h49.13.259960 +0200,
12.5,ecc0,mid,21,0,21,f,1,6.294473199999629,None,0,1,1,1,21,0,21,0,1173.5816707,,,,,,,,,,,,,,,1173.5773551999996,1173.5816707,1174.4946087000003,1173.5816707,1173.5816707,1179.8787045000004,f,1,6.294473199999629,None,left,13,"[13, 15, 13, 14, 13, 17]",6,gaze_L_13.png,f,1,2,results12,001,2026-04-14_10h49.12.977,mogelijke versie adaptive staircase builder,,2026.1.3,59.97864760148051,2026-04-14 10h49.13.259960 +0200,
12.5,ecc0,mid,22,0,22,f,1,2.6175860000003013,None,0,1,1,1,22,0,22,0,1179.9628010000001,,,,,,,,,,,,,,,1179.9587281999998,1179.9628010000001,1180.8945848999997,1179.9628010000001,1179.9628010000001,1182.5945717999998,f,1,2.6175860000003013,None,right,12,"[13, 15, 13, 14, 13, 17]",6,gaze_R_12.png,f,1,2,results12,001,2026-04-14_10h49.12.977,mogelijke versie adaptive staircase builder,,2026.1.3,59.97864760148051,2026-04-14 10h49.13.259960 +0200,
12.5,ecc0,mid,23,0,23,f,1,1.737668499999927,None,0,1,1,1,23,0,23,0,1183.0663950000003,,,,,,,,,,,,,,,1183.0622652999996,1183.0663950000003,1183.5941195999999,1183.0663950000003,1183.0663950000003,1184.8109748000002,f,1,1.737668499999927,None,right,11,"[13, 15, 13, 14, 13, 17]",6,gaze_R_11.png,f,1,2,results12,001,2026-04-14_10h49.12.977,mogelijke versie adaptive staircase builder,,2026.1.3,59.97864760148051,2026-04-14 10h49.13.259960 +0200,
12.5,ecc0,mid,24,0,24,j,0,1.8612011000004713,None,0,1,1,1,24,0,24,0,1184.8948827999998,,,,,,,,,,,,,,,1184.8909047000002,1184.8948827999998,1185.8107775000003,1184.8948827999998,1184.8948827999998,1186.7611984,j,0,1.8612011000004713,None,right,10,"[13, 15, 13, 14, 13, 17, 10]",7,gaze_R_10.png,j,0,2,results12,001,2026-04-14_10h49.12.977,mogelijke versie adaptive staircase builder,,2026.1.3,59.97864760148051,2026-04-14 10h49.13.259960 +0200,
12.5,ecc0,mid,25,0,25,j,0,1.6954462000003332,None,0,1,1,1,25,0,25,0,1186.8526248000003,,,,,,,,,,,,,,,1186.8484851999997,1186.8526248000003,1187.7609158999999,1186.8526248000003,1186.8526248000003,1188.5609331,j,0,1.6954462000003332,None,left,11,"[13, 15, 13, 14, 13, 17, 10]",7,gaze_L_11.png,j,0,2,results12,001,2026-04-14_10h49.12.977,mogelijke versie adaptive staircase builder,,2026.1.3,59.97864760148051,2026-04-14 10h49.13.259960 +0200,
12.5,ecc0,mid,26,0,26,j,0,1.951091799999631,None,0,1,1,1,26,0,26,0,1188.6448063000003,,,,,,,,,,,,,,,1188.6408125000003,1188.6448063000003,1189.5607864999997,1188.6448063000003,1188.6448063000003,1190.6109319000002,j,0,1.951091799999631,None,right,12,"[13, 15, 13, 14, 13, 17, 10]",7,gaze_R_12.png,j,0,2,results12,001,2026-04-14_10h49.12.977,mogelijke versie adaptive staircase builder,,2026.1.3,59.97864760148051,2026-04-14 10h49.13.259960 +0200,
12.5,ecc0,mid,27,0,27,j,0,3.4534175000007963,None,0,1,1,1,27,0,27,0,1190.6945659999997,,,,,,,,,,,,,,,1190.6903244,1190.6945659999997,1191.6108061999998,1190.6945659999997,1190.6945659999997,1194.1610865999996,j,0,3.4534175000007963,None,left,13,"[13, 15, 13, 14, 13, 17, 10]",7,gaze_L_13.png,j,0,2,results12,001,2026-04-14_10h49.12.977,mogelijke versie adaptive staircase builder,,2026.1.3,59.97864760148051,2026-04-14 10h49.13.259960 +0200,
12.5,ecc0,mid,28,0,28,f,1,5.758565600000111,None,0,1,1,1,28,0,28,0,1194.2453687000002,,,,,,,,,,,,,,,1194.2411626999997,1194.2453687000002,1195.1607708999995,1194.2453687000002,1194.2453687000002,1200.010992,f,1,5.758565600000111,None,left,14,"[13, 15, 13, 14, 13, 17, 10, 14]",8,gaze_L_14.png,f,1,2,results12,001,2026-04-14_10h49.12.977,mogelijke versie adaptive staircase builder,,2026.1.3,59.97864760148051,2026-04-14 10h49.13.259960 +0200,
12.5,ecc0,mid,29,0,29,f,1,5.908107600000221,None,0,1,1,1,29,0,29,0,1200.0960056999998,,,,,,,,,,,,,,,1200.0919891999997,1200.0960056999998,1201.0108231,1200.0960056999998,1200.0960056999998,1206.011578,f,1,5.908107600000221,None,left,13,"[13, 15, 13, 14, 13, 17, 10, 14]",8,gaze_L_13.png,f,1,2,results12,001,2026-04-14_10h49.12.977,mogelijke versie adaptive staircase builder,,2026.1.3,59.97864760148051,2026-04-14 10h49.13.259960 +0200,
12.5,ecc0,mid,30,0,30,j,0,8.452632999999878,None,0,1,1,1,30,0,30,0,1206.1033681000004,,,,,,,,,,,,,,,1206.0994084999998,1206.1033681000004,1207.0274312999995,1206.1033681000004,1206.1033681000004,1214.5609292000004,j,0,8.452632999999878,None,left,12,"[13, 15, 13, 14, 13, 17, 10, 14, 12]",9,gaze_L_12.png,j,0,2,results12,001,2026-04-14_10h49.12.977,mogelijke versie adaptive staircase builder,,2026.1.3,59.97864760148051,2026-04-14 10h49.13.259960 +0200,
12.5,ecc0,mid,31,0,31,f,1,2.4556660999996893,None,0,1,1,1,31,0,31,0,1214.6447025000002,,,,,,,,,,,,,,,1214.6406206999995,1214.6447025000002,1215.5606598999998,1214.6447025000002,1214.6447025000002,1217.1116313999996,f,1,2.4556660999996893,None,left,13,"[13, 15, 13, 14, 13, 17, 10, 14, 12, 13]",10,gaze_L_13.png,f,1,2,results12,001,2026-04-14_10h49.12.977,mogelijke versie adaptive staircase builder,,2026.1.3,59.97864760148051,2026-04-14 10h49.13.259960 +0200,
12.5,ecc0,mid,32,0,32,j,1,2.1054088999999294,None,0,1,1,1,32,0,32,0,1217.1946689000001,,,,,,,,,,,,,,,1217.1907623000002,1217.1946689000001,1218.1272932999996,1217.1946689000001,1217.1946689000001,1219.3115466000004,j,1,2.1054088999999294,None,direct,12,"[13, 15, 13, 14, 13, 17, 10, 14, 12, 13]",10,direct_gaze.png,j,1,2,results12,001,2026-04-14_10h49.12.977,mogelijke versie adaptive staircase builder,,2026.1.3,59.97864760148051,2026-04-14 10h49.13.259960 +0200,
12.5,ecc0,mid,33,0,33,j,0,2.2081138000003193,None,0,1,1,1,33,0,33,0,1219.3959436,,,,,,,,,,,,,,,1219.3913342,1219.3959436,1220.3114205999996,1219.3959436,1219.3959436,1221.6109728999995,j,0,2.2081138000003193,None,left,11,"[13, 15, 13, 14, 13, 17, 10, 14, 12, 13, 11]",11,gaze_L_11.png,j,0,2,results12,001,2026-04-14_10h49.12.977,mogelijke versie adaptive staircase builder,,2026.1.3,59.97864760148051,2026-04-14 10h49.13.259960 +0200,
12.5,ecc0,mid,34,0,34,f,1,1.9010342000001401,None,0,1,1,1,34,0,34,0,1221.6950444999998,,,,,,,,,,,,,,,1221.6912311,1221.6950444999998,1222.6107355,1221.6950444999998,1221.6950444999998,1223.6109069,f,1,1.9010342000001401,None,right,12,"[13, 15, 13, 14, 13, 17, 10, 14, 12, 13, 11, 12]",12,gaze_R_12.png,f,1,2,results12,001,2026-04-14_10h49.12.977,mogelijke versie adaptive staircase builder,,2026.1.3,59.97864760148051,2026-04-14 10h49.13.259960 +0200,
12.5,ecc0,mid,35,0,35,f,0,1.9173479999999472,None,0,1,1,1,35,0,35,0,1223.6948125000004,,,,,,,,,,,,,,,1223.6908676999997,1223.6948125000004,1224.6107341000002,1223.6948125000004,1223.6948125000004,1225.6274925000002,f,0,1.9173479999999472,None,direct,11,"[13, 15, 13, 14, 13, 17, 10, 14, 12, 13, 11, 12, 11]",13,direct_gaze.png,f,0,2,results12,001,2026-04-14_10h49.12.977,mogelijke versie adaptive staircase builder,,2026.1.3,59.97864760148051,2026-04-14 10h49.13.259960 +0200,
12.5,ecc0,mid,36,0,36,f,1,2.4692549000001236,None,0,1,1,1,36,0,36,0,1225.7107131999996,,,,,,,,,,,,,,,1225.7068367999996,1225.7107131999996,1226.6278594999999,1225.7107131999996,1225.7107131999996,1228.1941209000001,f,1,2.4692549000001236,None,left,12,"[13, 15, 13, 14, 13, 17, 10, 14, 12, 13, 11, 12, 11, 12]",14,gaze_L_12.png,f,1,2,results12,001,2026-04-14_10h49.12.977,mogelijke versie adaptive staircase builder,,2026.1.3,59.97864760148051,2026-04-14 10h49.13.259960 +0200,
12.5,ecc0,mid,37,0,37,f,0,1.775044699999853,None,0,1,1,1,37,0,37,0,1228.2772479,,,,,,,,,,,,,,,1228.2734188999998,1228.2772479,1229.1944403000002,1228.2772479,1228.2772479,1230.0615372999996,f,0,1.775044699999853,None,direct,11,"[13, 15, 13, 14, 13, 17, 10, 14, 12, 13, 11, 12, 11, 12, 11]",15,direct_gaze.png,f,0,2,results12,001,2026-04-14_10h49.12.977,mogelijke versie adaptive staircase builder,,2026.1.3,59.97864760148051,2026-04-14 10h49.13.259960 +0200,
12.5,ecc0,mid,38,0,38,f,0,2.787052099999528,None,0,1,1,1,38,0,38,0,1230.1455068,,,,,,,,,,,,,,,1230.1415988000003,1230.1455068,1231.0610682000001,1230.1455068,1230.1455068,1232.9448273000003,f,0,2.787052099999528,None,direct,12,"[13, 15, 13, 14, 13, 17, 10, 14, 12, 13, 11, 12, 11, 12, 11]",15,direct_gaze.png,f,0,2,results12,001,2026-04-14_10h49.12.977,mogelijke versie adaptive staircase builder,,2026.1.3,59.97864760148051,2026-04-14 10h49.13.259960 +0200,
12.5,ecc0,mid,39,0,39,j,1,4.703197699999691,None,0,1,1,1,39,0,39,0,1233.0293515999997,,,,,,,,,,,,,,,1233.0252366999998,1233.0293515999997,1233.9606853,1233.0293515999997,1233.0293515999997,1237.7448287000002,j,1,4.703197699999691,None,direct,13,"[13, 15, 13, 14, 13, 17, 10, 14, 12, 13, 11, 12, 11, 12, 11, 13]",16,direct_gaze.png,j,1,2,results12,001,2026-04-14_10h49.12.977,mogelijke versie adaptive staircase builder,,2026.1.3,59.97864760148051,2026-04-14 10h49.13.259960 +0200,
12.5,ecc0,mid,40,0,40,f,0,15.919535600000017,None,0,1,1,1,40,0,40,0,1237.8287798999995,,,,,,,,,,,,,,,1237.8248639999997,1237.8287798999995,1238.7444861999998,1237.8287798999995,1237.8287798999995,1253.7614943000003,f,0,15.919535600000017,None,direct,12,"[13, 15, 13, 14, 13, 17, 10, 14, 12, 13, 11, 12, 11, 12, 11, 13, 12]",17,direct_gaze.png,f,0,2,results12,001,2026-04-14_10h49.12.977,mogelijke versie adaptive staircase builder,,2026.1.3,59.97864760148051,2026-04-14 10h49.13.259960 +0200,
12.5,ecc0,mid,41,0,41,j,0,2.7261766999999963,None,0,1,1,1,41,0,41,0,1253.8463650999997,,,,,,,,,,,,,,,1253.8423545,1253.8463650999997,1254.7609453,1253.8463650999997,1253.8463650999997,1256.5781073000003,j,0,2.7261766999999963,None,right,13,"[13, 15, 13, 14, 13, 17, 10, 14, 12, 13, 11, 12, 11, 12, 11, 13, 12]",17,gaze_R_13.png,j,0,2,results12,001,2026-04-14_10h49.12.977,mogelijke versie adaptive staircase builder,,2026.1.3,59.97864760148051,2026-04-14 10h49.13.259960 +0200,
12.5,ecc0,mid,42,0,42,j,0,2.1666957999996157,None,0,1,1,1,42,0,42,0,1256.6612559,,,,,,,,,,,,,,,1256.6569803999996,1256.6612559,1257.5774770000003,1256.6612559,1256.6612559,1258.8443532999995,j,0,2.1666957999996157,None,right,14,"[13, 15, 13, 14, 13, 17, 10, 14, 12, 13, 11, 12, 11, 12, 11, 13, 12]",17,gaze_R_14.png,j,0,2,results12,001,2026-04-14_10h49.12.977,mogelijke versie adaptive staircase builder,,2026.1.3,59.97864760148051,2026-04-14 10h49.13.259960 +0200,
12.5,ecc0,mid,43,0,43,j,0,3.4494157999997697,None,0,1,1,1,43,0,43,0,1258.9310705000003,,,,,,,,,,,,,,,1258.9269417,1258.9310705000003,1259.8444673,1258.9310705000003,1258.9310705000003,1262.3948512000002,j,0,3.4494157999997697,None,right,15,"[13, 15, 13, 14, 13, 17, 10, 14, 12, 13, 11, 12, 11, 12, 11, 13, 12]",17,gaze_R_15.png,j,0,2,results12,001,2026-04-14_10h49.12.977,mogelijke versie adaptive staircase builder,,2026.1.3,59.97864760148051,2026-04-14 10h49.13.259960 +0200,
12.5,ecc0,mid,44,0,44,j,0,1.9725564000000304,None,0,1,1,1,44,0,44,0,1262.4797444,,,,,,,,,,,,,,,1262.4753742999997,1262.4797444,1263.4107640999996,1262.4797444,1262.4797444,1264.4614596999995,j,0,1.9725564000000304,None,left,16,"[13, 15, 13, 14, 13, 17, 10, 14, 12, 13, 11, 12, 11, 12, 11, 13, 12]",17,gaze_L_16.png,j,0,2,results12,001,2026-04-14_10h49.12.977,mogelijke versie adaptive staircase builder,,2026.1.3,59.97864760148051,2026-04-14 10h49.13.259960 +0200,
12.5,ecc0,mid,45,0,45,j,0,1.475083000000268,None,0,1,1,1,45,0,45,0,1264.5454071999998,,,,,,,,,,,,,,,1264.5413609000002,1264.5454071999998,1265.4607186999997,1264.5454071999998,1264.5454071999998,1266.0281147,j,0,1.475083000000268,None,right,17,"[13, 15, 13, 14, 13, 17, 10, 14, 12, 13, 11, 12, 11, 12, 11, 13, 12]",17,gaze_R_17.png,j,0,2,results12,001,2026-04-14_10h49.12.977,mogelijke versie adaptive staircase builder,,2026.1.3,59.97864760148051,2026-04-14 10h49.13.259960 +0200,
12.5,ecc0,mid,46,0,46,j,0,1.8683547999999064,None,0,1,1,1,46,0,46,0,1266.1121257999998,,,,,,,,,,,,,,,1266.1081577999998,1266.1121257999998,1267.0439319000002,1266.1121257999998,1266.1121257999998,1267.9948035000002,j,0,1.8683547999999064,None,left,18,"[13, 15, 13, 14, 13, 17, 10, 14, 12, 13, 11, 12, 11, 12, 11, 13, 12]",17,gaze_L_18.png,j,0,2,results12,001,2026-04-14_10h49.12.977,mogelijke versie adaptive staircase builder,,2026.1.3,59.97864760148051,2026-04-14 10h49.13.259960 +0200,
12.5,ecc0,mid,47,0,47,j,0,1.6293838999999934,None,0,1,1,1,47,0,47,0,1268.0787691,,,,,,,,,,,,,,,1268.0745722999995,1268.0787691,1268.9944758999995,1268.0787691,1268.0787691,1269.7108641,j,0,1.6293838999999934,None,left,19,"[13, 15, 13, 14, 13, 17, 10, 14, 12, 13, 11, 12, 11, 12, 11, 13, 12]",17,gaze_L_19.png,j,0,2,results12,001,2026-04-14_10h49.12.977,mogelijke versie adaptive staircase builder,,2026.1.3,59.97864760148051,2026-04-14 10h49.13.259960 +0200,
12.5,ecc0,mid,48,0,48,f,1,1.7693624000003183,None,0,1,1,1,48,0,48,0,1269.8031551,,,,,,,,,,,,,,,1269.799179,1269.8031551,1270.7106984999996,1269.8031551,1269.8031551,1271.5781248999997,f,1,1.7693624000003183,None,right,20,"[13, 15, 13, 14, 13, 17, 10, 14, 12, 13, 11, 12, 11, 12, 11, 13, 12, 20]",18,gaze_R_20.png,f,1,2,results12,001,2026-04-14_10h49.12.977,mogelijke versie adaptive staircase builder,,2026.1.3,59.97864760148051,2026-04-14 10h49.13.259960 +0200,
12.5,ecc0,mid,49,0,49,f,1,1.3424600000007558,None,0,1,1,1,49,0,49,0,1271.661651,,,,,,,,,,,,,,,1271.6576213000003,1271.661651,1272.5778088000002,1271.661651,1271.661651,1273.0109458000002,f,1,1.3424600000007558,None,right,19,"[13, 15, 13, 14, 13, 17, 10, 14, 12, 13, 11, 12, 11, 12, 11, 13, 12, 20]",18,gaze_R_19.png,f,1,2,results12,001,2026-04-14_10h49.12.977,mogelijke versie adaptive staircase builder,,2026.1.3,59.97864760148051,2026-04-14 10h49.13.259960 +0200,
12.5,ecc0,mid,50,0,50,f,1,3.189035800000056,None,0,1,1,1,50,0,50,0,1273.0952816000004,,,,,,,,,,,,,,,1273.0912129000003,1273.0952816000004,1274.0107863999997,1273.0952816000004,1273.0952816000004,1276.2948014999997,f,1,3.189035800000056,None,left,18,"[13, 15, 13, 14, 13, 17, 10, 14, 12, 13, 11, 12, 11, 12, 11, 13, 12, 20]",18,gaze_L_18.png,f,1,2,results12,001,2026-04-14_10h49.12.977,mogelijke versie adaptive staircase builder,,2026.1.3,59.97864760148051,2026-04-14 10h49.13.259960 +0200,
12.5,ecc0,mid,51,0,51,j,0,2.585729999999785,None,0,1,1,1,51,0,51,0,1276.3787656999998,,,,,,,,,,,,,,,1276.3747023,1276.3787656999998,1277.3107894999998,1276.3787656999998,1276.3787656999998,1278.9781196,j,0,2.585729999999785,None,left,17,"[13, 15, 13, 14, 13, 17, 10, 14, 12, 13, 11, 12, 11, 12, 11, 13, 12, 20, 17]",19,gaze_L_17.png,j,0,2,results12,001,2026-04-14_10h49.12.977,mogelijke versie adaptive staircase builder,,2026.1.3,59.97864760148051,2026-04-14 10h49.13.259960 +0200,
12.5,ecc0,mid,52,0,52,f,1,2.094700399999965,None,0,1,1,1,52,0,52,0,1279.0617981,,,,,,,,,,,,,,,1279.0578140000002,1279.0617981,1279.9777632,1279.0617981,1279.0617981,1281.1614623,f,1,2.094700399999965,None,right,18,"[13, 15, 13, 14, 13, 17, 10, 14, 12, 13, 11, 12, 11, 12, 11, 13, 12, 20, 17, 18]",20,gaze_R_18.png,f,1,2,results12,001,2026-04-14_10h49.12.977,mogelijke versie adaptive staircase builder,,2026.1.3,59.97864760148051,2026-04-14 10h49.13.259960 +0200,
12.5,ecc0,mid,53,0,53,j,0,4.038972000000285,None,0,1,1,1,53,0,53,0,1281.2451059,,,,,,,,,,,,,,,1281.2410076,1281.2451059,1282.1778255000004,1281.2451059,1281.2451059,1285.2942226,j,0,4.038972000000285,None,right,17,"[13, 15, 13, 14, 13, 17, 10, 14, 12, 13, 11, 12, 11, 12, 11, 13, 12, 20, 17, 18, 17]",21,gaze_R_17.png,j,0,2,results12,001,2026-04-14_10h49.12.977,mogelijke versie adaptive staircase builder,,2026.1.3,59.97864760148051,2026-04-14 10h49.13.259960 +0200,
12.5,ecc0,mid,54,0,54,f,1,5.538545999999769,None,0,1,1,1,54,0,54,0,1285.3776890000004,,,,,,,,,,,,,,,1285.3735179999999,1285.3776890000004,1286.2946029,1285.3776890000004,1285.3776890000004,1290.9283487999996,f,1,5.538545999999769,None,left,18,"[13, 15, 13, 14, 13, 17, 10, 14, 12, 13, 11, 12, 11, 12, 11, 13, 12, 20, 17, 18, 17, 18]",22,gaze_L_18.png,f,1,2,results12,001,2026-04-14_10h49.12.977,mogelijke versie adaptive staircase builder,,2026.1.3,59.97864760148051,2026-04-14 10h49.13.259960 +0200,
12.5,ecc0,mid,55,0,55,j,0,2.3770809999996345,None,0,1,1,1,55,0,55,0,1291.0109254000004,,,,,,,,,,,,,,,1291.0069568000004,1291.0109254000004,1291.9440344999998,1291.0109254000004,1291.0109254000004,1293.3944825000003,j,0,2.3770809999996345,None,right,17,"[13, 15, 13, 14, 13, 17, 10, 14, 12, 13, 11, 12, 11, 12, 11, 13, 12, 20, 17, 18, 17, 18, 17]",23,gaze_R_17.png,j,0,2,results12,001,2026-04-14_10h49.12.977,mogelijke versie adaptive staircase builder,,2026.1.3,59.97864760148051,2026-04-14 10h49.13.259960 +0200,
12.5,ecc0,mid,56,0,56,f,1,2.0761867000001075,None,0,1,1,1,56,0,56,0,1293.4797679999997,,,,,,,,,,,,,,,1293.4759388999996,1293.4797679999997,1294.3941417,1293.4797679999997,1293.4797679999997,1295.5609305000003,f,1,2.0761867000001075,None,left,18,"[13, 15, 13, 14, 13, 17, 10, 14, 12, 13, 11, 12, 11, 12, 11, 13, 12, 20, 17, 18, 17, 18, 17, 18]",24,gaze_L_18.png,f,1,2,results12,001,2026-04-14_10h49.12.977,mogelijke versie adaptive staircase builder,,2026.1.3,59.97864760148051,2026-04-14 10h49.13.259960 +0200,
12.5,ecc0,mid,57,0,57,f,1,2.151141099999222,None,0,1,1,1,57,0,57,0,1295.644952,,,,,,,,,,,,,,,1295.6409024,1295.644952,1296.5606900999996,1295.644952,1295.644952,1297.8116116999995,f,1,2.151141099999222,None,left,17,"[13, 15, 13, 14, 13, 17, 10, 14, 12, 13, 11, 12, 11, 12, 11, 13, 12, 20, 17, 18, 17, 18, 17, 18]",24,gaze_L_17.png,f,1,2,results12,001,2026-04-14_10h49.12.977,mogelijke versie adaptive staircase builder,,2026.1.3,59.97864760148051,2026-04-14 10h49.13.259960 +0200,
12.5,ecc0,mid,58,0,58,f,1,1.893378799999482,None,0,1,1,1,58,0,58,0,1297.8946997999997,,,,,,,,,,,,,,,1297.8906807999997,1297.8946997999997,1298.8274168000003,1297.8946997999997,1297.8946997999997,1299.7942828,f,1,1.893378799999482,None,left,16,"[13, 15, 13, 14, 13, 17, 10, 14, 12, 13, 11, 12, 11, 12, 11, 13, 12, 20, 17, 18, 17, 18, 17, 18]",24,gaze_L_16.png,f,1,2,results12,001,2026-04-14_10h49.12.977,mogelijke versie adaptive staircase builder,,2026.1.3,59.97864760148051,2026-04-14 10h49.13.259960 +0200,
12.5,ecc0,mid,59,0,59,f,1,3.0463856000005762,None,0,1,1,1,59,0,59,0,1299.8777169999998,,,,,,,,,,,,,,,1299.8736869999998,1299.8777169999998,1300.7941195999997,1299.8777169999998,1299.8777169999998,1302.9277152,f,1,3.0463856000005762,None,right,15,"[13, 15, 13, 14, 13, 17, 10, 14, 12, 13, 11, 12, 11, 12, 11, 13, 12, 20, 17, 18, 17, 18, 17, 18]",24,gaze_R_15.png,f,1,2,results12,001,2026-04-14_10h49.12.977,mogelijke versie adaptive staircase builder,,2026.1.3,59.97864760148051,2026-04-14 10h49.13.259960 +0200,
12.5,ecc0,mid,1,1,0,,,,,0,1,1,1,,,,,,,,,,,,,,,,,,,,,,,,,,,,,,,,,,,,,,results12,001,2026-04-14_10h49.12.977,mogelijke versie adaptive staircase builder,,2026.1.3,59.97864760148051,2026-04-14 10h49.13.259960 +0200,
20.5,ecc10neg,right,0,0,0,f,0,2.3340244999999413,None,0,2,2,2,0,0,0,0,1303.0144330999997,,,,,,,,,,,,,1302.9301162999996,1302.9301481999996,1303.0103704999997,1303.0144330999997,1303.0144330999997,1303.9444878999998,1303.0144330999997,1305.3615249999998,f,0,2.3340244999999413,None,direct,20,[],0,shifteddirectgaze.png,f,0,3,results12,001,2026-04-14_10h49.12.977,mogelijke versie adaptive staircase builder,,2026.1.3,59.97864760148051,2026-04-14 10h49.13.259960 +0200,
20.5,ecc10neg,right,1,0,1,f,1,2.1536769000003915,None,0,2,2,2,1,0,1,0,1305.4663355999996,,,,,,,,,,,,,,,1305.4555845999998,1305.4663355999996,1305.4663355999996,1306.3774249000003,1305.4663355999996,1307.6276506999998,f,1,2.1536769000003915,None,right,20,[20],1,shiftedgaze_R_20.png,f,1,3,results12,001,2026-04-14_10h49.12.977,mogelijke versie adaptive staircase builder,,2026.1.3,59.97864760148051,2026-04-14 10h49.13.259960 +0200,
20.5,ecc10neg,right,2,0,2,j,0,1.9238410999996631,None,0,2,2,2,2,0,2,0,1307.7282074999998,,,,,,,,,,,,,,,1307.7186058000002,1307.7282074999998,1307.7282074999998,1308.6274945999999,1307.7282074999998,1309.6609495999996,j,0,1.9238410999996631,None,left,19,"[20, 19]",2,shiftedgaze_L_19.png,j,0,3,results12,001,2026-04-14_10h49.12.977,mogelijke versie adaptive staircase builder,,2026.1.3,59.97864760148051,2026-04-14 10h49.13.259960 +0200,
20.5,ecc10neg,right,3,0,3,j,0,1.7319250000000466,None,0,2,2,2,3,0,3,0,1309.7440800999998,,,,,,,,,,,,,,,1309.7397506000002,1309.7440800999998,1309.7440800999998,1310.6607781999996,1309.7440800999998,1311.4776832000002,j,0,1.7319250000000466,None,left,20,"[20, 19]",2,shiftedgaze_L_20.png,j,0,3,results12,001,2026-04-14_10h49.12.977,mogelijke versie adaptive staircase builder,,2026.1.3,59.97864760148051,2026-04-14 10h49.13.259960 +0200,
20.5,ecc10neg,right,4,0,4,j,0,2.2525121000007857,None,0,2,2,2,4,0,4,0,1311.5595113000004,,,,,,,,,,,,,,,1311.5554815,1311.5595113000004,1311.5595113000004,1312.4779915000004,1311.5595113000004,1313.8276627,j,0,2.2525121000007857,None,left,20,"[20, 19]",2,shiftedgaze_L_20.png,j,0,3,results12,001,2026-04-14_10h49.12.977,mogelijke versie adaptive staircase builder,,2026.1.3,59.97864760148051,2026-04-14 10h49.13.259960 +0200,
20.5,ecc10neg,right,5,0,5,j,0,2.701767500000642,None,0,2,2,2,5,0,5,0,1313.9101963999997,,,,,,,,,,,,,,,1313.9061660000002,1313.9101963999997,1313.9101963999997,1314.8275314999996,1313.9101963999997,1316.6275819999996,j,0,2.701767500000642,None,left,20,"[20, 19]",2,shiftedgaze_L_20.png,j,0,3,results12,001,2026-04-14_10h49.12.977,mogelijke versie adaptive staircase builder,,2026.1.3,59.97864760148051,2026-04-14 10h49.13.259960 +0200,
20.5,ecc10neg,right,6,0,6,j,0,2.5098223999993934,None,0,2,2,2,6,0,6,0,1316.7101574000003,,,,,,,,,,,,,,,1316.7062269000003,1316.7101574000003,1316.7101574000003,1317.6273888,1316.7101574000003,1319.2278156999996,j,0,2.5098223999993934,None,left,20,"[20, 19]",2,shiftedgaze_L_20.png,j,0,3,results12,001,2026-04-14_10h49.12.977,mogelijke versie adaptive staircase builder,,2026.1.3,59.97864760148051,2026-04-14 10h49.13.259960 +0200,
20.5,ecc10neg,right,7,0,7,f,1,3.5321947000002183,None,0,2,2,2,7,0,7,0,1319.3118092,,,,,,,,,,,,,,,1319.3077546,1319.3118092,1319.3118092,1320.2273763999997,1319.3118092,1322.8442981000003,f,1,3.5321947000002183,None,left,20,"[20, 19, 20]",3,shiftedgaze_L_20.png,f,1,3,results12,001,2026-04-14_10h49.12.977,mogelijke versie adaptive staircase builder,,2026.1.3,59.97864760148051,2026-04-14 10h49.13.259960 +0200,
20.5,ecc10neg,right,8,0,8,j,1,1.6044041000004654,None,0,2,2,2,8,0,8,0,1322.9276623,,,,,,,,,,,,,,,1322.9236802,1322.9276623,1322.9276623,1323.8440550999999,1322.9276623,1324.5442771000003,j,1,1.6044041000004654,None,direct,19,"[20, 19, 20]",3,shifteddirectgaze.png,j,1,3,results12,001,2026-04-14_10h49.12.977,mogelijke versie adaptive staircase builder,,2026.1.3,59.97864760148051,2026-04-14 10h49.13.259960 +0200,
20.5,ecc10neg,right,9,0,9,f,1,1.517479099999946,None,0,2,2,2,9,0,9,0,1325.0785920000003,,,,,,,,,,,,,,,1325.0688588999997,1325.0785920000003,1325.0785920000003,1325.5442259999995,1325.0785920000003,1326.6110857999997,f,1,1.517479099999946,None,right,18,"[20, 19, 20]",3,shiftedgaze_R_18.png,f,1,3,results12,001,2026-04-14_10h49.12.977,mogelijke versie adaptive staircase builder,,2026.1.3,59.97864760148051,2026-04-14 10h49.13.259960 +0200,
20.5,ecc10neg,right,10,0,10,f,1,4.497406800000135,None,0,2,2,2,10,0,10,0,1326.6986738,,,,,,,,,,,,,,,1326.6946396999997,1326.6986738,1326.6986738,1327.6107799999995,1326.6986738,1331.2109520999998,f,1,4.497406800000135,None,right,17,"[20, 19, 20]",3,shiftedgaze_R_17.png,f,1,3,results12,001,2026-04-14_10h49.12.977,mogelijke versie adaptive staircase builder,,2026.1.3,59.97864760148051,2026-04-14 10h49.13.259960 +0200,
20.5,ecc10neg,right,11,0,11,j,1,1.559087699999509,None,0,2,2,2,11,0,11,0,1331.3010757999996,,,,,,,,,,,,,,,1331.2912671999998,1331.3010757999996,1331.3010757999996,1332.2107406999999,1331.3010757999996,1332.8607306,j,1,1.559087699999509,None,direct,16,"[20, 19, 20]",3,shifteddirectgaze.png,j,1,3,results12,001,2026-04-14_10h49.12.977,mogelijke versie adaptive staircase builder,,2026.1.3,59.97864760148051,2026-04-14 10h49.13.259960 +0200,
20.5,ecc10neg,right,12,0,12,j,1,1.6519791000000623,None,0,2,2,2,12,0,12,0,1332.9439876000001,,,,,,,,,,,,,,,1332.9398450000003,1332.9439876000001,1332.9439876000001,1333.8607171999997,1332.9439876000001,1334.6108790000003,j,1,1.6519791000000623,None,direct,15,"[20, 19, 20]",3,shifteddirectgaze.png,j,1,3,results12,001,2026-04-14_10h49.12.977,mogelijke versie adaptive staircase builder,,2026.1.3,59.97864760148051,2026-04-14 10h49.13.259960 +0200,
20.5,ecc10neg,right,13,0,13,j,1,1.6371627999997145,None,0,2,2,2,13,0,13,0,1334.6948400999995,,,,,,,,,,,,,,,1334.6908476000003,1334.6948400999995,1334.6948400999995,1335.6107533999998,1334.6948400999995,1336.3443020999998,j,1,1.6371627999997145,None,direct,14,"[20, 19, 20]",3,shifteddirectgaze.png,j,1,3,results12,001,2026-04-14_10h49.12.977,mogelijke versie adaptive staircase builder,,2026.1.3,59.97864760148051,2026-04-14 10h49.13.259960 +0200,
20.5,ecc10neg,right,14,0,14,f,1,1.9529570000004242,None,0,2,2,2,14,0,14,0,1336.4274872,,,,,,,,,,,,,,,1336.4235795,1336.4274872,1336.4274872,1337.3441037999996,1336.4274872,1338.3946953999998,f,1,1.9529570000004242,None,right,13,"[20, 19, 20]",3,shiftedgaze_R_13.png,f,1,3,results12,001,2026-04-14_10h49.12.977,mogelijke versie adaptive staircase builder,,2026.1.3,59.97864760148051,2026-04-14 10h49.13.259960 +0200,
20.5,ecc10neg,right,15,0,15,f,1,5.422119800000473,None,0,2,2,2,15,0,15,0,1338.4779766999995,,,,,,,,,,,,,,,1338.4740029999998,1338.4779766999995,1338.4779766999995,1339.3940836999996,1338.4779766999995,1343.9107920000001,f,1,5.422119800000473,None,left,12,"[20, 19, 20]",3,shiftedgaze_L_12.png,f,1,3,results12,001,2026-04-14_10h49.12.977,mogelijke versie adaptive staircase builder,,2026.1.3,59.97864760148051,2026-04-14 10h49.13.259960 +0200,
20.5,ecc10neg,right,16,0,16,f,0,5.914578999999321,None,0,2,2,2,16,0,16,0,1343.9935504999999,,,,,,,,,,,,,,,1343.9895934,1343.9935504999999,1343.9935504999999,1344.9112713999998,1343.9935504999999,1349.9114188999997,f,0,5.914578999999321,None,direct,11,"[20, 19, 20, 11]",4,shifteddirectgaze.png,f,0,3,results12,001,2026-04-14_10h49.12.977,mogelijke versie adaptive staircase builder,,2026.1.3,59.97864760148051,2026-04-14 10h49.13.259960 +0200,
20.5,ecc10neg,right,17,0,17,f,1,2.000266700000793,None,0,2,2,2,17,0,17,0,1350.0118664999995,,,,,,,,,,,,,,,1350.0023869000001,1350.0118664999995,1350.0118664999995,1350.9108917999997,1350.0118664999995,1352.0280975,f,1,2.000266700000793,None,right,12,"[20, 19, 20, 11, 12]",5,shiftedgaze_R_12.png,f,1,3,results12,001,2026-04-14_10h49.12.977,mogelijke versie adaptive staircase builder,,2026.1.3,59.97864760148051,2026-04-14 10h49.13.259960 +0200,
20.5,ecc10neg,right,18,0,18,f,1,1.9009225999998307,None,0,2,2,2,18,0,18,0,1352.4795861999996,,,,,,,,,,,,,,,1352.4693730000004,1352.4795861999996,1352.4795861999996,1353.0278249999997,1352.4795861999996,1354.3948804999995,f,1,1.9009225999998307,None,left,11,"[20, 19, 20, 11, 12]",5,shiftedgaze_L_11.png,f,1,3,results12,001,2026-04-14_10h49.12.977,mogelijke versie adaptive staircase builder,,2026.1.3,59.97864760148051,2026-04-14 10h49.13.259960 +0200,
20.5,ecc10neg,right,19,0,19,f,1,2.06154080000033,None,0,2,2,2,19,0,19,0,1354.4870202999996,,,,,,,,,,,,,,,1354.4824256999996,1354.4870202999996,1354.4870202999996,1355.3944715000002,1354.4870202999996,1356.5615174999998,f,1,2.06154080000033,None,right,10,"[20, 19, 20, 11, 12]",5,shiftedgaze_R_10.png,f,1,3,results12,001,2026-04-14_10h49.12.977,mogelijke versie adaptive staircase builder,,2026.1.3,59.97864760148051,2026-04-14 10h49.13.259960 +0200,
20.5,ecc10neg,right,20,0,20,f,1,2.605266199999278,None,0,2,2,2,20,0,20,0,1356.7508597,,,,,,,,,,,,,,,1356.7458998999996,1356.7508597,1356.7508597,1357.5778456000003,1356.7508597,1359.3608536999996,f,1,2.605266199999278,None,right,9,"[20, 19, 20, 11, 12]",5,shiftedgaze_R_9.png,f,1,3,results12,001,2026-04-14_10h49.12.977,mogelijke versie adaptive staircase builder,,2026.1.3,59.97864760148051,2026-04-14 10h49.13.259960 +0200,
20.5,ecc10neg,right,21,0,21,f,1,3.0877745999996478,None,0,2,2,2,21,0,21,0,1359.5563728000002,,,,,,,,,,,,,,,1359.5520841000002,1359.5563728000002,1359.5563728000002,1360.3611878999995,1359.5563728000002,1362.6443158999996,f,1,3.0877745999996478,None,right,8,"[20, 19, 20, 11, 12]",5,shiftedgaze_R_8.png,f,1,3,results12,001,2026-04-14_10h49.12.977,mogelijke versie adaptive staircase builder,,2026.1.3,59.97864760148051,2026-04-14 10h49.13.259960 +0200,
20.5,ecc10neg,right,22,0,22,f,1,2.1440002999997887,None,0,2,2,2,22,0,22,0,1362.8364558999997,,,,,,,,,,,,,,,1362.8322924999998,1362.8364558999997,1362.8364558999997,1363.6444471,1362.8364558999997,1364.9946292,f,1,2.1440002999997887,None,left,7,"[20, 19, 20, 11, 12]",5,shiftedgaze_L_7.png,f,1,3,results12,001,2026-04-14_10h49.12.977,mogelijke versie adaptive staircase builder,,2026.1.3,59.97864760148051,2026-04-14 10h49.13.259960 +0200,
20.5,ecc10neg,right,23,0,23,j,0,1.6686077000003934,None,0,2,2,2,23,0,23,0,1365.2233576000003,,,,,,,,,,,,,,,1365.2190507999999,1365.2233576000003,1365.2233576000003,1366.0106975000003,1365.2233576000003,1366.8944974,j,0,1.6686077000003934,None,left,6,"[20, 19, 20, 11, 12, 6]",6,shiftedgaze_L_6.png,j,0,3,results12,001,2026-04-14_10h49.12.977,mogelijke versie adaptive staircase builder,,2026.1.3,59.97864760148051,2026-04-14 10h49.13.259960 +0200,
20.5,ecc10neg,right,24,0,24,j,0,1.6536065999998755,None,0,2,2,2,24,0,24,0,1367.0786000000003,,,,,,,,,,,,,,,1367.0743102000001,1367.0786000000003,1367.0786000000003,1367.8941582000002,1367.0786000000003,1368.7443608999997,j,0,1.6536065999998755,None,right,7,"[20, 19, 20, 11, 12, 6]",6,shiftedgaze_R_7.png,j,0,3,results12,001,2026-04-14_10h49.12.977,mogelijke versie adaptive staircase builder,,2026.1.3,59.97864760148051,2026-04-14 10h49.13.259960 +0200,
20.5,ecc10neg,right,25,0,25,j,0,1.5556645999995453,None,0,2,2,2,25,0,25,0,1368.8324534999997,,,,,,,,,,,,,,,1368.8281842000001,1368.8324534999997,1368.8324534999997,1369.7441655999996,1368.8324534999997,1370.3944096,j,0,1.5556645999995453,None,right,8,"[20, 19, 20, 11, 12, 6]",6,shiftedgaze_R_8.png,j,0,3,results12,001,2026-04-14_10h49.12.977,mogelijke versie adaptive staircase builder,,2026.1.3,59.97864760148051,2026-04-14 10h49.13.259960 +0200,
20.5,ecc10neg,right,26,0,26,j,0,1.7937966999998025,None,0,2,2,2,26,0,26,0,1370.4826725999997,,,,,,,,,,,,,,,1370.4782392000002,1370.4826725999997,1370.4826725999997,1371.3942204999998,1370.4826725999997,1372.2777005000003,j,0,1.7937966999998025,None,right,9,"[20, 19, 20, 11, 12, 6]",6,shiftedgaze_R_9.png,j,0,3,results12,001,2026-04-14_10h49.12.977,mogelijke versie adaptive staircase builder,,2026.1.3,59.97864760148051,2026-04-14 10h49.13.259960 +0200,
20.5,ecc10neg,right,27,0,27,f,0,1.6549031000004106,None,0,2,2,2,27,0,27,0,1372.3653210999996,,,,,,,,,,,,,,,1372.3610574,1372.3653210999996,1372.3653210999996,1373.2774530000002,1372.3653210999996,1374.0276645999998,f,0,1.6549031000004106,None,direct,10,"[20, 19, 20, 11, 12, 6]",6,shifteddirectgaze.png,f,0,3,results12,001,2026-04-14_10h49.12.977,mogelijke versie adaptive staircase builder,,2026.1.3,59.97864760148051,2026-04-14 10h49.13.259960 +0200,
20.5,ecc10neg,right,28,0,28,f,1,3.839557400000558,None,0,2,2,2,28,0,28,0,1374.1165611000001,,,,,,,,,,,,,,,1374.1122938000003,1374.1165611000001,1374.1165611000001,1375.0272904999997,1374.1165611000001,1377.9616425,f,1,3.839557400000558,None,left,11,"[20, 19, 20, 11, 12, 6, 11]",7,shiftedgaze_L_11.png,f,1,3,results12,001,2026-04-14_10h49.12.977,mogelijke versie adaptive staircase builder,,2026.1.3,59.97864760148051,2026-04-14 10h49.13.259960 +0200,
20.5,ecc10neg,right,29,0,29,f,0,2.320176499999434,None,0,2,2,2,29,0,29,0,1378.0441442999995,,,,,,,,,,,,,,,1378.0401937000001,1378.0441442999995,1378.0441442999995,1378.9619441,1378.0441442999995,1380.3782076000002,f,0,2.320176499999434,None,direct,10,"[20, 19, 20, 11, 12, 6, 11, 10]",8,shifteddirectgaze.png,f,0,3,results12,001,2026-04-14_10h49.12.977,mogelijke versie adaptive staircase builder,,2026.1.3,59.97864760148051,2026-04-14 10h49.13.259960 +0200,
20.5,ecc10neg,right,30,0,30,f,0,4.016081800000393,None,0,2,2,2,30,0,30,0,1380.4606325999998,,,,,,,,,,,,,,,1380.4565673000002,1380.4606325999998,1380.4606325999998,1381.377457,1380.4606325999998,1384.4782947999997,f,0,4.016081800000393,None,direct,11,"[20, 19, 20, 11, 12, 6, 11, 10]",8,shifteddirectgaze.png,f,0,3,results12,001,2026-04-14_10h49.12.977,mogelijke versie adaptive staircase builder,,2026.1.3,59.97864760148051,2026-04-14 10h49.13.259960 +0200,
20.5,ecc10neg,right,31,0,31,f,1,2.8058876999994027,None,0,2,2,2,31,0,31,0,1384.5745519999996,,,,,,,,,,,,,,,1384.5649250000001,1384.5745519999996,1384.5745519999996,1385.4940450999998,1384.5745519999996,1387.3948016,f,1,2.8058876999994027,None,right,12,"[20, 19, 20, 11, 12, 6, 11, 10, 12]",9,shiftedgaze_R_12.png,f,1,3,results12,001,2026-04-14_10h49.12.977,mogelijke versie adaptive staircase builder,,2026.1.3,59.97864760148051,2026-04-14 10h49.13.259960 +0200,
20.5,ecc10neg,right,32,0,32,j,0,2.5584536000005755,None,0,2,2,2,32,0,32,0,1387.8538488999998,,,,,,,,,,,,,,,1387.8441073,1387.8538488999998,1387.8538488999998,1388.3943342999996,1387.8538488999998,1390.4279392000003,j,0,2.5584536000005755,None,right,11,"[20, 19, 20, 11, 12, 6, 11, 10, 12, 11]",10,shiftedgaze_R_11.png,j,0,3,results12,001,2026-04-14_10h49.12.977,mogelijke versie adaptive staircase builder,,2026.1.3,59.97864760148051,2026-04-14 10h49.13.259960 +0200,
20.5,ecc10neg,right,33,0,33,j,0,1.6288599999998041,None,0,2,2,2,33,0,33,0,1390.5116282000004,,,,,,,,,,,,,,,1390.5073979000003,1390.5116282000004,1390.5116282000004,1391.4444951,1390.5116282000004,1392.1445655000002,j,0,1.6288599999998041,None,left,12,"[20, 19, 20, 11, 12, 6, 11, 10, 12, 11]",10,shiftedgaze_L_12.png,j,0,3,results12,001,2026-04-14_10h49.12.977,mogelijke versie adaptive staircase builder,,2026.1.3,59.97864760148051,2026-04-14 10h49.13.259960 +0200,
20.5,ecc10neg,right,34,0,34,j,0,1.6165212999994765,None,0,2,2,2,34,0,34,0,1392.227837,,,,,,,,,,,,,,,1392.2239123000004,1392.227837,1392.227837,1393.1439751000003,1392.227837,1393.8447373000004,j,0,1.6165212999994765,None,left,13,"[20, 19, 20, 11, 12, 6, 11, 10, 12, 11]",10,shiftedgaze_L_13.png,j,0,3,results12,001,2026-04-14_10h49.12.977,mogelijke versie adaptive staircase builder,,2026.1.3,59.97864760148051,2026-04-14 10h49.13.259960 +0200,
20.5,ecc10neg,right,35,0,35,j,1,1.6748448000007556,None,0,2,2,2,35,0,35,0,1393.9301725999999,,,,,,,,,,,,,,,1393.9261040999995,1393.9301725999999,1393.9301725999999,1394.8445189999998,1393.9301725999999,1395.6114942,j,1,1.6748448000007556,None,direct,14,"[20, 19, 20, 11, 12, 6, 11, 10, 12, 11, 14]",11,shifteddirectgaze.png,j,1,3,results12,001,2026-04-14_10h49.12.977,mogelijke versie adaptive staircase builder,,2026.1.3,59.97864760148051,2026-04-14 10h49.13.259960 +0200,
20.5,ecc10neg,right,36,0,36,j,0,1.7485265999994226,None,0,2,2,2,36,0,36,0,1395.6958309999995,,,,,,,,,,,,,,,1395.6917967000004,1395.6958309999995,1395.6958309999995,1396.6110074000003,1395.6958309999995,1397.4447353,j,0,1.7485265999994226,None,left,13,"[20, 19, 20, 11, 12, 6, 11, 10, 12, 11, 14, 13]",12,shiftedgaze_L_13.png,j,0,3,results12,001,2026-04-14_10h49.12.977,mogelijke versie adaptive staircase builder,,2026.1.3,59.97864760148051,2026-04-14 10h49.13.259960 +0200,
20.5,ecc10neg,right,37,0,37,f,1,1.2674863000002006,None,0,2,2,2,37,0,37,0,1397.5289890999998,,,,,,,,,,,,,,,1397.5249003000004,1397.5289890999998,1397.5289890999998,1398.4444425999995,1397.5289890999998,1398.8114688,f,1,1.2674863000002006,None,left,14,"[20, 19, 20, 11, 12, 6, 11, 10, 12, 11, 14, 13, 14]",13,shiftedgaze_L_14.png,f,1,3,results12,001,2026-04-14_10h49.12.977,mogelijke versie adaptive staircase builder,,2026.1.3,59.97864760148051,2026-04-14 10h49.13.259960 +0200,
20.5,ecc10neg,right,38,0,38,j,1,1.7886673000002702,None,0,2,2,2,38,0,38,0,1398.8954283999997,,,,,,,,,,,,,,,1398.891403,1398.8954283999997,1398.8954283999997,1399.8110613000003,1398.8954283999997,1400.6941166000001,j,1,1.7886673000002702,None,direct,13,"[20, 19, 20, 11, 12, 6, 11, 10, 12, 11, 14, 13, 14]",13,shifteddirectgaze.png,j,1,3,results12,001,2026-04-14_10h49.12.977,mogelijke versie adaptive staircase builder,,2026.1.3,59.97864760148051,2026-04-14 10h49.13.259960 +0200,
20.5,ecc10neg,right,39,0,39,j,0,2.883455099999992,None,0,2,2,2,39,0,39,0,1400.7769733,,,,,,,,,,,,,,,1400.7730131000003,1400.7769733,1400.7769733,1401.6944546,1400.7769733,1403.6612824999997,j,0,2.883455099999992,None,left,12,"[20, 19, 20, 11, 12, 6, 11, 10, 12, 11, 14, 13, 14, 12]",14,shiftedgaze_L_12.png,j,0,3,results12,001,2026-04-14_10h49.12.977,mogelijke versie adaptive staircase builder,,2026.1.3,59.97864760148051,2026-04-14 10h49.13.259960 +0200,
20.5,ecc10neg,right,40,0,40,f,0,1.4751286999999138,None,0,2,2,2,40,0,40,0,1403.7454076,,,,,,,,,,,,,,,1403.7413571000002,1403.7454076,1403.7454076,1404.6773571999997,1403.7454076,1405.2282707,f,0,1.4751286999999138,None,direct,13,"[20, 19, 20, 11, 12, 6, 11, 10, 12, 11, 14, 13, 14, 12]",14,shifteddirectgaze.png,f,0,3,results12,001,2026-04-14_10h49.12.977,mogelijke versie adaptive staircase builder,,2026.1.3,59.97864760148051,2026-04-14 10h49.13.259960 +0200,
20.5,ecc10neg,right,41,0,41,f,0,2.149386400000367,None,0,2,2,2,41,0,41,0,1405.3108495000001,,,,,,,,,,,,,,,1405.3066697999998,1405.3108495000001,1405.3108495000001,1406.2446308000003,1405.3108495000001,1407.4610202,f,0,2.149386400000367,None,direct,14,"[20, 19, 20, 11, 12, 6, 11, 10, 12, 11, 14, 13, 14, 12]",14,shifteddirectgaze.png,f,0,3,results12,001,2026-04-14_10h49.12.977,mogelijke versie adaptive staircase builder,,2026.1.3,59.97864760148051,2026-04-14 10h49.13.259960 +0200,
20.5,ecc10neg,right,42,0,42,f,0,2.47541530000035,None,0,2,2,2,42,0,42,0,1407.5448693000003,,,,,,,,,,,,,,,1407.5408683,1407.5448693000003,1407.5448693000003,1408.4607246,1407.5448693000003,1410.0281887999995,f,0,2.47541530000035,None,direct,15,"[20, 19, 20, 11, 12, 6, 11, 10, 12, 11, 14, 13, 14, 12]",14,shifteddirectgaze.png,f,0,3,results12,001,2026-04-14_10h49.12.977,mogelijke versie adaptive staircase builder,,2026.1.3,59.97864760148051,2026-04-14 10h49.13.259960 +0200,
20.5,ecc10neg,right,43,0,43,j,0,2.197162699999353,None,0,2,2,2,43,0,43,0,1410.1107963999998,,,,,,,,,,,,,,,1410.1067206000002,1410.1107963999998,1410.1107963999998,1411.0277494999996,1410.1107963999998,1412.3109747000003,j,0,2.197162699999353,None,left,16,"[20, 19, 20, 11, 12, 6, 11, 10, 12, 11, 14, 13, 14, 12]",14,shiftedgaze_L_16.png,j,0,3,results12,001,2026-04-14_10h49.12.977,mogelijke versie adaptive staircase builder,,2026.1.3,59.97864760148051,2026-04-14 10h49.13.259960 +0200,
20.5,ecc10neg,right,44,0,44,f,1,3.3292108999994525,None,0,2,2,2,44,0,44,0,1412.4107415000003,,,,,,,,,,,,,,,1412.4008245,1412.4107415000003,1412.4107415000003,1413.3113827000002,1412.4107415000003,1415.7443140999999,f,1,3.3292108999994525,None,right,17,"[20, 19, 20, 11, 12, 6, 11, 10, 12, 11, 14, 13, 14, 12, 17]",15,shiftedgaze_R_17.png,f,1,3,results12,001,2026-04-14_10h49.12.977,mogelijke versie adaptive staircase builder,,2026.1.3,59.97864760148051,2026-04-14 10h49.13.259960 +0200,
20.5,ecc10neg,right,45,0,45,f,1,2.3242959999997765,None,0,2,2,2,45,0,45,0,1415.8317425,,,,,,,,,,,,,,,1415.8275796000003,1415.8317425,1415.8317425,1416.7446044000003,1415.8317425,1418.161219,f,1,2.3242959999997765,None,right,16,"[20, 19, 20, 11, 12, 6, 11, 10, 12, 11, 14, 13, 14, 12, 17]",15,shiftedgaze_R_16.png,f,1,3,results12,001,2026-04-14_10h49.12.977,mogelijke versie adaptive staircase builder,,2026.1.3,59.97864760148051,2026-04-14 10h49.13.259960 +0200,
20.5,ecc10neg,right,46,0,46,j,0,1.6773376999999527,None,0,2,2,2,46,0,46,0,1418.2627132000002,,,,,,,,,,,,,,,1418.2512374000003,1418.2627132000002,1418.2627132000002,1419.1609883999995,1418.2627132000002,1419.9442695000002,j,0,1.6773376999999527,None,left,15,"[20, 19, 20, 11, 12, 6, 11, 10, 12, 11, 14, 13, 14, 12, 17, 15]",16,shiftedgaze_L_15.png,j,0,3,results12,001,2026-04-14_10h49.12.977,mogelijke versie adaptive staircase builder,,2026.1.3,59.97864760148051,2026-04-14 10h49.13.259960 +0200,
20.5,ecc10neg,right,47,0,47,f,0,2.135269999999764,None,0,2,2,2,47,0,47,0,1420.0291411000003,,,,,,,,,,,,,,,1420.0250733999997,1420.0291411000003,1420.0291411000003,1420.9441779000003,1420.0291411000003,1422.1779937999995,f,0,2.135269999999764,None,direct,16,"[20, 19, 20, 11, 12, 6, 11, 10, 12, 11, 14, 13, 14, 12, 17, 15]",16,shifteddirectgaze.png,f,0,3,results12,001,2026-04-14_10h49.12.977,mogelijke versie adaptive staircase builder,,2026.1.3,59.97864760148051,2026-04-14 10h49.13.259960 +0200,
20.5,ecc10neg,right,48,0,48,f,0,2.446938500000215,None,0,2,2,2,48,0,48,0,1422.2611368000003,,,,,,,,,,,,,,,1422.2570842,1422.2611368000003,1422.2611368000003,1423.1774578999998,1422.2611368000003,1424.7109487000002,f,0,2.446938500000215,None,direct,17,"[20, 19, 20, 11, 12, 6, 11, 10, 12, 11, 14, 13, 14, 12, 17, 15]",16,shifteddirectgaze.png,f,0,3,results12,001,2026-04-14_10h49.12.977,mogelijke versie adaptive staircase builder,,2026.1.3,59.97864760148051,2026-04-14 10h49.13.259960 +0200,
20.5,ecc10neg,right,49,0,49,f,0,2.3942716999999902,None,0,2,2,2,49,0,49,0,1424.7937894000002,,,,,,,,,,,,,,,1424.7894816000003,1424.7937894000002,1424.7937894000002,1425.7108905,1424.7937894000002,1427.1945727999996,f,0,2.3942716999999902,None,direct,18,"[20, 19, 20, 11, 12, 6, 11, 10, 12, 11, 14, 13, 14, 12, 17, 15]",16,shifteddirectgaze.png,f,0,3,results12,001,2026-04-14_10h49.12.977,mogelijke versie adaptive staircase builder,,2026.1.3,59.97864760148051,2026-04-14 10h49.13.259960 +0200,
20.5,ecc10neg,right,50,0,50,f,1,1.7666312000001199,None,0,2,2,2,50,0,50,0,1427.2936169999998,,,,,,,,,,,,,,,1427.2839541999997,1427.2936169999998,1427.2936169999998,1428.1941935,1427.2936169999998,1429.0610300000003,f,1,1.7666312000001199,None,right,19,"[20, 19, 20, 11, 12, 6, 11, 10, 12, 11, 14, 13, 14, 12, 17, 15, 19]",17,shiftedgaze_R_19.png,f,1,3,results12,001,2026-04-14_10h49.12.977,mogelijke versie adaptive staircase builder,,2026.1.3,59.97864760148051,2026-04-14 10h49.13.259960 +0200,
20.5,ecc10neg,right,51,0,51,j,0,1.7835725000004459,None,0,2,2,2,51,0,51,0,1429.1564855000001,,,,,,,,,,,,,,,1429.146623,1429.1564855000001,1429.1564855000001,1430.0610554999998,1429.1564855000001,1430.9443041999998,j,0,1.7835725000004459,None,left,18,"[20, 19, 20, 11, 12, 6, 11, 10, 12, 11, 14, 13, 14, 12, 17, 15, 19, 18]",18,shiftedgaze_L_18.png,j,0,3,results12,001,2026-04-14_10h49.12.977,mogelijke versie adaptive staircase builder,,2026.1.3,59.97864760148051,2026-04-14 10h49.13.259960 +0200,
20.5,ecc10neg,right,52,0,52,j,1,5.048083900000165,None,0,2,2,2,52,0,52,0,1431.0280288999998,,,,,,,,,,,,,,,1431.0240738999996,1431.0280288999998,1431.0280288999998,1431.9441006000002,1431.0280288999998,1436.0777328999998,j,1,5.048083900000165,None,direct,19,"[20, 19, 20, 11, 12, 6, 11, 10, 12, 11, 14, 13, 14, 12, 17, 15, 19, 18, 19]",19,shifteddirectgaze.png,j,1,3,results12,001,2026-04-14_10h49.12.977,mogelijke versie adaptive staircase builder,,2026.1.3,59.97864760148051,2026-04-14 10h49.13.259960 +0200,
20.5,ecc10neg,right,53,0,53,j,0,2.266028500000175,None,0,2,2,2,53,0,53,0,1436.1619290000003,,,,,,,,,,,,,,,1436.1577069,1436.1619290000003,1436.1619290000003,1437.0779607,1436.1619290000003,1438.4443121,j,0,2.266028500000175,None,left,18,"[20, 19, 20, 11, 12, 6, 11, 10, 12, 11, 14, 13, 14, 12, 17, 15, 19, 18, 19, 18]",20,shiftedgaze_L_18.png,j,0,3,results12,001,2026-04-14_10h49.12.977,mogelijke versie adaptive staircase builder,,2026.1.3,59.97864760148051,2026-04-14 10h49.13.259960 +0200,
20.5,ecc10neg,right,54,0,54,f,1,6.96195809999972,None,0,2,2,2,54,0,54,0,1438.5461799999998,,,,,,,,,,,,,,,1438.5365197999995,1438.5461799999998,1438.5461799999998,1439.4444247999995,1438.5461799999998,1445.5109877999998,f,1,6.96195809999972,None,right,19,"[20, 19, 20, 11, 12, 6, 11, 10, 12, 11, 14, 13, 14, 12, 17, 15, 19, 18, 19, 18, 19]",21,shiftedgaze_R_19.png,f,1,3,results12,001,2026-04-14_10h49.12.977,mogelijke versie adaptive staircase builder,,2026.1.3,59.97864760148051,2026-04-14 10h49.13.259960 +0200,
20.5,ecc10neg,right,55,0,55,j,1,1.5758175999999366,None,0,2,2,2,55,0,55,0,1445.6122367000003,,,,,,,,,,,,,,,1445.5989961,1445.6122367000003,1445.6122367000003,1446.5107347999997,1445.6122367000003,1447.1942837000001,j,1,1.5758175999999366,None,direct,18,"[20, 19, 20, 11, 12, 6, 11, 10, 12, 11, 14, 13, 14, 12, 17, 15, 19, 18, 19, 18, 19]",21,shifteddirectgaze.png,j,1,3,results12,001,2026-04-14_10h49.12.977,mogelijke versie adaptive staircase builder,,2026.1.3,59.97864760148051,2026-04-14 10h49.13.259960 +0200,
20.5,ecc10neg,right,56,0,56,j,0,1.4360610000003362,None,0,2,2,2,56,0,56,0,1447.2879994,,,,,,,,,,,,,,,1447.2841111000002,1447.2879994,1447.2879994,1448.1940276999999,1447.2879994,1448.7275396,j,0,1.4360610000003362,None,left,17,"[20, 19, 20, 11, 12, 6, 11, 10, 12, 11, 14, 13, 14, 12, 17, 15, 19, 18, 19, 18, 19, 17]",22,shiftedgaze_L_17.png,j,0,3,results12,001,2026-04-14_10h49.12.977,mogelijke versie adaptive staircase builder,,2026.1.3,59.97864760148051,2026-04-14 10h49.13.259960 +0200,
20.5,ecc10neg,right,57,0,57,f,0,2.671639099999993,None,0,2,2,2,57,0,57,0,1448.8123025999998,,,,,,,,,,,,,,,1448.8082561999995,1448.8123025999998,1448.8123025999998,1449.7274258000002,1448.8123025999998,1451.4943028000002,f,0,2.671639099999993,None,direct,18,"[20, 19, 20, 11, 12, 6, 11, 10, 12, 11, 14, 13, 14, 12, 17, 15, 19, 18, 19, 18, 19, 17]",22,shifteddirectgaze.png,f,0,3,results12,001,2026-04-14_10h49.12.977,mogelijke versie adaptive staircase builder,,2026.1.3,59.97864760148051,2026-04-14 10h49.13.259960 +0200,
20.5,ecc10neg,right,58,0,58,f,1,2.153403399999661,None,0,2,2,2,58,0,58,0,1451.5946717000002,,,,,,,,,,,,,,,1451.5853012000002,1451.5946717000002,1451.5946717000002,1452.4941416999995,1451.5946717000002,1453.7611412,f,1,2.153403399999661,None,right,19,"[20, 19, 20, 11, 12, 6, 11, 10, 12, 11, 14, 13, 14, 12, 17, 15, 19, 18, 19, 18, 19, 17, 19]",23,shiftedgaze_R_19.png,f,1,3,results12,001,2026-04-14_10h49.12.977,mogelijke versie adaptive staircase builder,,2026.1.3,59.97864760148051,2026-04-14 10h49.13.259960 +0200,
20.5,ecc10neg,right,59,0,59,f,0,1.9971150999999736,None,0,2,2,2,59,0,59,0,1453.8631018,,,,,,,,,,,,,,,1453.8533025000002,1453.8631018,1453.8631018,1454.7612216000002,1453.8631018,1455.8609941999998,f,0,1.9971150999999736,None,direct,18,"[20, 19, 20, 11, 12, 6, 11, 10, 12, 11, 14, 13, 14, 12, 17, 15, 19, 18, 19, 18, 19, 17, 19, 18]",24,shifteddirectgaze.png,f,0,3,results12,001,2026-04-14_10h49.12.977,mogelijke versie adaptive staircase builder,,2026.1.3,59.97864760148051,2026-04-14 10h49.13.259960 +0200,
20.5,ecc10neg,right,2,2,0,,,,,0,2,2,2,,,,,,,,,,,,,,,,,,,,,,,,,,,,,,,,,,,,,,results12,001,2026-04-14_10h49.12.977,mogelijke versie adaptive staircase builder,,2026.1.3,59.97864760148051,2026-04-14 10h49.13.259960 +0200,
