xPos,stimulusSet,whichImage,thisN,thisTrialN,thisRepN,key_resp.keys,key_resp.corr,key_resp.rt,key_resp.duration,blocks.thisRepN,blocks.thisTrialN,blocks.thisN,blocks.thisIndex,trials.thisRepN,trials.thisTrialN,trials.thisN,trials.thisIndex,thisRow.t,notes,piloting,intro.started,introinstructions.started,intro_key.started,demo_image_left.started,demo_image_middle.started,demo_image_right.started,intro.stopped,intro_key.keys,intro_key.rt,intro_key.duration,block_start.started,block_start.stopped,trial.started,key_resp.started,middle_image.started,right_image.started,left_image.started,trial.stopped,trials.key_resp.keys,trials.key_resp.corr,trials.key_resp.rt,trials.key_resp.duration,direction,angle,reversal_intensities,number_reversals,stimulus,response,correct,blockNumber,participant,session,date,expName,expVersion,psychopyVersion,frameRate,expStart,
,,,,,,,,,,,,,,,,,,,,False,0.0036639999998442363,0.006451599999991231,0.006451599999991231,0.006451599999991231,0.006451599999991231,0.006451599999991231,835.0329912,space,834.9056143,0.11945569999988948,,,,,,,,,,,,,,,,,,,,,results11,001,2026-04-14_10h23.18.042,mogelijke versie adaptive staircase builder,,2026.1.3,59.98033844503508,2026-04-14 10h23.18.296943 +0200,
4.5,ecc10pos,left,0,0,0,f,0,21.82843240000011,None,0,0,0,0,0,0,0,0,835.3635919999999,,,,,,,,,,,,,835.2631359,835.2631939,835.3608920999998,835.3635919999999,835.3635919999999,835.3635919999999,836.2659981999998,857.1997975000002,f,0,21.82843240000011,None,direct,20,[],0,shifteddirectgaze.png,f,0,1,results11,001,2026-04-14_10h23.18.042,mogelijke versie adaptive staircase builder,,2026.1.3,59.98033844503508,2026-04-14 10h23.18.296943 +0200,
4.5,ecc10pos,left,1,0,1,f,1,7.9886084999998275,None,0,0,0,0,1,0,1,0,857.2992204,,,,,,,,,,,,,,,857.2951958000001,857.2992204,857.2992204,857.2992204,858.1994397000001,865.3000753999997,f,1,7.9886084999998275,None,right,20,[20],1,shiftedgaze_R_20.png,f,1,1,results11,001,2026-04-14_10h23.18.042,mogelijke versie adaptive staircase builder,,2026.1.3,59.98033844503508,2026-04-14 10h23.18.296943 +0200,
4.5,ecc10pos,left,2,0,2,f,1,12.781983400000172,None,0,0,0,0,2,0,2,0,865.4658332000001,,,,,,,,,,,,,,,865.4614964,865.4658332000001,865.4658332000001,865.4658332000001,866.315996,878.2494012,f,1,12.781983400000172,None,left,19,[20],1,shiftedgaze_L_19.png,f,1,1,results11,001,2026-04-14_10h23.18.042,mogelijke versie adaptive staircase builder,,2026.1.3,59.98033844503508,2026-04-14 10h23.18.296943 +0200,
4.5,ecc10pos,left,3,0,3,j,0,3.20288359999995,None,0,0,0,0,3,0,3,0,878.3488722999998,,,,,,,,,,,,,,,878.3449239999998,878.3488722999998,878.3488722999998,878.3488722999998,879.2493532999999,881.5660569999998,j,0,3.20288359999995,None,left,18,"[20, 18]",2,shiftedgaze_L_18.png,j,0,1,results11,001,2026-04-14_10h23.18.042,mogelijke versie adaptive staircase builder,,2026.1.3,59.98033844503508,2026-04-14 10h23.18.296943 +0200,
4.5,ecc10pos,left,4,0,4,f,1,3.068720200000371,None,0,0,0,0,4,0,4,0,881.7070394999998,,,,,,,,,,,,,,,881.6887199,881.7070394999998,881.7070394999998,881.7070394999998,882.5659508000001,884.7828094999998,f,1,3.068720200000371,None,right,19,"[20, 18, 19]",3,shiftedgaze_R_19.png,f,1,1,results11,001,2026-04-14_10h23.18.042,mogelijke versie adaptive staircase builder,,2026.1.3,59.98033844503508,2026-04-14 10h23.18.296943 +0200,
4.5,ecc10pos,left,5,0,5,j,0,3.088146600000073,None,0,0,0,0,5,0,5,0,884.9116354999999,,,,,,,,,,,,,,,884.9024234999999,884.9116354999999,884.9116354999999,884.9116354999999,885.7826290999999,888.000166,j,0,3.088146600000073,None,right,18,"[20, 18, 19, 18]",4,shiftedgaze_R_18.png,j,0,1,results11,001,2026-04-14_10h23.18.042,mogelijke versie adaptive staircase builder,,2026.1.3,59.98033844503508,2026-04-14 10h23.18.296943 +0200,
4.5,ecc10pos,left,6,0,6,j,1,2.7756936999999198,None,0,0,0,0,6,0,6,0,888.0884235999999,,,,,,,,,,,,,,,888.0845183999998,888.0884235999999,888.0884235999999,888.0884235999999,888.9997848,890.8665054,j,1,2.7756936999999198,None,direct,19,"[20, 18, 19, 18, 19]",5,shifteddirectgaze.png,j,1,1,results11,001,2026-04-14_10h23.18.042,mogelijke versie adaptive staircase builder,,2026.1.3,59.98033844503508,2026-04-14 10h23.18.296943 +0200,
4.5,ecc10pos,left,7,0,7,j,0,3.125434999999925,None,0,0,0,0,7,0,7,0,890.9546794999999,,,,,,,,,,,,,,,890.9508604,890.9546794999999,890.9546794999999,890.9546794999999,891.8664366999999,894.0833789000001,j,0,3.125434999999925,None,right,18,"[20, 18, 19, 18, 19, 18]",6,shiftedgaze_R_18.png,j,0,1,results11,001,2026-04-14_10h23.18.042,mogelijke versie adaptive staircase builder,,2026.1.3,59.98033844503508,2026-04-14 10h23.18.296943 +0200,
4.5,ecc10pos,left,8,0,8,j,1,3.10845960000006,None,0,0,0,0,8,0,8,0,894.1712196000001,,,,,,,,,,,,,,,894.1670854000001,894.1712196000001,894.1712196000001,894.1712196000001,895.0993298000001,897.2829678,j,1,3.10845960000006,None,direct,19,"[20, 18, 19, 18, 19, 18, 19]",7,shifteddirectgaze.png,j,1,1,results11,001,2026-04-14_10h23.18.042,mogelijke versie adaptive staircase builder,,2026.1.3,59.98033844503508,2026-04-14 10h23.18.296943 +0200,
4.5,ecc10pos,left,9,0,9,f,1,3.1498477000000094,None,0,0,0,0,9,0,9,0,897.3696671999999,,,,,,,,,,,,,,,897.3657222999998,897.3696671999999,897.3696671999999,897.3696671999999,898.2828904,900.5328066999998,f,1,3.1498477000000094,None,right,18,"[20, 18, 19, 18, 19, 18, 19]",7,shiftedgaze_R_18.png,f,1,1,results11,001,2026-04-14_10h23.18.042,mogelijke versie adaptive staircase builder,,2026.1.3,59.98033844503508,2026-04-14 10h23.18.296943 +0200,
4.5,ecc10pos,left,10,0,10,j,0,2.287873799999943,None,0,0,0,0,10,0,10,0,900.6479388,,,,,,,,,,,,,,,900.6371720999998,900.6479388,900.6479388,900.6479388,901.5329082999999,902.9496757,j,0,2.287873799999943,None,left,17,"[20, 18, 19, 18, 19, 18, 19, 17]",8,shiftedgaze_L_17.png,j,0,1,results11,001,2026-04-14_10h23.18.042,mogelijke versie adaptive staircase builder,,2026.1.3,59.98033844503508,2026-04-14 10h23.18.296943 +0200,
4.5,ecc10pos,left,11,0,11,j,0,3.0812323000000106,None,0,0,0,0,11,0,11,0,903.0468475999999,,,,,,,,,,,,,,,903.0358149000001,903.0468475999999,903.0468475999999,903.0468475999999,903.9494511999999,906.1330965999998,j,0,3.0812323000000106,None,right,18,"[20, 18, 19, 18, 19, 18, 19, 17]",8,shiftedgaze_R_18.png,j,0,1,results11,001,2026-04-14_10h23.18.042,mogelijke versie adaptive staircase builder,,2026.1.3,59.98033844503508,2026-04-14 10h23.18.296943 +0200,
4.5,ecc10pos,left,12,0,12,j,0,4.138242499999706,None,0,0,0,0,12,0,12,0,906.2294724000001,,,,,,,,,,,,,,,906.2193031999998,906.2294724000001,906.2294724000001,906.2294724000001,907.1331457999997,910.3827450000001,j,0,4.138242499999706,None,left,19,"[20, 18, 19, 18, 19, 18, 19, 17]",8,shiftedgaze_L_19.png,j,0,1,results11,001,2026-04-14_10h23.18.042,mogelijke versie adaptive staircase builder,,2026.1.3,59.98033844503508,2026-04-14 10h23.18.296943 +0200,
4.5,ecc10pos,left,13,0,13,f,1,2.8941947999996955,None,0,0,0,0,13,0,13,0,910.8979090999999,,,,,,,,,,,,,,,910.8934959000001,910.8979090999999,910.8979090999999,910.8979090999999,911.3825992999998,913.7998796999998,f,1,2.8941947999996955,None,left,20,"[20, 18, 19, 18, 19, 18, 19, 17, 20]",9,shiftedgaze_L_20.png,f,1,1,results11,001,2026-04-14_10h23.18.042,mogelijke versie adaptive staircase builder,,2026.1.3,59.98033844503508,2026-04-14 10h23.18.296943 +0200,
4.5,ecc10pos,left,14,0,14,f,1,2.678737500000352,None,0,0,0,0,14,0,14,0,913.8892005999999,,,,,,,,,,,,,,,913.8849346,913.8892005999999,913.8892005999999,913.8892005999999,914.7993248,916.5834686999999,f,1,2.678737500000352,None,left,19,"[20, 18, 19, 18, 19, 18, 19, 17, 20]",9,shiftedgaze_L_19.png,f,1,1,results11,001,2026-04-14_10h23.18.042,mogelijke versie adaptive staircase builder,,2026.1.3,59.98033844503508,2026-04-14 10h23.18.296943 +0200,
4.5,ecc10pos,left,15,0,15,j,0,2.345310100000006,None,0,0,0,0,15,0,15,0,916.6865249,,,,,,,,,,,,,,,916.6760628,916.6865249,916.6865249,916.6865249,917.5830060000001,919.0334692999998,j,0,2.345310100000006,None,right,18,"[20, 18, 19, 18, 19, 18, 19, 17, 20, 18]",10,shiftedgaze_R_18.png,j,0,1,results11,001,2026-04-14_10h23.18.042,mogelijke versie adaptive staircase builder,,2026.1.3,59.98033844503508,2026-04-14 10h23.18.296943 +0200,
4.5,ecc10pos,left,16,0,16,j,0,2.919220799999948,None,0,0,0,0,16,0,16,0,919.1364427000001,,,,,,,,,,,,,,,919.1268247999999,919.1364427000001,919.1364427000001,919.1364427000001,920.0491791000002,922.0662452999998,j,0,2.919220799999948,None,right,19,"[20, 18, 19, 18, 19, 18, 19, 17, 20, 18]",10,shiftedgaze_R_19.png,j,0,1,results11,001,2026-04-14_10h23.18.042,mogelijke versie adaptive staircase builder,,2026.1.3,59.98033844503508,2026-04-14 10h23.18.296943 +0200,
4.5,ecc10pos,left,17,0,17,f,0,2.8186125000001994,None,0,0,0,0,17,0,17,0,922.1570765999998,,,,,,,,,,,,,,,922.1473914999999,922.1570765999998,922.1570765999998,922.1570765999998,923.066032,924.9830887999999,f,0,2.8186125000001994,None,direct,20,"[20, 18, 19, 18, 19, 18, 19, 17, 20, 18]",10,shifteddirectgaze.png,f,0,1,results11,001,2026-04-14_10h23.18.042,mogelijke versie adaptive staircase builder,,2026.1.3,59.98033844503508,2026-04-14 10h23.18.296943 +0200,
4.5,ecc10pos,left,18,0,18,j,1,1.9820718000000852,None,0,0,0,0,18,0,18,0,925.0661137,,,,,,,,,,,,,,,925.0620339999998,925.0661137,925.0661137,925.0661137,925.9827612000001,927.0501274999999,j,1,1.9820718000000852,None,direct,20,"[20, 18, 19, 18, 19, 18, 19, 17, 20, 18, 20]",11,shifteddirectgaze.png,j,1,1,results11,001,2026-04-14_10h23.18.042,mogelijke versie adaptive staircase builder,,2026.1.3,59.98033844503508,2026-04-14 10h23.18.296943 +0200,
4.5,ecc10pos,left,19,0,19,j,0,2.4773402999999234,None,0,0,0,0,19,0,19,0,927.1467694,,,,,,,,,,,,,,,927.1372417,927.1467694,927.1467694,927.1467694,928.0665225999999,929.6335323999999,j,0,2.4773402999999234,None,left,19,"[20, 18, 19, 18, 19, 18, 19, 17, 20, 18, 20, 19]",12,shiftedgaze_L_19.png,j,0,1,results11,001,2026-04-14_10h23.18.042,mogelijke versie adaptive staircase builder,,2026.1.3,59.98033844503508,2026-04-14 10h23.18.296943 +0200,
4.5,ecc10pos,left,20,0,20,j,0,3.48143330000039,None,0,0,0,0,20,0,20,0,929.7342566,,,,,,,,,,,,,,,929.7235054,929.7342566,929.7342566,929.7342566,930.6493622,933.2161785999999,j,0,3.48143330000039,None,right,20,"[20, 18, 19, 18, 19, 18, 19, 17, 20, 18, 20, 19]",12,shiftedgaze_R_20.png,j,0,1,results11,001,2026-04-14_10h23.18.042,mogelijke versie adaptive staircase builder,,2026.1.3,59.98033844503508,2026-04-14 10h23.18.296943 +0200,
4.5,ecc10pos,left,21,0,21,f,1,3.832666600000266,None,0,0,0,0,21,0,21,0,933.3030230000002,,,,,,,,,,,,,,,933.2978633999999,933.3030230000002,933.3030230000002,933.3030230000002,934.2161942,937.1495554999999,f,1,3.832666600000266,None,right,20,"[20, 18, 19, 18, 19, 18, 19, 17, 20, 18, 20, 19, 20]",13,shiftedgaze_R_20.png,f,1,1,results11,001,2026-04-14_10h23.18.042,mogelijke versie adaptive staircase builder,,2026.1.3,59.98033844503508,2026-04-14 10h23.18.296943 +0200,
4.5,ecc10pos,left,22,0,22,j,1,2.646214900000359,None,0,0,0,0,22,0,22,0,937.2333409999999,,,,,,,,,,,,,,,937.229165,937.2333409999999,937.2333409999999,937.2333409999999,938.1498660999998,939.8829405999998,j,1,2.646214900000359,None,direct,19,"[20, 18, 19, 18, 19, 18, 19, 17, 20, 18, 20, 19, 20]",13,shifteddirectgaze.png,j,1,1,results11,001,2026-04-14_10h23.18.042,mogelijke versie adaptive staircase builder,,2026.1.3,59.98033844503508,2026-04-14 10h23.18.296943 +0200,
4.5,ecc10pos,left,23,0,23,f,1,3.244633899999826,None,0,0,0,0,23,0,23,0,939.9869206999999,,,,,,,,,,,,,,,939.9771997,939.9869206999999,939.9869206999999,939.9869206999999,940.8827395000001,943.2330036999999,f,1,3.244633899999826,None,left,18,"[20, 18, 19, 18, 19, 18, 19, 17, 20, 18, 20, 19, 20]",13,shiftedgaze_L_18.png,f,1,1,results11,001,2026-04-14_10h23.18.042,mogelijke versie adaptive staircase builder,,2026.1.3,59.98033844503508,2026-04-14 10h23.18.296943 +0200,
4.5,ecc10pos,left,24,0,24,f,1,2.90290959999993,None,0,0,0,0,24,0,24,0,943.3211516999997,,,,,,,,,,,,,,,943.3167508999998,943.3211516999997,943.3211516999997,943.3211516999997,944.2326559999999,946.2331722000001,f,1,2.90290959999993,None,left,17,"[20, 18, 19, 18, 19, 18, 19, 17, 20, 18, 20, 19, 20]",13,shiftedgaze_L_17.png,f,1,1,results11,001,2026-04-14_10h23.18.042,mogelijke versie adaptive staircase builder,,2026.1.3,59.98033844503508,2026-04-14 10h23.18.296943 +0200,
4.5,ecc10pos,left,25,0,25,f,1,2.4223194999999578,None,0,0,0,0,25,0,25,0,946.3373303999999,,,,,,,,,,,,,,,946.3330190999998,946.3373303999999,946.3373303999999,946.3373303999999,947.2332159999999,948.7661528000001,f,1,2.4223194999999578,None,left,16,"[20, 18, 19, 18, 19, 18, 19, 17, 20, 18, 20, 19, 20]",13,shiftedgaze_L_16.png,f,1,1,results11,001,2026-04-14_10h23.18.042,mogelijke versie adaptive staircase builder,,2026.1.3,59.98033844503508,2026-04-14 10h23.18.296943 +0200,
4.5,ecc10pos,left,26,0,26,f,1,2.8388417000001027,None,0,0,0,0,26,0,26,0,948.8728362999998,,,,,,,,,,,,,,,948.8618061999998,948.8728362999998,948.8728362999998,948.8728362999998,949.7665356999998,951.7161949999997,f,1,2.8388417000001027,None,right,15,"[20, 18, 19, 18, 19, 18, 19, 17, 20, 18, 20, 19, 20]",13,shiftedgaze_R_15.png,f,1,1,results11,001,2026-04-14_10h23.18.042,mogelijke versie adaptive staircase builder,,2026.1.3,59.98033844503508,2026-04-14 10h23.18.296943 +0200,
4.5,ecc10pos,left,27,0,27,f,1,2.467924199999743,None,0,0,0,0,27,0,27,0,952.1715957999997,,,,,,,,,,,,,,,952.1667814,952.1715957999997,952.1715957999997,952.1715957999997,952.7159515000001,954.6495751999998,f,1,2.467924199999743,None,left,14,"[20, 18, 19, 18, 19, 18, 19, 17, 20, 18, 20, 19, 20]",13,shiftedgaze_L_14.png,f,1,1,results11,001,2026-04-14_10h23.18.042,mogelijke versie adaptive staircase builder,,2026.1.3,59.98033844503508,2026-04-14 10h23.18.296943 +0200,
4.5,ecc10pos,left,28,0,28,j,0,2.9902890999997,None,0,0,0,0,28,0,28,0,954.9933236999998,,,,,,,,,,,,,,,954.9886774999998,954.9933236999998,954.9933236999998,954.9933236999998,955.6493760999999,957.9995575,j,0,2.9902890999997,None,left,13,"[20, 18, 19, 18, 19, 18, 19, 17, 20, 18, 20, 19, 20, 13]",14,shiftedgaze_L_13.png,j,0,1,results11,001,2026-04-14_10h23.18.042,mogelijke versie adaptive staircase builder,,2026.1.3,59.98033844503508,2026-04-14 10h23.18.296943 +0200,
4.5,ecc10pos,left,29,0,29,j,1,2.473026000000118,None,0,0,0,0,29,0,29,0,958.0866447999999,,,,,,,,,,,,,,,958.0822062999998,958.0866447999999,958.0866447999999,958.0866447999999,958.9993738999999,960.5661767999998,j,1,2.473026000000118,None,direct,14,"[20, 18, 19, 18, 19, 18, 19, 17, 20, 18, 20, 19, 20, 13, 14]",15,shifteddirectgaze.png,j,1,1,results11,001,2026-04-14_10h23.18.042,mogelijke versie adaptive staircase builder,,2026.1.3,59.98033844503508,2026-04-14 10h23.18.296943 +0200,
4.5,ecc10pos,left,30,0,30,j,0,1.9773764000001393,None,0,0,0,0,30,0,30,0,960.7663239000001,,,,,,,,,,,,,,,960.7615874,960.7663239000001,960.7663239000001,960.7663239000001,961.5665428,962.7495151999999,j,0,1.9773764000001393,None,right,13,"[20, 18, 19, 18, 19, 18, 19, 17, 20, 18, 20, 19, 20, 13, 14, 13]",16,shiftedgaze_R_13.png,j,0,1,results11,001,2026-04-14_10h23.18.042,mogelijke versie adaptive staircase builder,,2026.1.3,59.98033844503508,2026-04-14 10h23.18.296943 +0200,
4.5,ecc10pos,left,31,0,31,j,1,3.310938200000237,None,0,0,0,0,31,0,31,0,962.8327194999999,,,,,,,,,,,,,,,962.8286341999999,962.8327194999999,962.8327194999999,962.8327194999999,963.7493492000001,966.1496774999998,j,1,3.310938200000237,None,direct,14,"[20, 18, 19, 18, 19, 18, 19, 17, 20, 18, 20, 19, 20, 13, 14, 13, 14]",17,shifteddirectgaze.png,j,1,1,results11,001,2026-04-14_10h23.18.042,mogelijke versie adaptive staircase builder,,2026.1.3,59.98033844503508,2026-04-14 10h23.18.296943 +0200,
4.5,ecc10pos,left,32,0,32,f,1,2.2551679000002878,None,0,0,0,0,32,0,32,0,966.2324981999998,,,,,,,,,,,,,,,966.2285343000001,966.2324981999998,966.2324981999998,966.2324981999998,967.1494254000002,968.4995501000001,f,1,2.2551679000002878,None,right,13,"[20, 18, 19, 18, 19, 18, 19, 17, 20, 18, 20, 19, 20, 13, 14, 13, 14]",17,shiftedgaze_R_13.png,f,1,1,results11,001,2026-04-14_10h23.18.042,mogelijke versie adaptive staircase builder,,2026.1.3,59.98033844503508,2026-04-14 10h23.18.296943 +0200,
4.5,ecc10pos,left,33,0,33,j,0,3.1935217000000193,None,0,0,0,0,33,0,33,0,968.6943602999997,,,,,,,,,,,,,,,968.6900039999998,968.6943602999997,968.6943602999997,968.6943602999997,969.4994857999998,971.8998404000001,j,0,3.1935217000000193,None,left,12,"[20, 18, 19, 18, 19, 18, 19, 17, 20, 18, 20, 19, 20, 13, 14, 13, 14, 12]",18,shiftedgaze_L_12.png,j,0,1,results11,001,2026-04-14_10h23.18.042,mogelijke versie adaptive staircase builder,,2026.1.3,59.98033844503508,2026-04-14 10h23.18.296943 +0200,
4.5,ecc10pos,left,34,0,34,j,1,3.3127700000000004,None,0,0,0,0,34,0,34,0,971.9828952999999,,,,,,,,,,,,,,,971.9788864,971.9828952999999,971.9828952999999,971.9828952999999,972.8998402999998,975.2995405999998,j,1,3.3127700000000004,None,direct,13,"[20, 18, 19, 18, 19, 18, 19, 17, 20, 18, 20, 19, 20, 13, 14, 13, 14, 12, 13]",19,shifteddirectgaze.png,j,1,1,results11,001,2026-04-14_10h23.18.042,mogelijke versie adaptive staircase builder,,2026.1.3,59.98033844503508,2026-04-14 10h23.18.296943 +0200,
4.5,ecc10pos,left,35,0,35,j,0,2.5561416000000463,None,0,0,0,0,35,0,35,0,975.4914197999999,,,,,,,,,,,,,,,975.4872908,975.4914197999999,975.4914197999999,975.4914197999999,976.2998721000001,978.0494012000001,j,0,2.5561416000000463,None,right,12,"[20, 18, 19, 18, 19, 18, 19, 17, 20, 18, 20, 19, 20, 13, 14, 13, 14, 12, 13, 12]",20,shiftedgaze_R_12.png,j,0,1,results11,001,2026-04-14_10h23.18.042,mogelijke versie adaptive staircase builder,,2026.1.3,59.98033844503508,2026-04-14 10h23.18.296943 +0200,
4.5,ecc10pos,left,36,0,36,j,0,3.3155102999999144,None,0,0,0,0,36,0,36,0,978.1327472,,,,,,,,,,,,,,,978.1288257999997,978.1327472,978.1327472,978.1327472,979.0493632,981.4499958999997,j,0,3.3155102999999144,None,right,13,"[20, 18, 19, 18, 19, 18, 19, 17, 20, 18, 20, 19, 20, 13, 14, 13, 14, 12, 13, 12]",20,shiftedgaze_R_13.png,j,0,1,results11,001,2026-04-14_10h23.18.042,mogelijke versie adaptive staircase builder,,2026.1.3,59.98033844503508,2026-04-14 10h23.18.296943 +0200,
4.5,ecc10pos,left,37,0,37,j,0,2.564659699999993,None,0,0,0,0,37,0,37,0,981.5472069999998,,,,,,,,,,,,,,,981.5427895999999,981.5472069999998,981.5472069999998,981.5472069999998,982.4658986000002,984.116765,j,0,2.564659699999993,None,right,14,"[20, 18, 19, 18, 19, 18, 19, 17, 20, 18, 20, 19, 20, 13, 14, 13, 14, 12, 13, 12]",20,shiftedgaze_R_14.png,j,0,1,results11,001,2026-04-14_10h23.18.042,mogelijke versie adaptive staircase builder,,2026.1.3,59.98033844503508,2026-04-14 10h23.18.296943 +0200,
4.5,ecc10pos,left,38,0,38,j,0,2.1423170000002756,None,0,0,0,0,38,0,38,0,984.2013199999999,,,,,,,,,,,,,,,984.1972628999999,984.2013199999999,984.2013199999999,984.2013199999999,985.1330768999999,986.3498001999999,j,0,2.1423170000002756,None,right,15,"[20, 18, 19, 18, 19, 18, 19, 17, 20, 18, 20, 19, 20, 13, 14, 13, 14, 12, 13, 12]",20,shiftedgaze_R_15.png,j,0,1,results11,001,2026-04-14_10h23.18.042,mogelijke versie adaptive staircase builder,,2026.1.3,59.98033844503508,2026-04-14 10h23.18.296943 +0200,
4.5,ecc10pos,left,39,0,39,j,0,1.9255847999997968,None,0,0,0,0,39,0,39,0,986.4421316999999,,,,,,,,,,,,,,,986.4381852999998,986.4421316999999,986.4421316999999,986.4421316999999,987.3497392000002,988.3827506,j,0,1.9255847999997968,None,right,16,"[20, 18, 19, 18, 19, 18, 19, 17, 20, 18, 20, 19, 20, 13, 14, 13, 14, 12, 13, 12]",20,shiftedgaze_R_16.png,j,0,1,results11,001,2026-04-14_10h23.18.042,mogelijke versie adaptive staircase builder,,2026.1.3,59.98033844503508,2026-04-14 10h23.18.296943 +0200,
4.5,ecc10pos,left,40,0,40,f,1,3.3246423000000505,None,0,0,0,0,40,0,40,0,988.4911380000001,,,,,,,,,,,,,,,988.4811034000002,988.4911380000001,988.4911380000001,988.4911380000001,989.3829266999999,991.8162169999998,f,1,3.3246423000000505,None,left,17,"[20, 18, 19, 18, 19, 18, 19, 17, 20, 18, 20, 19, 20, 13, 14, 13, 14, 12, 13, 12, 17]",21,shiftedgaze_L_17.png,f,1,1,results11,001,2026-04-14_10h23.18.042,mogelijke versie adaptive staircase builder,,2026.1.3,59.98033844503508,2026-04-14 10h23.18.296943 +0200,
4.5,ecc10pos,left,41,0,41,f,1,2.0232835000001614,None,0,0,0,0,41,0,41,0,991.9125533999998,,,,,,,,,,,,,,,991.9078302999999,991.9125533999998,991.9125533999998,991.9125533999998,992.8163997999998,993.9501324999999,f,1,2.0232835000001614,None,left,16,"[20, 18, 19, 18, 19, 18, 19, 17, 20, 18, 20, 19, 20, 13, 14, 13, 14, 12, 13, 12, 17]",21,shiftedgaze_L_16.png,f,1,1,results11,001,2026-04-14_10h23.18.042,mogelijke versie adaptive staircase builder,,2026.1.3,59.98033844503508,2026-04-14 10h23.18.296943 +0200,
4.5,ecc10pos,left,42,0,42,j,0,2.1440864000001056,None,0,0,0,0,42,0,42,0,994.0557984,,,,,,,,,,,,,,,994.0455955999998,994.0557984,994.0557984,994.0557984,994.9496412000001,996.2002663999999,j,0,2.1440864000001056,None,left,15,"[20, 18, 19, 18, 19, 18, 19, 17, 20, 18, 20, 19, 20, 13, 14, 13, 14, 12, 13, 12, 17, 15]",22,shiftedgaze_L_15.png,j,0,1,results11,001,2026-04-14_10h23.18.042,mogelijke versie adaptive staircase builder,,2026.1.3,59.98033844503508,2026-04-14 10h23.18.296943 +0200,
4.5,ecc10pos,left,43,0,43,j,0,1.7621352000001025,None,0,0,0,0,43,0,43,0,996.3017643999999,,,,,,,,,,,,,,,996.2910708000002,996.3017643999999,996.3017643999999,996.3017643999999,997.1997150999998,998.0667283999999,j,0,1.7621352000001025,None,right,16,"[20, 18, 19, 18, 19, 18, 19, 17, 20, 18, 20, 19, 20, 13, 14, 13, 14, 12, 13, 12, 17, 15]",22,shiftedgaze_R_16.png,j,0,1,results11,001,2026-04-14_10h23.18.042,mogelijke versie adaptive staircase builder,,2026.1.3,59.98033844503508,2026-04-14 10h23.18.296943 +0200,
4.5,ecc10pos,left,44,0,44,j,0,1.484434400000282,None,0,0,0,0,44,0,44,0,998.1712208000001,,,,,,,,,,,,,,,998.1662220000001,998.1712208000001,998.1712208000001,998.1712208000001,999.0660774,999.6660997000001,j,0,1.484434400000282,None,right,17,"[20, 18, 19, 18, 19, 18, 19, 17, 20, 18, 20, 19, 20, 13, 14, 13, 14, 12, 13, 12, 17, 15]",22,shiftedgaze_R_17.png,j,0,1,results11,001,2026-04-14_10h23.18.042,mogelijke versie adaptive staircase builder,,2026.1.3,59.98033844503508,2026-04-14 10h23.18.296943 +0200,
4.5,ecc10pos,left,45,0,45,j,0,2.4742137999996885,None,0,0,0,0,45,0,45,0,999.7815997999999,,,,,,,,,,,,,,,999.7714156999998,999.7815997999999,999.7815997999999,999.7815997999999,1000.6660189000002,1002.2662898000001,j,0,2.4742137999996885,None,left,18,"[20, 18, 19, 18, 19, 18, 19, 17, 20, 18, 20, 19, 20, 13, 14, 13, 14, 12, 13, 12, 17, 15]",22,shiftedgaze_L_18.png,j,0,1,results11,001,2026-04-14_10h23.18.042,mogelijke versie adaptive staircase builder,,2026.1.3,59.98033844503508,2026-04-14 10h23.18.296943 +0200,
4.5,ecc10pos,left,46,0,46,j,1,4.083823700000266,None,0,0,0,0,46,0,46,0,1002.3801338000001,,,,,,,,,,,,,,,1002.3699024999999,1002.3801338000001,1002.3801338000001,1002.3801338000001,1003.2659012000001,1006.4661559999997,j,1,4.083823700000266,None,direct,19,"[20, 18, 19, 18, 19, 18, 19, 17, 20, 18, 20, 19, 20, 13, 14, 13, 14, 12, 13, 12, 17, 15, 19]",23,shifteddirectgaze.png,j,1,1,results11,001,2026-04-14_10h23.18.042,mogelijke versie adaptive staircase builder,,2026.1.3,59.98033844503508,2026-04-14 10h23.18.296943 +0200,
4.5,ecc10pos,left,47,0,47,j,0,2.9148215999998683,None,0,0,0,0,47,0,47,0,1006.5570595000002,,,,,,,,,,,,,,,1006.5532971,1006.5570595000002,1006.5570595000002,1006.5570595000002,1007.466463,1009.4829978,j,0,2.9148215999998683,None,right,18,"[20, 18, 19, 18, 19, 18, 19, 17, 20, 18, 20, 19, 20, 13, 14, 13, 14, 12, 13, 12, 17, 15, 19, 18]",24,shiftedgaze_R_18.png,j,0,1,results11,001,2026-04-14_10h23.18.042,mogelijke versie adaptive staircase builder,,2026.1.3,59.98033844503508,2026-04-14 10h23.18.296943 +0200,
4.5,ecc10pos,left,48,0,48,f,1,3.7512007999998787,None,0,0,0,0,48,0,48,0,1009.5845019999999,,,,,,,,,,,,,,,1009.5737302999999,1009.5845019999999,1009.5845019999999,1009.5845019999999,1010.4825445999998,1013.3494202999998,f,1,3.7512007999998787,None,right,19,"[20, 18, 19, 18, 19, 18, 19, 17, 20, 18, 20, 19, 20, 13, 14, 13, 14, 12, 13, 12, 17, 15, 19, 18, 19]",25,shiftedgaze_R_19.png,f,1,1,results11,001,2026-04-14_10h23.18.042,mogelijke versie adaptive staircase builder,,2026.1.3,59.98033844503508,2026-04-14 10h23.18.296943 +0200,
4.5,ecc10pos,left,49,0,49,j,1,2.142308999999841,None,0,0,0,0,49,0,49,0,1013.4493687000002,,,,,,,,,,,,,,,1013.4395999000001,1013.4493687000002,1013.4493687000002,1013.4493687000002,1014.3492921999998,1015.5995427,j,1,2.142308999999841,None,direct,18,"[20, 18, 19, 18, 19, 18, 19, 17, 20, 18, 20, 19, 20, 13, 14, 13, 14, 12, 13, 12, 17, 15, 19, 18, 19]",25,shifteddirectgaze.png,j,1,1,results11,001,2026-04-14_10h23.18.042,mogelijke versie adaptive staircase builder,,2026.1.3,59.98033844503508,2026-04-14 10h23.18.296943 +0200,
4.5,ecc10pos,left,50,0,50,j,0,2.484200000000328,None,0,0,0,0,50,0,50,0,1015.7238491,,,,,,,,,,,,,,,1015.7104797,1015.7238491,1015.7238491,1015.7238491,1016.5993440999998,1018.2167707000001,j,0,2.484200000000328,None,left,17,"[20, 18, 19, 18, 19, 18, 19, 17, 20, 18, 20, 19, 20, 13, 14, 13, 14, 12, 13, 12, 17, 15, 19, 18, 19, 17]",26,shiftedgaze_L_17.png,j,0,1,results11,001,2026-04-14_10h23.18.042,mogelijke versie adaptive staircase builder,,2026.1.3,59.98033844503508,2026-04-14 10h23.18.296943 +0200,
4.5,ecc10pos,left,51,0,51,j,1,3.8690757999997913,None,0,0,0,0,51,0,51,0,1018.3146595999999,,,,,,,,,,,,,,,1018.3042708999999,1018.3146595999999,1018.3146595999999,1018.3146595999999,1019.2326753999998,1022.2000464999999,j,1,3.8690757999997913,None,direct,18,"[20, 18, 19, 18, 19, 18, 19, 17, 20, 18, 20, 19, 20, 13, 14, 13, 14, 12, 13, 12, 17, 15, 19, 18, 19, 17, 18]",27,shifteddirectgaze.png,j,1,1,results11,001,2026-04-14_10h23.18.042,mogelijke versie adaptive staircase builder,,2026.1.3,59.98033844503508,2026-04-14 10h23.18.296943 +0200,
4.5,ecc10pos,left,52,0,52,f,1,3.6496275999998034,None,0,0,0,0,52,0,52,0,1022.2945425999999,,,,,,,,,,,,,,,1022.2848673999999,1022.2945425999999,1022.2945425999999,1022.2945425999999,1023.2159794000002,1025.9500587,f,1,3.6496275999998034,None,left,17,"[20, 18, 19, 18, 19, 18, 19, 17, 20, 18, 20, 19, 20, 13, 14, 13, 14, 12, 13, 12, 17, 15, 19, 18, 19, 17, 18]",27,shiftedgaze_L_17.png,f,1,1,results11,001,2026-04-14_10h23.18.042,mogelijke versie adaptive staircase builder,,2026.1.3,59.98033844503508,2026-04-14 10h23.18.296943 +0200,
4.5,ecc10pos,left,53,0,53,j,0,1.6074194000002535,None,0,0,0,0,53,0,53,0,1026.0483044,,,,,,,,,,,,,,,1026.0386835000002,1026.0483044,1026.0483044,1026.0483044,1026.9497132999998,1027.6661191,j,0,1.6074194000002535,None,right,16,"[20, 18, 19, 18, 19, 18, 19, 17, 20, 18, 20, 19, 20, 13, 14, 13, 14, 12, 13, 12, 17, 15, 19, 18, 19, 17, 18, 16]",28,shiftedgaze_R_16.png,j,0,1,results11,001,2026-04-14_10h23.18.042,mogelijke versie adaptive staircase builder,,2026.1.3,59.98033844503508,2026-04-14 10h23.18.296943 +0200,
4.5,ecc10pos,left,54,0,54,j,1,2.360686900000019,None,0,0,0,0,54,0,54,0,1027.7515295,,,,,,,,,,,,,,,1027.7475361999998,1027.7515295,1027.7515295,1027.7515295,1028.6657819999998,1030.1165196,j,1,2.360686900000019,None,direct,17,"[20, 18, 19, 18, 19, 18, 19, 17, 20, 18, 20, 19, 20, 13, 14, 13, 14, 12, 13, 12, 17, 15, 19, 18, 19, 17, 18, 16, 17]",29,shifteddirectgaze.png,j,1,1,results11,001,2026-04-14_10h23.18.042,mogelijke versie adaptive staircase builder,,2026.1.3,59.98033844503508,2026-04-14 10h23.18.296943 +0200,
4.5,ecc10pos,left,55,0,55,j,1,2.8326435999997557,None,0,0,0,0,55,0,55,0,1030.1995792,,,,,,,,,,,,,,,1030.1954116999998,1030.1995792,1030.1995792,1030.1995792,1031.1164207999998,1033.0334657,j,1,2.8326435999997557,None,direct,16,"[20, 18, 19, 18, 19, 18, 19, 17, 20, 18, 20, 19, 20, 13, 14, 13, 14, 12, 13, 12, 17, 15, 19, 18, 19, 17, 18, 16, 17]",29,shifteddirectgaze.png,j,1,1,results11,001,2026-04-14_10h23.18.042,mogelijke versie adaptive staircase builder,,2026.1.3,59.98033844503508,2026-04-14 10h23.18.296943 +0200,
4.5,ecc10pos,left,56,0,56,f,1,2.9792443000001185,None,0,0,0,0,56,0,56,0,1033.1329001000001,,,,,,,,,,,,,,,1033.1232318,1033.1329001000001,1033.1329001000001,1033.1329001000001,1034.0492606,1036.1165706,f,1,2.9792443000001185,None,left,15,"[20, 18, 19, 18, 19, 18, 19, 17, 20, 18, 20, 19, 20, 13, 14, 13, 14, 12, 13, 12, 17, 15, 19, 18, 19, 17, 18, 16, 17]",29,shiftedgaze_L_15.png,f,1,1,results11,001,2026-04-14_10h23.18.042,mogelijke versie adaptive staircase builder,,2026.1.3,59.98033844503508,2026-04-14 10h23.18.296943 +0200,
4.5,ecc10pos,left,57,0,57,f,1,2.6618579999999383,None,0,0,0,0,57,0,57,0,1036.2181871999999,,,,,,,,,,,,,,,1036.2087005,1036.2181871999999,1036.2181871999999,1036.2181871999999,1037.1161925999997,1038.8830043,f,1,2.6618579999999383,None,left,14,"[20, 18, 19, 18, 19, 18, 19, 17, 20, 18, 20, 19, 20, 13, 14, 13, 14, 12, 13, 12, 17, 15, 19, 18, 19, 17, 18, 16, 17]",29,shiftedgaze_L_14.png,f,1,1,results11,001,2026-04-14_10h23.18.042,mogelijke versie adaptive staircase builder,,2026.1.3,59.98033844503508,2026-04-14 10h23.18.296943 +0200,
4.5,ecc10pos,left,58,0,58,j,1,2.0331601000002593,None,0,0,0,0,58,0,58,0,1038.9666406999997,,,,,,,,,,,,,,,1038.9627268000002,1038.9666406999997,1038.9666406999997,1038.9666406999997,1039.8825469,1041.0002871,j,1,2.0331601000002593,None,direct,13,"[20, 18, 19, 18, 19, 18, 19, 17, 20, 18, 20, 19, 20, 13, 14, 13, 14, 12, 13, 12, 17, 15, 19, 18, 19, 17, 18, 16, 17]",29,shifteddirectgaze.png,j,1,1,results11,001,2026-04-14_10h23.18.042,mogelijke versie adaptive staircase builder,,2026.1.3,59.98033844503508,2026-04-14 10h23.18.296943 +0200,
4.5,ecc10pos,left,59,0,59,f,1,2.309399300000223,None,0,0,0,0,59,0,59,0,1041.0901651000001,,,,,,,,,,,,,,,1041.0861524999998,1041.0901651000001,1041.0901651000001,1041.0901651000001,1042.0160574999998,1043.3997372000001,f,1,2.309399300000223,None,left,12,"[20, 18, 19, 18, 19, 18, 19, 17, 20, 18, 20, 19, 20, 13, 14, 13, 14, 12, 13, 12, 17, 15, 19, 18, 19, 17, 18, 16, 17]",29,shiftedgaze_L_12.png,f,1,1,results11,001,2026-04-14_10h23.18.042,mogelijke versie adaptive staircase builder,,2026.1.3,59.98033844503508,2026-04-14 10h23.18.296943 +0200,
4.5,ecc10pos,left,0,0,0,,,,,0,0,0,0,,,,,,,,,,,,,,,,,,,,,,,,,,,,,,,,,,,,,,results11,001,2026-04-14_10h23.18.042,mogelijke versie adaptive staircase builder,,2026.1.3,59.98033844503508,2026-04-14 10h23.18.296943 +0200,
12.5,ecc0,mid,0,0,0,f,0,3.133664899999985,None,0,1,1,1,0,0,0,0,1043.5061279999998,,,,,,,,,,,,,1043.416617,1043.4166597,1043.5021964999999,1043.5061279999998,1044.4161612,1043.5061279999998,1043.5061279999998,1046.6496762999998,f,0,3.133664899999985,None,direct,20,[],0,direct_gaze.png,f,0,2,results11,001,2026-04-14_10h23.18.042,mogelijke versie adaptive staircase builder,,2026.1.3,59.98033844503508,2026-04-14 10h23.18.296943 +0200,
12.5,ecc0,mid,1,0,1,f,1,1.9787663000001885,None,0,1,1,1,1,0,1,0,1046.7409056,,,,,,,,,,,,,,,1046.7368949,1046.7409056,1047.6496684,1046.7409056,1046.7409056,1048.7329311,f,1,1.9787663000001885,None,left,20,[20],1,gaze_L_20.png,f,1,2,results11,001,2026-04-14_10h23.18.042,mogelijke versie adaptive staircase builder,,2026.1.3,59.98033844503508,2026-04-14 10h23.18.296943 +0200,
12.5,ecc0,mid,2,0,2,f,1,3.1983804999999847,None,0,1,1,1,2,0,2,0,1048.8252937,,,,,,,,,,,,,,,1048.8212385,1048.8252937,1049.7327302,1048.8252937,1048.8252937,1052.0329625000002,f,1,3.1983804999999847,None,right,19,[20],1,gaze_R_19.png,f,1,2,results11,001,2026-04-14_10h23.18.042,mogelijke versie adaptive staircase builder,,2026.1.3,59.98033844503508,2026-04-14 10h23.18.296943 +0200,
12.5,ecc0,mid,3,0,3,j,0,1.8595561000001908,None,0,1,1,1,3,0,3,0,1052.1240443,,,,,,,,,,,,,,,1052.1198355999998,1052.1240443,1053.0326570999998,1052.1240443,1052.1240443,1053.9995873,j,0,1.8595561000001908,None,right,18,"[20, 18]",2,gaze_R_18.png,j,0,2,results11,001,2026-04-14_10h23.18.042,mogelijke versie adaptive staircase builder,,2026.1.3,59.98033844503508,2026-04-14 10h23.18.296943 +0200,
12.5,ecc0,mid,4,0,4,j,0,2.236468000000059,None,0,1,1,1,4,0,4,0,1054.0911435,,,,,,,,,,,,,,,1054.0874265,1054.0911435,1054.9998088999998,1054.0911435,1054.0911435,1056.332917,j,0,2.236468000000059,None,left,19,"[20, 18]",2,gaze_L_19.png,j,0,2,results11,001,2026-04-14_10h23.18.042,mogelijke versie adaptive staircase builder,,2026.1.3,59.98033844503508,2026-04-14 10h23.18.296943 +0200,
12.5,ecc0,mid,5,0,5,f,1,2.4855004999999437,None,0,1,1,1,5,0,5,0,1056.4181806999998,,,,,,,,,,,,,,,1056.4137976999998,1056.4181806999998,1057.3327381000001,1056.4181806999998,1056.4181806999998,1058.9161871999997,f,1,2.4855004999999437,None,left,20,"[20, 18, 20]",3,gaze_L_20.png,f,1,2,results11,001,2026-04-14_10h23.18.042,mogelijke versie adaptive staircase builder,,2026.1.3,59.98033844503508,2026-04-14 10h23.18.296943 +0200,
12.5,ecc0,mid,6,0,6,j,1,2.709583500000008,None,0,1,1,1,6,0,6,0,1059.0020477,,,,,,,,,,,,,,,1058.9980076999998,1059.0020477,1059.9162929000001,1059.0020477,1059.0020477,1061.7164448,j,1,2.709583500000008,None,direct,19,"[20, 18, 20]",3,direct_gaze.png,j,1,2,results11,001,2026-04-14_10h23.18.042,mogelijke versie adaptive staircase builder,,2026.1.3,59.98033844503508,2026-04-14 10h23.18.296943 +0200,
12.5,ecc0,mid,7,0,7,j,0,2.008841200000006,None,0,1,1,1,7,0,7,0,1062.1508557999998,,,,,,,,,,,,,,,1062.1465845,1062.1508557999998,1062.7159675,1062.1508557999998,1062.1508557999998,1064.1662172999997,j,0,2.008841200000006,None,left,18,"[20, 18, 20, 18]",4,gaze_L_18.png,j,0,2,results11,001,2026-04-14_10h23.18.042,mogelijke versie adaptive staircase builder,,2026.1.3,59.98033844503508,2026-04-14 10h23.18.296943 +0200,
12.5,ecc0,mid,8,0,8,j,1,3.407738100000188,None,0,1,1,1,8,0,8,0,1064.2479124999998,,,,,,,,,,,,,,,1064.2437164,1064.2479124999998,1065.1665449,1064.2479124999998,1064.2479124999998,1067.6661289,j,1,3.407738100000188,None,direct,19,"[20, 18, 20, 18, 19]",5,direct_gaze.png,j,1,2,results11,001,2026-04-14_10h23.18.042,mogelijke versie adaptive staircase builder,,2026.1.3,59.98033844503508,2026-04-14 10h23.18.296943 +0200,
12.5,ecc0,mid,9,0,9,j,1,2.499159800000143,None,0,1,1,1,9,0,9,0,1067.748868,,,,,,,,,,,,,,,1067.7449816,1067.748868,1068.6659683999999,1067.748868,1067.748868,1070.2503599999998,j,1,2.499159800000143,None,direct,18,"[20, 18, 20, 18, 19]",5,direct_gaze.png,j,1,2,results11,001,2026-04-14_10h23.18.042,mogelijke versie adaptive staircase builder,,2026.1.3,59.98033844503508,2026-04-14 10h23.18.296943 +0200,
12.5,ecc0,mid,10,0,10,f,1,2.658578999999918,None,0,1,1,1,10,0,10,0,1070.4451363,,,,,,,,,,,,,,,1070.4410480999998,1070.4451363,1071.2497053,1070.4451363,1070.4451363,1073.1162560999999,f,1,2.658578999999918,None,right,17,"[20, 18, 20, 18, 19]",5,gaze_R_17.png,f,1,2,results11,001,2026-04-14_10h23.18.042,mogelijke versie adaptive staircase builder,,2026.1.3,59.98033844503508,2026-04-14 10h23.18.296943 +0200,
12.5,ecc0,mid,11,0,11,j,1,2.537393400000383,None,0,1,1,1,11,0,11,0,1073.1981853999998,,,,,,,,,,,,,,,1073.1943202999998,1073.1981853999998,1074.1166597999998,1073.1981853999998,1073.1981853999998,1075.7495304000001,j,1,2.537393400000383,None,direct,16,"[20, 18, 20, 18, 19]",5,direct_gaze.png,j,1,2,results11,001,2026-04-14_10h23.18.042,mogelijke versie adaptive staircase builder,,2026.1.3,59.98033844503508,2026-04-14 10h23.18.296943 +0200,
12.5,ecc0,mid,12,0,12,j,0,1.7755606000000625,None,0,1,1,1,12,0,12,0,1075.8401483999999,,,,,,,,,,,,,,,1075.8360786,1075.8401483999999,1076.7493235,1075.8401483999999,1075.8401483999999,1077.6161227,j,0,1.7755606000000625,None,left,15,"[20, 18, 20, 18, 19, 15]",6,gaze_L_15.png,j,0,2,results11,001,2026-04-14_10h23.18.042,mogelijke versie adaptive staircase builder,,2026.1.3,59.98033844503508,2026-04-14 10h23.18.296943 +0200,
12.5,ecc0,mid,13,0,13,f,1,2.5742193000000952,None,0,1,1,1,13,0,13,0,1077.705494,,,,,,,,,,,,,,,1077.7015390999998,1077.705494,1078.6159206999998,1077.705494,1077.705494,1080.2828207,f,1,2.5742193000000952,None,right,16,"[20, 18, 20, 18, 19, 15, 16]",7,gaze_R_16.png,f,1,2,results11,001,2026-04-14_10h23.18.042,mogelijke versie adaptive staircase builder,,2026.1.3,59.98033844503508,2026-04-14 10h23.18.296943 +0200,
12.5,ecc0,mid,14,0,14,j,0,2.490538000000015,None,0,1,1,1,14,0,14,0,1080.3735404000001,,,,,,,,,,,,,,,1080.3694312999999,1080.3735404000001,1081.2832065,1080.3735404000001,1080.3735404000001,1082.8666556,j,0,2.490538000000015,None,right,15,"[20, 18, 20, 18, 19, 15, 16, 15]",8,gaze_R_15.png,j,0,2,results11,001,2026-04-14_10h23.18.042,mogelijke versie adaptive staircase builder,,2026.1.3,59.98033844503508,2026-04-14 10h23.18.296943 +0200,
12.5,ecc0,mid,15,0,15,j,1,2.154468299999735,None,0,1,1,1,15,0,15,0,1082.9491959,,,,,,,,,,,,,,,1082.9450286,1082.9491959,1083.8660171,1082.9491959,1082.9491959,1085.1162928,j,1,2.154468299999735,None,direct,16,"[20, 18, 20, 18, 19, 15, 16, 15, 16]",9,direct_gaze.png,j,1,2,results11,001,2026-04-14_10h23.18.042,mogelijke versie adaptive staircase builder,,2026.1.3,59.98033844503508,2026-04-14 10h23.18.296943 +0200,
12.5,ecc0,mid,16,0,16,f,1,2.681518600000345,None,0,1,1,1,16,0,16,0,1085.1981604,,,,,,,,,,,,,,,1085.1942428999998,1085.1981604,1086.1165875,1085.1981604,1085.1981604,1087.8828663000002,f,1,2.681518600000345,None,right,15,"[20, 18, 20, 18, 19, 15, 16, 15, 16]",9,gaze_R_15.png,f,1,2,results11,001,2026-04-14_10h23.18.042,mogelijke versie adaptive staircase builder,,2026.1.3,59.98033844503508,2026-04-14 10h23.18.296943 +0200,
12.5,ecc0,mid,17,0,17,j,0,2.6358335999998417,None,0,1,1,1,17,0,17,0,1087.9718399,,,,,,,,,,,,,,,1087.9679516999997,1087.9718399,1088.8826108,1087.9718399,1087.9718399,1090.616193,j,0,2.6358335999998417,None,left,14,"[20, 18, 20, 18, 19, 15, 16, 15, 16, 14]",10,gaze_L_14.png,j,0,2,results11,001,2026-04-14_10h23.18.042,mogelijke versie adaptive staircase builder,,2026.1.3,59.98033844503508,2026-04-14 10h23.18.296943 +0200,
12.5,ecc0,mid,18,0,18,f,1,2.0292272000001503,None,0,1,1,1,18,0,18,0,1090.6988755,,,,,,,,,,,,,,,1090.6947662999999,1090.6988755,1091.6159718000001,1090.6988755,1090.6988755,1092.7334383999998,f,1,2.0292272000001503,None,right,15,"[20, 18, 20, 18, 19, 15, 16, 15, 16, 14, 15]",11,gaze_R_15.png,f,1,2,results11,001,2026-04-14_10h23.18.042,mogelijke versie adaptive staircase builder,,2026.1.3,59.98033844503508,2026-04-14 10h23.18.296943 +0200,
12.5,ecc0,mid,19,0,19,j,0,2.2485372000001007,None,0,1,1,1,19,0,19,0,1092.8152462,,,,,,,,,,,,,,,1092.8111769,1092.8152462,1093.7492921,1092.8152462,1092.8152462,1095.0668141999997,j,0,2.2485372000001007,None,left,14,"[20, 18, 20, 18, 19, 15, 16, 15, 16, 14, 15, 14]",12,gaze_L_14.png,j,0,2,results11,001,2026-04-14_10h23.18.042,mogelijke versie adaptive staircase builder,,2026.1.3,59.98033844503508,2026-04-14 10h23.18.296943 +0200,
12.5,ecc0,mid,20,0,20,j,0,1.9951381999999285,None,0,1,1,1,20,0,20,0,1095.1488938999998,,,,,,,,,,,,,,,1095.1449277999998,1095.1488938999998,1096.0828918,1095.1488938999998,1095.1488938999998,1097.1500267,j,0,1.9951381999999285,None,right,15,"[20, 18, 20, 18, 19, 15, 16, 15, 16, 14, 15, 14]",12,gaze_R_15.png,j,0,2,results11,001,2026-04-14_10h23.18.042,mogelijke versie adaptive staircase builder,,2026.1.3,59.98033844503508,2026-04-14 10h23.18.296943 +0200,
12.5,ecc0,mid,21,0,21,j,1,2.3841889000000265,None,0,1,1,1,21,0,21,0,1097.231512,,,,,,,,,,,,,,,1097.2276853,1097.231512,1098.1498937999997,1097.231512,1097.231512,1099.6162604999997,j,1,2.3841889000000265,None,direct,16,"[20, 18, 20, 18, 19, 15, 16, 15, 16, 14, 15, 14, 16]",13,direct_gaze.png,j,1,2,results11,001,2026-04-14_10h23.18.042,mogelijke versie adaptive staircase builder,,2026.1.3,59.98033844503508,2026-04-14 10h23.18.296943 +0200,
12.5,ecc0,mid,22,0,22,j,1,1.7251796000000468,None,0,1,1,1,22,0,22,0,1099.6989732,,,,,,,,,,,,,,,1099.6948584999998,1099.6989732,1100.6158241,1099.6989732,1099.6989732,1101.4331808999998,j,1,1.7251796000000468,None,direct,15,"[20, 18, 20, 18, 19, 15, 16, 15, 16, 14, 15, 14, 16]",13,direct_gaze.png,j,1,2,results11,001,2026-04-14_10h23.18.042,mogelijke versie adaptive staircase builder,,2026.1.3,59.98033844503508,2026-04-14 10h23.18.296943 +0200,
12.5,ecc0,mid,23,0,23,j,0,1.6281371000000036,None,0,1,1,1,23,0,23,0,1101.5155938,,,,,,,,,,,,,,,1101.511088,1101.5155938,1102.4326162,1101.5155938,1101.5155938,1103.1494568,j,0,1.6281371000000036,None,left,14,"[20, 18, 20, 18, 19, 15, 16, 15, 16, 14, 15, 14, 16, 14]",14,gaze_L_14.png,j,0,2,results11,001,2026-04-14_10h23.18.042,mogelijke versie adaptive staircase builder,,2026.1.3,59.98033844503508,2026-04-14 10h23.18.296943 +0200,
12.5,ecc0,mid,24,0,24,f,1,2.048593399999845,None,0,1,1,1,24,0,24,0,1103.2314958,,,,,,,,,,,,,,,1103.2276587,1103.2314958,1104.1497960999998,1103.2314958,1103.2314958,1105.2833870000002,f,1,2.048593399999845,None,right,15,"[20, 18, 20, 18, 19, 15, 16, 15, 16, 14, 15, 14, 16, 14, 15]",15,gaze_R_15.png,f,1,2,results11,001,2026-04-14_10h23.18.042,mogelijke versie adaptive staircase builder,,2026.1.3,59.98033844503508,2026-04-14 10h23.18.296943 +0200,
12.5,ecc0,mid,25,0,25,j,1,2.2983195000001615,None,0,1,1,1,25,0,25,0,1105.3658905999998,,,,,,,,,,,,,,,1105.3619797999997,1105.3658905999998,1106.2831318,1105.3658905999998,1105.3658905999998,1107.6663698,j,1,2.2983195000001615,None,direct,14,"[20, 18, 20, 18, 19, 15, 16, 15, 16, 14, 15, 14, 16, 14, 15]",15,direct_gaze.png,j,1,2,results11,001,2026-04-14_10h23.18.042,mogelijke versie adaptive staircase builder,,2026.1.3,59.98033844503508,2026-04-14 10h23.18.296943 +0200,
12.5,ecc0,mid,26,0,26,j,0,1.7419138999998722,None,0,1,1,1,26,0,26,0,1108.1221807,,,,,,,,,,,,,,,1108.1180633000001,1108.1221807,1108.6658758,1108.1221807,1108.1221807,1109.8665976,j,0,1.7419138999998722,None,right,13,"[20, 18, 20, 18, 19, 15, 16, 15, 16, 14, 15, 14, 16, 14, 15, 13]",16,gaze_R_13.png,j,0,2,results11,001,2026-04-14_10h23.18.042,mogelijke versie adaptive staircase builder,,2026.1.3,59.98033844503508,2026-04-14 10h23.18.296943 +0200,
12.5,ecc0,mid,27,0,27,j,0,2.1392480999998043,None,0,1,1,1,27,0,27,0,1109.9488562,,,,,,,,,,,,,,,1109.9448685999998,1109.9488562,1110.8664274999999,1109.9488562,1109.9488562,1112.0997174000001,j,0,2.1392480999998043,None,left,14,"[20, 18, 20, 18, 19, 15, 16, 15, 16, 14, 15, 14, 16, 14, 15, 13]",16,gaze_L_14.png,j,0,2,results11,001,2026-04-14_10h23.18.042,mogelijke versie adaptive staircase builder,,2026.1.3,59.98033844503508,2026-04-14 10h23.18.296943 +0200,
12.5,ecc0,mid,28,0,28,j,1,1.929988300000332,None,0,1,1,1,28,0,28,0,1112.1820337000001,,,,,,,,,,,,,,,1112.1781445999998,1112.1820337000001,1113.0997615999997,1112.1820337000001,1112.1820337000001,1114.1167377999998,j,1,1.929988300000332,None,direct,15,"[20, 18, 20, 18, 19, 15, 16, 15, 16, 14, 15, 14, 16, 14, 15, 13, 15]",17,direct_gaze.png,j,1,2,results11,001,2026-04-14_10h23.18.042,mogelijke versie adaptive staircase builder,,2026.1.3,59.98033844503508,2026-04-14 10h23.18.296943 +0200,
12.5,ecc0,mid,29,0,29,j,0,2.1870018999998138,None,0,1,1,1,29,0,29,0,1114.2128093,,,,,,,,,,,,,,,1114.2087909,1114.2128093,1115.1162861999999,1114.2128093,1114.2128093,1116.4001096,j,0,2.1870018999998138,None,right,14,"[20, 18, 20, 18, 19, 15, 16, 15, 16, 14, 15, 14, 16, 14, 15, 13, 15, 14]",18,gaze_R_14.png,j,0,2,results11,001,2026-04-14_10h23.18.042,mogelijke versie adaptive staircase builder,,2026.1.3,59.98033844503508,2026-04-14 10h23.18.296943 +0200,
12.5,ecc0,mid,30,0,30,f,1,1.8685797999996794,None,0,1,1,1,30,0,30,0,1116.4831842,,,,,,,,,,,,,,,1116.4788397999998,1116.4831842,1117.4160092,1116.4831842,1116.4831842,1118.3663040999998,f,1,1.8685797999996794,None,right,15,"[20, 18, 20, 18, 19, 15, 16, 15, 16, 14, 15, 14, 16, 14, 15, 13, 15, 14, 15]",19,gaze_R_15.png,f,1,2,results11,001,2026-04-14_10h23.18.042,mogelijke versie adaptive staircase builder,,2026.1.3,59.98033844503508,2026-04-14 10h23.18.296943 +0200,
12.5,ecc0,mid,31,0,31,f,0,1.8361860999998498,None,0,1,1,1,31,0,31,0,1118.4517296000001,,,,,,,,,,,,,,,1118.4477083,1118.4517296000001,1119.3661313999999,1118.4517296000001,1118.4517296000001,1120.3000467999998,f,0,1.8361860999998498,None,direct,14,"[20, 18, 20, 18, 19, 15, 16, 15, 16, 14, 15, 14, 16, 14, 15, 13, 15, 14, 15, 14]",20,direct_gaze.png,f,0,2,results11,001,2026-04-14_10h23.18.042,mogelijke versie adaptive staircase builder,,2026.1.3,59.98033844503508,2026-04-14 10h23.18.296943 +0200,
12.5,ecc0,mid,32,0,32,f,1,2.271752800000286,None,0,1,1,1,32,0,32,0,1120.3839808,,,,,,,,,,,,,,,1120.3800601,1120.3839808,1121.2992957999998,1120.3839808,1120.3839808,1122.6661173999998,f,1,2.271752800000286,None,right,15,"[20, 18, 20, 18, 19, 15, 16, 15, 16, 14, 15, 14, 16, 14, 15, 13, 15, 14, 15, 14, 15]",21,gaze_R_15.png,f,1,2,results11,001,2026-04-14_10h23.18.042,mogelijke versie adaptive staircase builder,,2026.1.3,59.98033844503508,2026-04-14 10h23.18.296943 +0200,
12.5,ecc0,mid,33,0,33,j,0,2.1626891000000796,None,0,1,1,1,33,0,33,0,1122.749177,,,,,,,,,,,,,,,1122.7451693,1122.749177,1123.6658934999998,1122.749177,1122.749177,1124.9163044,j,0,2.1626891000000796,None,left,14,"[20, 18, 20, 18, 19, 15, 16, 15, 16, 14, 15, 14, 16, 14, 15, 13, 15, 14, 15, 14, 15, 14]",22,gaze_L_14.png,j,0,2,results11,001,2026-04-14_10h23.18.042,mogelijke versie adaptive staircase builder,,2026.1.3,59.98033844503508,2026-04-14 10h23.18.296943 +0200,
12.5,ecc0,mid,34,0,34,j,1,2.4337375000000065,None,0,1,1,1,34,0,34,0,1124.9981344,,,,,,,,,,,,,,,1124.9943634999997,1124.9981344,1125.9160023000002,1124.9981344,1124.9981344,1127.4332695,j,1,2.4337375000000065,None,direct,15,"[20, 18, 20, 18, 19, 15, 16, 15, 16, 14, 15, 14, 16, 14, 15, 13, 15, 14, 15, 14, 15, 14, 15]",23,direct_gaze.png,j,1,2,results11,001,2026-04-14_10h23.18.042,mogelijke versie adaptive staircase builder,,2026.1.3,59.98033844503508,2026-04-14 10h23.18.296943 +0200,
12.5,ecc0,mid,35,0,35,f,1,2.0361315000000104,None,0,1,1,1,35,0,35,0,1127.5160276,,,,,,,,,,,,,,,1127.5120381,1127.5160276,1128.4330658000001,1127.5160276,1127.5160276,1129.5666623999998,f,1,2.0361315000000104,None,right,14,"[20, 18, 20, 18, 19, 15, 16, 15, 16, 14, 15, 14, 16, 14, 15, 13, 15, 14, 15, 14, 15, 14, 15]",23,gaze_R_14.png,f,1,2,results11,001,2026-04-14_10h23.18.042,mogelijke versie adaptive staircase builder,,2026.1.3,59.98033844503508,2026-04-14 10h23.18.296943 +0200,
12.5,ecc0,mid,36,0,36,j,0,2.076921299999867,None,0,1,1,1,36,0,36,0,1130.0192037,,,,,,,,,,,,,,,1130.0152142,1130.0192037,1130.5664705000002,1130.0192037,1130.0192037,1132.0999392,j,0,2.076921299999867,None,left,13,"[20, 18, 20, 18, 19, 15, 16, 15, 16, 14, 15, 14, 16, 14, 15, 13, 15, 14, 15, 14, 15, 14, 15, 13]",24,gaze_L_13.png,j,0,2,results11,001,2026-04-14_10h23.18.042,mogelijke versie adaptive staircase builder,,2026.1.3,59.98033844503508,2026-04-14 10h23.18.296943 +0200,
12.5,ecc0,mid,37,0,37,f,0,2.77759049999986,None,0,1,1,1,37,0,37,0,1132.1823094999997,,,,,,,,,,,,,,,1132.1782944,1132.1823094999997,1133.0995722999999,1132.1823094999997,1132.1823094999997,1134.9667075,f,0,2.77759049999986,None,direct,14,"[20, 18, 20, 18, 19, 15, 16, 15, 16, 14, 15, 14, 16, 14, 15, 13, 15, 14, 15, 14, 15, 14, 15, 13]",24,direct_gaze.png,f,0,2,results11,001,2026-04-14_10h23.18.042,mogelijke versie adaptive staircase builder,,2026.1.3,59.98033844503508,2026-04-14 10h23.18.296943 +0200,
12.5,ecc0,mid,38,0,38,f,1,2.3091577000000143,None,0,1,1,1,38,0,38,0,1135.0505796999998,,,,,,,,,,,,,,,1135.0466232,1135.0505796999998,1135.9664486,1135.0505796999998,1135.0505796999998,1137.3662263999997,f,1,2.3091577000000143,None,right,15,"[20, 18, 20, 18, 19, 15, 16, 15, 16, 14, 15, 14, 16, 14, 15, 13, 15, 14, 15, 14, 15, 14, 15, 13, 15]",25,gaze_R_15.png,f,1,2,results11,001,2026-04-14_10h23.18.042,mogelijke versie adaptive staircase builder,,2026.1.3,59.98033844503508,2026-04-14 10h23.18.296943 +0200,
12.5,ecc0,mid,39,0,39,j,0,2.4869611999997687,None,0,1,1,1,39,0,39,0,1137.4488046,,,,,,,,,,,,,,,1137.4447394000001,1137.4488046,1138.3662339,1137.4488046,1137.4488046,1139.9493916999998,j,0,2.4869611999997687,None,left,14,"[20, 18, 20, 18, 19, 15, 16, 15, 16, 14, 15, 14, 16, 14, 15, 13, 15, 14, 15, 14, 15, 14, 15, 13, 15, 14]",26,gaze_L_14.png,j,0,2,results11,001,2026-04-14_10h23.18.042,mogelijke versie adaptive staircase builder,,2026.1.3,59.98033844503508,2026-04-14 10h23.18.296943 +0200,
12.5,ecc0,mid,40,0,40,f,0,2.293739000000187,None,0,1,1,1,40,0,40,0,1140.0344546999997,,,,,,,,,,,,,,,1140.0304942,1140.0344546999997,1140.9497337,1140.0344546999997,1140.0344546999997,1142.3333890000001,f,0,2.293739000000187,None,direct,15,"[20, 18, 20, 18, 19, 15, 16, 15, 16, 14, 15, 14, 16, 14, 15, 13, 15, 14, 15, 14, 15, 14, 15, 13, 15, 14]",26,direct_gaze.png,f,0,2,results11,001,2026-04-14_10h23.18.042,mogelijke versie adaptive staircase builder,,2026.1.3,59.98033844503508,2026-04-14 10h23.18.296943 +0200,
12.5,ecc0,mid,41,0,41,j,0,2.395288800000344,None,0,1,1,1,41,0,41,0,1142.8128095,,,,,,,,,,,,,,,1142.8085973,1142.8128095,1143.3330300999999,1142.8128095,1142.8128095,1145.2167941999999,j,0,2.395288800000344,None,left,16,"[20, 18, 20, 18, 19, 15, 16, 15, 16, 14, 15, 14, 16, 14, 15, 13, 15, 14, 15, 14, 15, 14, 15, 13, 15, 14]",26,gaze_L_16.png,j,0,2,results11,001,2026-04-14_10h23.18.042,mogelijke versie adaptive staircase builder,,2026.1.3,59.98033844503508,2026-04-14 10h23.18.296943 +0200,
12.5,ecc0,mid,42,0,42,j,0,1.4912930000000415,None,0,1,1,1,42,0,42,0,1145.3488417,,,,,,,,,,,,,,,1145.3446726999998,1145.3488417,1146.2158812,1145.3488417,1145.3488417,1146.8500963,j,0,1.4912930000000415,None,left,17,"[20, 18, 20, 18, 19, 15, 16, 15, 16, 14, 15, 14, 16, 14, 15, 13, 15, 14, 15, 14, 15, 14, 15, 13, 15, 14]",26,gaze_L_17.png,j,0,2,results11,001,2026-04-14_10h23.18.042,mogelijke versie adaptive staircase builder,,2026.1.3,59.98033844503508,2026-04-14 10h23.18.296943 +0200,
12.5,ecc0,mid,43,0,43,j,1,1.7691126999998232,None,0,1,1,1,43,0,43,0,1146.9346216000001,,,,,,,,,,,,,,,1146.9305431999999,1146.9346216000001,1147.8664241999998,1146.9346216000001,1146.9346216000001,1148.7161156,j,1,1.7691126999998232,None,direct,18,"[20, 18, 20, 18, 19, 15, 16, 15, 16, 14, 15, 14, 16, 14, 15, 13, 15, 14, 15, 14, 15, 14, 15, 13, 15, 14, 18]",27,direct_gaze.png,j,1,2,results11,001,2026-04-14_10h23.18.042,mogelijke versie adaptive staircase builder,,2026.1.3,59.98033844503508,2026-04-14 10h23.18.296943 +0200,
12.5,ecc0,mid,44,0,44,j,0,3.0551267999999254,None,0,1,1,1,44,0,44,0,1148.8009826999998,,,,,,,,,,,,,,,1148.7967983,1148.8009826999998,1149.7161315,1148.8009826999998,1148.8009826999998,1151.8667002,j,0,3.0551267999999254,None,left,17,"[20, 18, 20, 18, 19, 15, 16, 15, 16, 14, 15, 14, 16, 14, 15, 13, 15, 14, 15, 14, 15, 14, 15, 13, 15, 14, 18, 17]",28,gaze_L_17.png,j,0,2,results11,001,2026-04-14_10h23.18.042,mogelijke versie adaptive staircase builder,,2026.1.3,59.98033844503508,2026-04-14 10h23.18.296943 +0200,
12.5,ecc0,mid,45,0,45,j,1,2.737015799999881,None,0,1,1,1,45,0,45,0,1151.9507781999998,,,,,,,,,,,,,,,1151.9467039999997,1151.9507781999998,1152.8664207999998,1151.9507781999998,1151.9507781999998,1154.6998545999998,j,1,2.737015799999881,None,direct,18,"[20, 18, 20, 18, 19, 15, 16, 15, 16, 14, 15, 14, 16, 14, 15, 13, 15, 14, 15, 14, 15, 14, 15, 13, 15, 14, 18, 17, 18]",29,direct_gaze.png,j,1,2,results11,001,2026-04-14_10h23.18.042,mogelijke versie adaptive staircase builder,,2026.1.3,59.98033844503508,2026-04-14 10h23.18.296943 +0200,
12.5,ecc0,mid,46,0,46,f,1,2.5822495999996136,None,0,1,1,1,46,0,46,0,1154.7854921,,,,,,,,,,,,,,,1154.7815915999997,1154.7854921,1155.6993893000001,1154.7854921,1154.7854921,1157.3828771,f,1,2.5822495999996136,None,left,17,"[20, 18, 20, 18, 19, 15, 16, 15, 16, 14, 15, 14, 16, 14, 15, 13, 15, 14, 15, 14, 15, 14, 15, 13, 15, 14, 18, 17, 18]",29,gaze_L_17.png,f,1,2,results11,001,2026-04-14_10h23.18.042,mogelijke versie adaptive staircase builder,,2026.1.3,59.98033844503508,2026-04-14 10h23.18.296943 +0200,
12.5,ecc0,mid,47,0,47,f,1,2.7475471999996444,None,0,1,1,1,47,0,47,0,1157.4682933000001,,,,,,,,,,,,,,,1157.46428,1157.4682933000001,1158.3830725999999,1157.4682933000001,1157.4682933000001,1160.2166055,f,1,2.7475471999996444,None,right,16,"[20, 18, 20, 18, 19, 15, 16, 15, 16, 14, 15, 14, 16, 14, 15, 13, 15, 14, 15, 14, 15, 14, 15, 13, 15, 14, 18, 17, 18]",29,gaze_R_16.png,f,1,2,results11,001,2026-04-14_10h23.18.042,mogelijke versie adaptive staircase builder,,2026.1.3,59.98033844503508,2026-04-14 10h23.18.296943 +0200,
12.5,ecc0,mid,48,0,48,f,1,1.947071799999776,None,0,1,1,1,48,0,48,0,1160.3011574999998,,,,,,,,,,,,,,,1160.2970947000001,1160.3011574999998,1161.2165001,1160.3011574999998,1160.3011574999998,1162.2501805999998,f,1,1.947071799999776,None,right,15,"[20, 18, 20, 18, 19, 15, 16, 15, 16, 14, 15, 14, 16, 14, 15, 13, 15, 14, 15, 14, 15, 14, 15, 13, 15, 14, 18, 17, 18]",29,gaze_R_15.png,f,1,2,results11,001,2026-04-14_10h23.18.042,mogelijke versie adaptive staircase builder,,2026.1.3,59.98033844503508,2026-04-14 10h23.18.296943 +0200,
12.5,ecc0,mid,49,0,49,j,1,3.048656800000117,None,0,1,1,1,49,0,49,0,1162.3349417000002,,,,,,,,,,,,,,,1162.3308312000001,1162.3349417000002,1163.2660866999997,1162.3349417000002,1162.3349417000002,1165.3996022999997,j,1,3.048656800000117,None,direct,14,"[20, 18, 20, 18, 19, 15, 16, 15, 16, 14, 15, 14, 16, 14, 15, 13, 15, 14, 15, 14, 15, 14, 15, 13, 15, 14, 18, 17, 18]",29,direct_gaze.png,j,1,2,results11,001,2026-04-14_10h23.18.042,mogelijke versie adaptive staircase builder,,2026.1.3,59.98033844503508,2026-04-14 10h23.18.296943 +0200,
12.5,ecc0,mid,50,0,50,j,1,2.5161976999997933,None,0,1,1,1,50,0,50,0,1165.4835602,,,,,,,,,,,,,,,1165.4796637000002,1165.4835602,1166.3993717,1165.4835602,1165.4835602,1168.0162537999997,j,1,2.5161976999997933,None,direct,13,"[20, 18, 20, 18, 19, 15, 16, 15, 16, 14, 15, 14, 16, 14, 15, 13, 15, 14, 15, 14, 15, 14, 15, 13, 15, 14, 18, 17, 18]",29,direct_gaze.png,j,1,2,results11,001,2026-04-14_10h23.18.042,mogelijke versie adaptive staircase builder,,2026.1.3,59.98033844503508,2026-04-14 10h23.18.296943 +0200,
12.5,ecc0,mid,51,0,51,f,1,2.0984204000001228,None,0,1,1,1,51,0,51,0,1168.4692825,,,,,,,,,,,,,,,1168.4652666999998,1168.4692825,1169.0165885999997,1168.4692825,1168.4692825,1170.5828767,f,1,2.0984204000001228,None,right,12,"[20, 18, 20, 18, 19, 15, 16, 15, 16, 14, 15, 14, 16, 14, 15, 13, 15, 14, 15, 14, 15, 14, 15, 13, 15, 14, 18, 17, 18]",29,gaze_R_12.png,f,1,2,results11,001,2026-04-14_10h23.18.042,mogelijke versie adaptive staircase builder,,2026.1.3,59.98033844503508,2026-04-14 10h23.18.296943 +0200,
12.5,ecc0,mid,52,0,52,j,1,2.309207100000094,None,0,1,1,1,52,0,52,0,1170.6664017,,,,,,,,,,,,,,,1170.6623253,1170.6664017,1171.5826909999998,1170.6664017,1170.6664017,1172.9829812,j,1,2.309207100000094,None,direct,11,"[20, 18, 20, 18, 19, 15, 16, 15, 16, 14, 15, 14, 16, 14, 15, 13, 15, 14, 15, 14, 15, 14, 15, 13, 15, 14, 18, 17, 18]",29,direct_gaze.png,j,1,2,results11,001,2026-04-14_10h23.18.042,mogelijke versie adaptive staircase builder,,2026.1.3,59.98033844503508,2026-04-14 10h23.18.296943 +0200,
12.5,ecc0,mid,53,0,53,f,1,2.049713299999894,None,0,1,1,1,53,0,53,0,1173.0699601,,,,,,,,,,,,,,,1173.0661435999998,1173.0699601,1173.9827242,1173.0699601,1173.0699601,1175.1333588,f,1,2.049713299999894,None,right,10,"[20, 18, 20, 18, 19, 15, 16, 15, 16, 14, 15, 14, 16, 14, 15, 13, 15, 14, 15, 14, 15, 14, 15, 13, 15, 14, 18, 17, 18]",29,gaze_R_10.png,f,1,2,results11,001,2026-04-14_10h23.18.042,mogelijke versie adaptive staircase builder,,2026.1.3,59.98033844503508,2026-04-14 10h23.18.296943 +0200,
12.5,ecc0,mid,54,0,54,j,0,1.8255266999999549,None,0,1,1,1,54,0,54,0,1175.2223585999998,,,,,,,,,,,,,,,1175.2182893000002,1175.2223585999998,1176.1492895,1175.2223585999998,1175.2223585999998,1177.0494612,j,0,1.8255266999999549,None,left,9,"[20, 18, 20, 18, 19, 15, 16, 15, 16, 14, 15, 14, 16, 14, 15, 13, 15, 14, 15, 14, 15, 14, 15, 13, 15, 14, 18, 17, 18, 9]",30,gaze_L_9.png,j,0,2,results11,001,2026-04-14_10h23.18.042,mogelijke versie adaptive staircase builder,,2026.1.3,59.98033844503508,2026-04-14 10h23.18.296943 +0200,
12.5,ecc0,mid,55,0,55,f,1,1.9736018999997214,None,0,1,1,1,55,0,55,0,1177.1299157,,,,,,,,,,,,,,,1177.125875,1177.1299157,1178.0498835,1177.1299157,1177.1299157,1179.1162845000001,f,1,1.9736018999997214,None,right,10,"[20, 18, 20, 18, 19, 15, 16, 15, 16, 14, 15, 14, 16, 14, 15, 13, 15, 14, 15, 14, 15, 14, 15, 13, 15, 14, 18, 17, 18, 9, 10]",31,gaze_R_10.png,f,1,2,results11,001,2026-04-14_10h23.18.042,mogelijke versie adaptive staircase builder,,2026.1.3,59.98033844503508,2026-04-14 10h23.18.296943 +0200,
12.5,ecc0,mid,56,0,56,f,0,2.1533544999997503,None,0,1,1,1,56,0,56,0,1179.1983216,,,,,,,,,,,,,,,1179.1944133999998,1179.1983216,1180.1161994000001,1179.1983216,1179.1983216,1181.3662874,f,0,2.1533544999997503,None,direct,9,"[20, 18, 20, 18, 19, 15, 16, 15, 16, 14, 15, 14, 16, 14, 15, 13, 15, 14, 15, 14, 15, 14, 15, 13, 15, 14, 18, 17, 18, 9, 10, 9]",32,direct_gaze.png,f,0,2,results11,001,2026-04-14_10h23.18.042,mogelijke versie adaptive staircase builder,,2026.1.3,59.98033844503508,2026-04-14 10h23.18.296943 +0200,
12.5,ecc0,mid,57,0,57,f,1,1.879733899999792,None,0,1,1,1,57,0,57,0,1181.4480047999998,,,,,,,,,,,,,,,1181.4440247,1181.4480047999998,1182.3666304,1181.4480047999998,1181.4480047999998,1183.3331597999997,f,1,1.879733899999792,None,right,10,"[20, 18, 20, 18, 19, 15, 16, 15, 16, 14, 15, 14, 16, 14, 15, 13, 15, 14, 15, 14, 15, 14, 15, 13, 15, 14, 18, 17, 18, 9, 10, 9, 10]",33,gaze_R_10.png,f,1,2,results11,001,2026-04-14_10h23.18.042,mogelijke versie adaptive staircase builder,,2026.1.3,59.98033844503508,2026-04-14 10h23.18.296943 +0200,
12.5,ecc0,mid,58,0,58,f,1,1.684874900000068,None,0,1,1,1,58,0,58,0,1183.4347482,,,,,,,,,,,,,,,1183.4253078999998,1183.4347482,1184.3328165,1183.4347482,1183.4347482,1185.1328809999998,f,1,1.684874900000068,None,right,9,"[20, 18, 20, 18, 19, 15, 16, 15, 16, 14, 15, 14, 16, 14, 15, 13, 15, 14, 15, 14, 15, 14, 15, 13, 15, 14, 18, 17, 18, 9, 10, 9, 10]",33,gaze_R_9.png,f,1,2,results11,001,2026-04-14_10h23.18.042,mogelijke versie adaptive staircase builder,,2026.1.3,59.98033844503508,2026-04-14 10h23.18.296943 +0200,
12.5,ecc0,mid,59,0,59,f,0,1.8624745000001894,None,0,1,1,1,59,0,59,0,1185.2255555,,,,,,,,,,,,,,,1185.2158143999998,1185.2255555,1186.1331953000001,1185.2255555,1185.2255555,1187.0999134,f,0,1.8624745000001894,None,direct,8,"[20, 18, 20, 18, 19, 15, 16, 15, 16, 14, 15, 14, 16, 14, 15, 13, 15, 14, 15, 14, 15, 14, 15, 13, 15, 14, 18, 17, 18, 9, 10, 9, 10, 8]",34,direct_gaze.png,f,0,2,results11,001,2026-04-14_10h23.18.042,mogelijke versie adaptive staircase builder,,2026.1.3,59.98033844503508,2026-04-14 10h23.18.296943 +0200,
12.5,ecc0,mid,1,1,0,,,,,0,1,1,1,,,,,,,,,,,,,,,,,,,,,,,,,,,,,,,,,,,,,,results11,001,2026-04-14_10h23.18.042,mogelijke versie adaptive staircase builder,,2026.1.3,59.98033844503508,2026-04-14 10h23.18.296943 +0200,
20.5,ecc10neg,right,0,0,0,f,0,2.7360905000000457,None,0,2,2,2,0,0,0,0,1187.2003748,,,,,,,,,,,,,1187.1022547999999,1187.1022826,1187.1957144,1187.2003748,1187.2003748,1188.1159947999997,1187.2003748,1189.9501623999997,f,0,2.7360905000000457,None,direct,20,[],0,shifteddirectgaze.png,f,0,3,results11,001,2026-04-14_10h23.18.042,mogelijke versie adaptive staircase builder,,2026.1.3,59.98033844503508,2026-04-14 10h23.18.296943 +0200,
20.5,ecc10neg,right,1,0,1,j,0,2.9341345000002548,None,0,2,2,2,1,0,1,0,1190.0415913999998,,,,,,,,,,,,,,,1190.0368013,1190.0415913999998,1190.0415913999998,1190.966052,1190.0415913999998,1192.9837166,j,0,2.9341345000002548,None,left,20,[],0,shiftedgaze_L_20.png,j,0,3,results11,001,2026-04-14_10h23.18.042,mogelijke versie adaptive staircase builder,,2026.1.3,59.98033844503508,2026-04-14 10h23.18.296943 +0200,
20.5,ecc10neg,right,2,0,2,j,0,2.1703981999999087,None,0,2,2,2,2,0,2,0,1193.0696921,,,,,,,,,,,,,,,1193.0651821,1193.0696921,1193.0696921,1193.9831794,1193.0696921,1195.2499695,j,0,2.1703981999999087,None,left,20,[],0,shiftedgaze_L_20.png,j,0,3,results11,001,2026-04-14_10h23.18.042,mogelijke versie adaptive staircase builder,,2026.1.3,59.98033844503508,2026-04-14 10h23.18.296943 +0200,
20.5,ecc10neg,right,3,0,3,j,0,3.075006300000041,None,0,2,2,2,3,0,3,0,1195.3325367999998,,,,,,,,,,,,,,,1195.3285631,1195.3325367999998,1195.3325367999998,1196.2493966,1195.3325367999998,1198.4163052000001,j,0,3.075006300000041,None,left,20,[],0,shiftedgaze_L_20.png,j,0,3,results11,001,2026-04-14_10h23.18.042,mogelijke versie adaptive staircase builder,,2026.1.3,59.98033844503508,2026-04-14 10h23.18.296943 +0200,
20.5,ecc10neg,right,4,0,4,j,0,1.7657583999998678,None,0,2,2,2,4,0,4,0,1198.4979259,,,,,,,,,,,,,,,1198.4935794,1198.4979259,1198.4979259,1199.4160611,1198.4979259,1200.2662159,j,0,1.7657583999998678,None,left,20,[],0,shiftedgaze_L_20.png,j,0,3,results11,001,2026-04-14_10h23.18.042,mogelijke versie adaptive staircase builder,,2026.1.3,59.98033844503508,2026-04-14 10h23.18.296943 +0200,
20.5,ecc10neg,right,5,0,5,f,0,2.1880111000000397,None,0,2,2,2,5,0,5,0,1200.3480321999998,,,,,,,,,,,,,,,1200.3441577,1200.3480321999998,1200.3480321999998,1201.2659554999998,1200.3480321999998,1202.551549,f,0,2.1880111000000397,None,direct,20,[],0,shifteddirectgaze.png,f,0,3,results11,001,2026-04-14_10h23.18.042,mogelijke versie adaptive staircase builder,,2026.1.3,59.98033844503508,2026-04-14 10h23.18.296943 +0200,
20.5,ecc10neg,right,6,0,6,j,0,1.8537523999998484,None,0,2,2,2,6,0,6,0,1202.6338201,,,,,,,,,,,,,,,1202.6296599,1202.6338201,1202.6338201,1203.5660142,1202.6338201,1204.4995468,j,0,1.8537523999998484,None,left,20,[],0,shiftedgaze_L_20.png,j,0,3,results11,001,2026-04-14_10h23.18.042,mogelijke versie adaptive staircase builder,,2026.1.3,59.98033844503508,2026-04-14 10h23.18.296943 +0200,
20.5,ecc10neg,right,7,0,7,f,1,1.9541753999997127,None,0,2,2,2,7,0,7,0,1204.6059017,,,,,,,,,,,,,,,1204.5958709999998,1204.6059017,1204.6059017,1205.4994279999999,1204.6059017,1206.5668463999998,f,1,1.9541753999997127,None,right,20,[20],1,shiftedgaze_R_20.png,f,1,3,results11,001,2026-04-14_10h23.18.042,mogelijke versie adaptive staircase builder,,2026.1.3,59.98033844503508,2026-04-14 10h23.18.296943 +0200,
20.5,ecc10neg,right,8,0,8,j,0,2.189447300000211,None,0,2,2,2,8,0,8,0,1206.6661745999997,,,,,,,,,,,,,,,1206.6621733999998,1206.6661745999997,1206.6661745999997,1207.5831999999998,1206.6661745999997,1208.8662364,j,0,2.189447300000211,None,right,19,"[20, 19]",2,shiftedgaze_R_19.png,j,0,3,results11,001,2026-04-14_10h23.18.042,mogelijke versie adaptive staircase builder,,2026.1.3,59.98033844503508,2026-04-14 10h23.18.296943 +0200,
20.5,ecc10neg,right,9,0,9,f,0,3.0744285999999192,None,0,2,2,2,9,0,9,0,1208.9571247000001,,,,,,,,,,,,,,,1208.9469312999997,1208.9571247000001,1208.9571247000001,1209.8662762000001,1208.9571247000001,1212.0329163999997,f,0,3.0744285999999192,None,direct,20,"[20, 19]",2,shifteddirectgaze.png,f,0,3,results11,001,2026-04-14_10h23.18.042,mogelijke versie adaptive staircase builder,,2026.1.3,59.98033844503508,2026-04-14 10h23.18.296943 +0200,
20.5,ecc10neg,right,10,0,10,j,0,2.3723918999999114,None,0,2,2,2,10,0,10,0,1212.1312741999998,,,,,,,,,,,,,,,1212.1207928000001,1212.1312741999998,1212.1312741999998,1213.0327021,1212.1312741999998,1214.5162291999998,j,0,2.3723918999999114,None,right,20,"[20, 19]",2,shiftedgaze_R_20.png,j,0,3,results11,001,2026-04-14_10h23.18.042,mogelijke versie adaptive staircase builder,,2026.1.3,59.98033844503508,2026-04-14 10h23.18.296943 +0200,
20.5,ecc10neg,right,11,0,11,f,0,2.0829907000002095,None,0,2,2,2,11,0,11,0,1214.6126379,,,,,,,,,,,,,,,1214.6014343999998,1214.6126379,1214.6126379,1215.516413,1214.6126379,1216.6995375999998,f,0,2.0829907000002095,None,direct,20,"[20, 19]",2,shifteddirectgaze.png,f,0,3,results11,001,2026-04-14_10h23.18.042,mogelijke versie adaptive staircase builder,,2026.1.3,59.98033844503508,2026-04-14 10h23.18.296943 +0200,
20.5,ecc10neg,right,12,0,12,f,1,2.20799500000021,None,0,2,2,2,12,0,12,0,1216.7996802,,,,,,,,,,,,,,,1216.7890343000001,1216.7996802,1216.7996802,1217.699433,1216.7996802,1219.0162695000001,f,1,2.20799500000021,None,right,20,"[20, 19, 20]",3,shiftedgaze_R_20.png,f,1,3,results11,001,2026-04-14_10h23.18.042,mogelijke versie adaptive staircase builder,,2026.1.3,59.98033844503508,2026-04-14 10h23.18.296943 +0200,
20.5,ecc10neg,right,13,0,13,j,1,1.6750434999999015,None,0,2,2,2,13,0,13,0,1219.1086798,,,,,,,,,,,,,,,1219.0977242000001,1219.1086798,1219.1086798,1220.0160591000001,1219.1086798,1220.7994643,j,1,1.6750434999999015,None,direct,19,"[20, 19, 20]",3,shifteddirectgaze.png,j,1,3,results11,001,2026-04-14_10h23.18.042,mogelijke versie adaptive staircase builder,,2026.1.3,59.98033844503508,2026-04-14 10h23.18.296943 +0200,
20.5,ecc10neg,right,14,0,14,j,0,3.347491099999843,None,0,2,2,2,14,0,14,0,1220.8925954999997,,,,,,,,,,,,,,,1220.8878628999998,1220.8925954999997,1220.8925954999997,1221.7998412999998,1220.8925954999997,1224.2497634,j,0,3.347491099999843,None,left,18,"[20, 19, 20, 18]",4,shiftedgaze_L_18.png,j,0,3,results11,001,2026-04-14_10h23.18.042,mogelijke versie adaptive staircase builder,,2026.1.3,59.98033844503508,2026-04-14 10h23.18.296943 +0200,
20.5,ecc10neg,right,15,0,15,f,1,2.476055499999802,None,0,2,2,2,15,0,15,0,1224.3480984999999,,,,,,,,,,,,,,,1224.3378372,1224.3480984999999,1224.3480984999999,1225.2493894000002,1224.3480984999999,1226.8331375999999,f,1,2.476055499999802,None,right,19,"[20, 19, 20, 18, 19]",5,shiftedgaze_R_19.png,f,1,3,results11,001,2026-04-14_10h23.18.042,mogelijke versie adaptive staircase builder,,2026.1.3,59.98033844503508,2026-04-14 10h23.18.296943 +0200,
20.5,ecc10neg,right,16,0,16,f,0,2.235367199999928,None,0,2,2,2,16,0,16,0,1226.9323392999997,,,,,,,,,,,,,,,1226.9218431000002,1226.9323392999997,1226.9323392999997,1227.8330818000002,1226.9323392999997,1229.1829930000001,f,0,2.235367199999928,None,direct,18,"[20, 19, 20, 18, 19, 18]",6,shifteddirectgaze.png,f,0,3,results11,001,2026-04-14_10h23.18.042,mogelijke versie adaptive staircase builder,,2026.1.3,59.98033844503508,2026-04-14 10h23.18.296943 +0200,
20.5,ecc10neg,right,17,0,17,j,1,2.371266800000285,None,0,2,2,2,17,0,17,0,1229.2843578,,,,,,,,,,,,,,,1229.2796434,1229.2843578,1229.2843578,1230.1827101000001,1229.2843578,1231.6662596999997,j,1,2.371266800000285,None,direct,19,"[20, 19, 20, 18, 19, 18, 19]",7,shifteddirectgaze.png,j,1,3,results11,001,2026-04-14_10h23.18.042,mogelijke versie adaptive staircase builder,,2026.1.3,59.98033844503508,2026-04-14 10h23.18.296943 +0200,
20.5,ecc10neg,right,18,0,18,j,1,1.7270653999999013,None,0,2,2,2,18,0,18,0,1231.7606669,,,,,,,,,,,,,,,1231.7564248,1231.7606669,1231.7606669,1232.6659585999998,1231.7606669,1233.4994645,j,1,1.7270653999999013,None,direct,18,"[20, 19, 20, 18, 19, 18, 19]",7,shifteddirectgaze.png,j,1,3,results11,001,2026-04-14_10h23.18.042,mogelijke versie adaptive staircase builder,,2026.1.3,59.98033844503508,2026-04-14 10h23.18.296943 +0200,
20.5,ecc10neg,right,19,0,19,f,1,2.242830099999992,None,0,2,2,2,19,0,19,0,1233.605233,,,,,,,,,,,,,,,1233.5946103999997,1233.605233,1233.605233,1234.4991916000001,1233.605233,1235.8498343999997,f,1,2.242830099999992,None,right,17,"[20, 19, 20, 18, 19, 18, 19]",7,shiftedgaze_R_17.png,f,1,3,results11,001,2026-04-14_10h23.18.042,mogelijke versie adaptive staircase builder,,2026.1.3,59.98033844503508,2026-04-14 10h23.18.296943 +0200,
20.5,ecc10neg,right,20,0,20,f,1,2.603081900000234,None,0,2,2,2,20,0,20,0,1235.9422272,,,,,,,,,,,,,,,1235.9381173999998,1235.9422272,1235.9422272,1236.8492263,1235.9422272,1238.5501004,f,1,2.603081900000234,None,right,16,"[20, 19, 20, 18, 19, 18, 19]",7,shiftedgaze_R_16.png,f,1,3,results11,001,2026-04-14_10h23.18.042,mogelijke versie adaptive staircase builder,,2026.1.3,59.98033844503508,2026-04-14 10h23.18.296943 +0200,
20.5,ecc10neg,right,21,0,21,f,1,1.7045212999996693,None,0,2,2,2,21,0,21,0,1239.0552045000002,,,,,,,,,,,,,,,1239.045151,1239.0552045000002,1239.0552045000002,1239.5497641,1239.0552045000002,1240.7660156999998,f,1,1.7045212999996693,None,right,15,"[20, 19, 20, 18, 19, 18, 19]",7,shiftedgaze_R_15.png,f,1,3,results11,001,2026-04-14_10h23.18.042,mogelijke versie adaptive staircase builder,,2026.1.3,59.98033844503508,2026-04-14 10h23.18.296943 +0200,
20.5,ecc10neg,right,22,0,22,j,1,3.238991100000021,None,0,2,2,2,22,0,22,0,1240.8488575,,,,,,,,,,,,,,,1240.8448381,1240.8488575,1240.8488575,1241.7661142,1240.8488575,1244.1000072,j,1,3.238991100000021,None,direct,14,"[20, 19, 20, 18, 19, 18, 19]",7,shifteddirectgaze.png,j,1,3,results11,001,2026-04-14_10h23.18.042,mogelijke versie adaptive staircase builder,,2026.1.3,59.98033844503508,2026-04-14 10h23.18.296943 +0200,
20.5,ecc10neg,right,23,0,23,f,0,3.9307848999997077,None,0,2,2,2,23,0,23,0,1244.1813224,,,,,,,,,,,,,,,1244.1766584,1244.1813224,1244.1813224,1245.0997497,1244.1813224,1248.1166376999997,f,0,3.9307848999997077,None,direct,13,"[20, 19, 20, 18, 19, 18, 19, 13]",8,shifteddirectgaze.png,f,0,3,results11,001,2026-04-14_10h23.18.042,mogelijke versie adaptive staircase builder,,2026.1.3,59.98033844503508,2026-04-14 10h23.18.296943 +0200,
20.5,ecc10neg,right,24,0,24,f,1,2.6115865000001577,None,0,2,2,2,24,0,24,0,1248.2121392000001,,,,,,,,,,,,,,,1248.2081286,1248.2121392000001,1248.2121392000001,1249.1161332999998,1248.2121392000001,1250.8327943000002,f,1,2.6115865000001577,None,right,14,"[20, 19, 20, 18, 19, 18, 19, 13, 14]",9,shiftedgaze_R_14.png,f,1,3,results11,001,2026-04-14_10h23.18.042,mogelijke versie adaptive staircase builder,,2026.1.3,59.98033844503508,2026-04-14 10h23.18.296943 +0200,
20.5,ecc10neg,right,25,0,25,f,0,2.5417200000001685,None,0,2,2,2,25,0,25,0,1250.9144183,,,,,,,,,,,,,,,1250.9104610000002,1250.9144183,1250.9144183,1251.8328476,1250.9144183,1253.4664996999998,f,0,2.5417200000001685,None,direct,13,"[20, 19, 20, 18, 19, 18, 19, 13, 14, 13]",10,shifteddirectgaze.png,f,0,3,results11,001,2026-04-14_10h23.18.042,mogelijke versie adaptive staircase builder,,2026.1.3,59.98033844503508,2026-04-14 10h23.18.296943 +0200,
20.5,ecc10neg,right,26,0,26,f,1,2.7000245000003815,None,0,2,2,2,26,0,26,0,1253.5483053,,,,,,,,,,,,,,,1253.5436542,1253.5483053,1253.5483053,1254.4660152999998,1253.5483053,1256.2500677,f,1,2.7000245000003815,None,right,14,"[20, 19, 20, 18, 19, 18, 19, 13, 14, 13, 14]",11,shiftedgaze_R_14.png,f,1,3,results11,001,2026-04-14_10h23.18.042,mogelijke versie adaptive staircase builder,,2026.1.3,59.98033844503508,2026-04-14 10h23.18.296943 +0200,
20.5,ecc10neg,right,27,0,27,f,0,2.0509705999998005,None,0,2,2,2,27,0,27,0,1256.3328034999997,,,,,,,,,,,,,,,1256.3287889,1256.3328034999997,1256.3328034999997,1257.2497529,1256.3328034999997,1258.3996845,f,0,2.0509705999998005,None,direct,13,"[20, 19, 20, 18, 19, 18, 19, 13, 14, 13, 14, 13]",12,shifteddirectgaze.png,f,0,3,results11,001,2026-04-14_10h23.18.042,mogelijke versie adaptive staircase builder,,2026.1.3,59.98033844503508,2026-04-14 10h23.18.296943 +0200,
20.5,ecc10neg,right,28,0,28,f,0,1.5641037000000324,None,0,2,2,2,28,0,28,0,1258.4834703,,,,,,,,,,,,,,,1258.4794095999998,1258.4834703,1258.4834703,1259.3992789000001,1258.4834703,1260.0498331000001,f,0,1.5641037000000324,None,direct,14,"[20, 19, 20, 18, 19, 18, 19, 13, 14, 13, 14, 13]",12,shifteddirectgaze.png,f,0,3,results11,001,2026-04-14_10h23.18.042,mogelijke versie adaptive staircase builder,,2026.1.3,59.98033844503508,2026-04-14 10h23.18.296943 +0200,
20.5,ecc10neg,right,29,0,29,f,1,1.741576299999906,None,0,2,2,2,29,0,29,0,1260.1381312,,,,,,,,,,,,,,,1260.1340852,1260.1381312,1260.1381312,1261.0493134,1260.1381312,1261.8829915999997,f,1,1.741576299999906,None,right,15,"[20, 19, 20, 18, 19, 18, 19, 13, 14, 13, 14, 13, 15]",13,shiftedgaze_R_15.png,f,1,3,results11,001,2026-04-14_10h23.18.042,mogelijke versie adaptive staircase builder,,2026.1.3,59.98033844503508,2026-04-14 10h23.18.296943 +0200,
20.5,ecc10neg,right,30,0,30,f,1,1.823330100000021,None,0,2,2,2,30,0,30,0,1261.9684129999998,,,,,,,,,,,,,,,1261.9642640999998,1261.9684129999998,1261.9684129999998,1262.8831149,1261.9684129999998,1263.7994965,f,1,1.823330100000021,None,right,14,"[20, 19, 20, 18, 19, 18, 19, 13, 14, 13, 14, 13, 15]",13,shiftedgaze_R_14.png,f,1,3,results11,001,2026-04-14_10h23.18.042,mogelijke versie adaptive staircase builder,,2026.1.3,59.98033844503508,2026-04-14 10h23.18.296943 +0200,
20.5,ecc10neg,right,31,0,31,f,1,1.7997417999999925,None,0,2,2,2,31,0,31,0,1263.8878711,,,,,,,,,,,,,,,1263.8839216,1263.8878711,1263.8878711,1264.7997957999999,1263.8878711,1265.6994748999998,f,1,1.7997417999999925,None,right,13,"[20, 19, 20, 18, 19, 18, 19, 13, 14, 13, 14, 13, 15]",13,shiftedgaze_R_13.png,f,1,3,results11,001,2026-04-14_10h23.18.042,mogelijke versie adaptive staircase builder,,2026.1.3,59.98033844503508,2026-04-14 10h23.18.296943 +0200,
20.5,ecc10neg,right,32,0,32,j,0,2.457869899999878,None,0,2,2,2,32,0,32,0,1265.7902662999998,,,,,,,,,,,,,,,1265.7863851999998,1265.7902662999998,1265.7902662999998,1266.6994576,1265.7902662999998,1268.2507183,j,0,2.457869899999878,None,left,12,"[20, 19, 20, 18, 19, 18, 19, 13, 14, 13, 14, 13, 15, 12]",14,shiftedgaze_L_12.png,j,0,3,results11,001,2026-04-14_10h23.18.042,mogelijke versie adaptive staircase builder,,2026.1.3,59.98033844503508,2026-04-14 10h23.18.296943 +0200,
20.5,ecc10neg,right,33,0,33,f,0,2.122324899999967,None,0,2,2,2,33,0,33,0,1268.3333894999998,,,,,,,,,,,,,,,1268.3293367999997,1268.3333894999998,1268.3333894999998,1269.2658997,1268.3333894999998,1270.4660195999998,f,0,2.122324899999967,None,direct,13,"[20, 19, 20, 18, 19, 18, 19, 13, 14, 13, 14, 13, 15, 12]",14,shifteddirectgaze.png,f,0,3,results11,001,2026-04-14_10h23.18.042,mogelijke versie adaptive staircase builder,,2026.1.3,59.98033844503508,2026-04-14 10h23.18.296943 +0200,
20.5,ecc10neg,right,34,0,34,f,1,2.171060800000305,None,0,2,2,2,34,0,34,0,1270.5490542,,,,,,,,,,,,,,,1270.5450402999998,1270.5490542,1270.5490542,1271.4657725999998,1270.5490542,1272.7329493999998,f,1,2.171060800000305,None,right,14,"[20, 19, 20, 18, 19, 18, 19, 13, 14, 13, 14, 13, 15, 12, 14]",15,shiftedgaze_R_14.png,f,1,3,results11,001,2026-04-14_10h23.18.042,mogelijke versie adaptive staircase builder,,2026.1.3,59.98033844503508,2026-04-14 10h23.18.296943 +0200,
20.5,ecc10neg,right,35,0,35,j,0,1.7782873999999538,None,0,2,2,2,35,0,35,0,1272.8297541,,,,,,,,,,,,,,,1272.8258399,1272.8297541,1272.8297541,1273.7331006000002,1272.8297541,1274.6167308000001,j,0,1.7782873999999538,None,left,13,"[20, 19, 20, 18, 19, 18, 19, 13, 14, 13, 14, 13, 15, 12, 14, 13]",16,shiftedgaze_L_13.png,j,0,3,results11,001,2026-04-14_10h23.18.042,mogelijke versie adaptive staircase builder,,2026.1.3,59.98033844503508,2026-04-14 10h23.18.296943 +0200,
20.5,ecc10neg,right,36,0,36,j,0,1.2571010999999999,None,0,2,2,2,36,0,36,0,1275.0630297,,,,,,,,,,,,,,,1275.0588614,1275.0630297,1275.0630297,1275.6163930999999,1275.0630297,1276.3331188,j,0,1.2571010999999999,None,left,14,"[20, 19, 20, 18, 19, 18, 19, 13, 14, 13, 14, 13, 15, 12, 14, 13]",16,shiftedgaze_L_14.png,j,0,3,results11,001,2026-04-14_10h23.18.042,mogelijke versie adaptive staircase builder,,2026.1.3,59.98033844503508,2026-04-14 10h23.18.296943 +0200,
20.5,ecc10neg,right,37,0,37,j,1,1.51725499999975,None,0,2,2,2,37,0,37,0,1276.4185074999998,,,,,,,,,,,,,,,1276.4145437,1276.4185074999998,1276.4185074999998,1277.3331781999998,1276.4185074999998,1277.9499896,j,1,1.51725499999975,None,direct,15,"[20, 19, 20, 18, 19, 18, 19, 13, 14, 13, 14, 13, 15, 12, 14, 13, 15]",17,shifteddirectgaze.png,j,1,3,results11,001,2026-04-14_10h23.18.042,mogelijke versie adaptive staircase builder,,2026.1.3,59.98033844503508,2026-04-14 10h23.18.296943 +0200,
20.5,ecc10neg,right,38,0,38,j,1,2.012713100000383,None,0,2,2,2,38,0,38,0,1278.0352737,,,,,,,,,,,,,,,1278.0312375,1278.0352737,1278.0352737,1278.9497189,1278.0352737,1280.049554,j,1,2.012713100000383,None,direct,14,"[20, 19, 20, 18, 19, 18, 19, 13, 14, 13, 14, 13, 15, 12, 14, 13, 15]",17,shifteddirectgaze.png,j,1,3,results11,001,2026-04-14_10h23.18.042,mogelijke versie adaptive staircase builder,,2026.1.3,59.98033844503508,2026-04-14 10h23.18.296943 +0200,
20.5,ecc10neg,right,39,0,39,f,1,2.401433999999881,None,0,2,2,2,39,0,39,0,1280.1341985000001,,,,,,,,,,,,,,,1280.1302312,1280.1341985000001,1280.1341985000001,1281.0494775999998,1280.1341985000001,1282.5495773999999,f,1,2.401433999999881,None,right,13,"[20, 19, 20, 18, 19, 18, 19, 13, 14, 13, 14, 13, 15, 12, 14, 13, 15]",17,shiftedgaze_R_13.png,f,1,3,results11,001,2026-04-14_10h23.18.042,mogelijke versie adaptive staircase builder,,2026.1.3,59.98033844503508,2026-04-14 10h23.18.296943 +0200,
20.5,ecc10neg,right,40,0,40,j,1,2.5416362999999365,None,0,2,2,2,40,0,40,0,1282.6339467999999,,,,,,,,,,,,,,,1282.6299149999998,1282.6339467999999,1282.6339467999999,1283.5493906,1282.6339467999999,1285.1827887000002,j,1,2.5416362999999365,None,direct,12,"[20, 19, 20, 18, 19, 18, 19, 13, 14, 13, 14, 13, 15, 12, 14, 13, 15]",17,shifteddirectgaze.png,j,1,3,results11,001,2026-04-14_10h23.18.042,mogelijke versie adaptive staircase builder,,2026.1.3,59.98033844503508,2026-04-14 10h23.18.296943 +0200,
20.5,ecc10neg,right,41,0,41,f,0,2.5803186000002825,None,0,2,2,2,41,0,41,0,1285.2679031,,,,,,,,,,,,,,,1285.2638306000001,1285.2679031,1285.2679031,1286.1826392,1285.2679031,1287.8500972999998,f,0,2.5803186000002825,None,direct,11,"[20, 19, 20, 18, 19, 18, 19, 13, 14, 13, 14, 13, 15, 12, 14, 13, 15, 11]",18,shifteddirectgaze.png,f,0,3,results11,001,2026-04-14_10h23.18.042,mogelijke versie adaptive staircase builder,,2026.1.3,59.98033844503508,2026-04-14 10h23.18.296943 +0200,
20.5,ecc10neg,right,42,0,42,f,0,1.7838363000000754,None,0,2,2,2,42,0,42,0,1287.9357333,,,,,,,,,,,,,,,1287.931612,1287.9357333,1287.9357333,1288.8659919,1287.9357333,1289.7328175,f,0,1.7838363000000754,None,direct,12,"[20, 19, 20, 18, 19, 18, 19, 13, 14, 13, 14, 13, 15, 12, 14, 13, 15, 11]",18,shifteddirectgaze.png,f,0,3,results11,001,2026-04-14_10h23.18.042,mogelijke versie adaptive staircase builder,,2026.1.3,59.98033844503508,2026-04-14 10h23.18.296943 +0200,
20.5,ecc10neg,right,43,0,43,f,1,1.6695834000001923,None,0,2,2,2,43,0,43,0,1289.818097,,,,,,,,,,,,,,,1289.8139942999999,1289.818097,1289.818097,1290.7327957,1289.818097,1291.4995486,f,1,1.6695834000001923,None,right,13,"[20, 19, 20, 18, 19, 18, 19, 13, 14, 13, 14, 13, 15, 12, 14, 13, 15, 11, 13]",19,shiftedgaze_R_13.png,f,1,3,results11,001,2026-04-14_10h23.18.042,mogelijke versie adaptive staircase builder,,2026.1.3,59.98033844503508,2026-04-14 10h23.18.296943 +0200,
20.5,ecc10neg,right,44,0,44,j,0,1.9048501000002034,None,0,2,2,2,44,0,44,0,1291.5828703,,,,,,,,,,,,,,,1291.5786577000001,1291.5828703,1291.5828703,1292.4993859999997,1291.5828703,1293.4996494999998,j,0,1.9048501000002034,None,left,12,"[20, 19, 20, 18, 19, 18, 19, 13, 14, 13, 14, 13, 15, 12, 14, 13, 15, 11, 13, 12]",20,shiftedgaze_L_12.png,j,0,3,results11,001,2026-04-14_10h23.18.042,mogelijke versie adaptive staircase builder,,2026.1.3,59.98033844503508,2026-04-14 10h23.18.296943 +0200,
20.5,ecc10neg,right,45,0,45,f,1,1.7998970999997255,None,0,2,2,2,45,0,45,0,1293.583661,,,,,,,,,,,,,,,1293.5795234999998,1293.583661,1293.583661,1294.4992985000001,1293.583661,1295.3994976000001,f,1,1.7998970999997255,None,right,13,"[20, 19, 20, 18, 19, 18, 19, 13, 14, 13, 14, 13, 15, 12, 14, 13, 15, 11, 13, 12, 13]",21,shiftedgaze_R_13.png,f,1,3,results11,001,2026-04-14_10h23.18.042,mogelijke versie adaptive staircase builder,,2026.1.3,59.98033844503508,2026-04-14 10h23.18.296943 +0200,
20.5,ecc10neg,right,46,0,46,j,0,1.9167068000001564,None,0,2,2,2,46,0,46,0,1295.4828553999998,,,,,,,,,,,,,,,1295.478773,1295.4828553999998,1295.4828553999998,1296.3994212999999,1295.4828553999998,1297.3997873,j,0,1.9167068000001564,None,left,12,"[20, 19, 20, 18, 19, 18, 19, 13, 14, 13, 14, 13, 15, 12, 14, 13, 15, 11, 13, 12, 13, 12]",22,shiftedgaze_L_12.png,j,0,3,results11,001,2026-04-14_10h23.18.042,mogelijke versie adaptive staircase builder,,2026.1.3,59.98033844503508,2026-04-14 10h23.18.296943 +0200,
20.5,ecc10neg,right,47,0,47,f,1,2.3663408999996136,None,0,2,2,2,47,0,47,0,1297.4813573999998,,,,,,,,,,,,,,,1297.4774162,1297.4813573999998,1297.4813573999998,1298.3993494999997,1297.4813573999998,1299.8495191999998,f,1,2.3663408999996136,None,right,13,"[20, 19, 20, 18, 19, 18, 19, 13, 14, 13, 14, 13, 15, 12, 14, 13, 15, 11, 13, 12, 13, 12, 13]",23,shiftedgaze_R_13.png,f,1,3,results11,001,2026-04-14_10h23.18.042,mogelijke versie adaptive staircase builder,,2026.1.3,59.98033844503508,2026-04-14 10h23.18.296943 +0200,
20.5,ecc10neg,right,48,0,48,j,0,2.2207785999999032,None,0,2,2,2,48,0,48,0,1299.9312773999998,,,,,,,,,,,,,,,1299.9270696,1299.9312773999998,1299.9312773999998,1300.8493385999998,1299.9312773999998,1302.1667879,j,0,2.2207785999999032,None,left,12,"[20, 19, 20, 18, 19, 18, 19, 13, 14, 13, 14, 13, 15, 12, 14, 13, 15, 11, 13, 12, 13, 12, 13, 12]",24,shiftedgaze_L_12.png,j,0,3,results11,001,2026-04-14_10h23.18.042,mogelijke versie adaptive staircase builder,,2026.1.3,59.98033844503508,2026-04-14 10h23.18.296943 +0200,
20.5,ecc10neg,right,49,0,49,f,1,1.8946875999999975,None,0,2,2,2,49,0,49,0,1302.2489835999997,,,,,,,,,,,,,,,1302.2449141,1302.2489835999997,1302.2489835999997,1303.1663526999998,1302.2489835999997,1304.1498510999998,f,1,1.8946875999999975,None,right,13,"[20, 19, 20, 18, 19, 18, 19, 13, 14, 13, 14, 13, 15, 12, 14, 13, 15, 11, 13, 12, 13, 12, 13, 12, 13]",25,shiftedgaze_R_13.png,f,1,3,results11,001,2026-04-14_10h23.18.042,mogelijke versie adaptive staircase builder,,2026.1.3,59.98033844503508,2026-04-14 10h23.18.296943 +0200,
20.5,ecc10neg,right,50,0,50,f,0,1.9595295000003716,None,0,2,2,2,50,0,50,0,1304.2320619999998,,,,,,,,,,,,,,,1304.227874,1304.2320619999998,1304.2320619999998,1305.1494068999998,1304.2320619999998,1306.1995623999999,f,0,1.9595295000003716,None,direct,12,"[20, 19, 20, 18, 19, 18, 19, 13, 14, 13, 14, 13, 15, 12, 14, 13, 15, 11, 13, 12, 13, 12, 13, 12, 13, 12]",26,shifteddirectgaze.png,f,0,3,results11,001,2026-04-14_10h23.18.042,mogelijke versie adaptive staircase builder,,2026.1.3,59.98033844503508,2026-04-14 10h23.18.296943 +0200,
20.5,ecc10neg,right,51,0,51,j,0,1.8266567999999097,None,0,2,2,2,51,0,51,0,1306.2852013999998,,,,,,,,,,,,,,,1306.2801143999998,1306.2852013999998,1306.2852013999998,1307.1994861,1306.2852013999998,1308.116749,j,0,1.8266567999999097,None,left,13,"[20, 19, 20, 18, 19, 18, 19, 13, 14, 13, 14, 13, 15, 12, 14, 13, 15, 11, 13, 12, 13, 12, 13, 12, 13, 12]",26,shiftedgaze_L_13.png,j,0,3,results11,001,2026-04-14_10h23.18.042,mogelijke versie adaptive staircase builder,,2026.1.3,59.98033844503508,2026-04-14 10h23.18.296943 +0200,
20.5,ecc10neg,right,52,0,52,f,1,2.898122600000079,None,0,2,2,2,52,0,52,0,1308.1979703,,,,,,,,,,,,,,,1308.1938248999998,1308.1979703,1308.1979703,1309.1160558999998,1308.1979703,1311.1003351000002,f,1,2.898122600000079,None,right,14,"[20, 19, 20, 18, 19, 18, 19, 13, 14, 13, 14, 13, 15, 12, 14, 13, 15, 11, 13, 12, 13, 12, 13, 12, 13, 12, 14]",27,shiftedgaze_R_14.png,f,1,3,results11,001,2026-04-14_10h23.18.042,mogelijke versie adaptive staircase builder,,2026.1.3,59.98033844503508,2026-04-14 10h23.18.296943 +0200,
20.5,ecc10neg,right,53,0,53,f,1,1.8793203000000176,None,0,2,2,2,53,0,53,0,1311.1842767,,,,,,,,,,,,,,,1311.1800704999998,1311.1842767,1311.1842767,1312.1158171999998,1311.1842767,1313.0662107,f,1,1.8793203000000176,None,right,13,"[20, 19, 20, 18, 19, 18, 19, 13, 14, 13, 14, 13, 15, 12, 14, 13, 15, 11, 13, 12, 13, 12, 13, 12, 13, 12, 14]",27,shiftedgaze_R_13.png,f,1,3,results11,001,2026-04-14_10h23.18.042,mogelijke versie adaptive staircase builder,,2026.1.3,59.98033844503508,2026-04-14 10h23.18.296943 +0200,
20.5,ecc10neg,right,54,0,54,f,0,1.5073317000001225,None,0,2,2,2,54,0,54,0,1313.1486853999997,,,,,,,,,,,,,,,1313.1446608999997,1313.1486853999997,1313.1486853999997,1314.0665229999997,1313.1486853999997,1314.6669709,f,0,1.5073317000001225,None,direct,12,"[20, 19, 20, 18, 19, 18, 19, 13, 14, 13, 14, 13, 15, 12, 14, 13, 15, 11, 13, 12, 13, 12, 13, 12, 13, 12, 14, 12]",28,shifteddirectgaze.png,f,0,3,results11,001,2026-04-14_10h23.18.042,mogelijke versie adaptive staircase builder,,2026.1.3,59.98033844503508,2026-04-14 10h23.18.296943 +0200,
20.5,ecc10neg,right,55,0,55,j,0,2.053131499999836,None,0,2,2,2,55,0,55,0,1314.7464112999999,,,,,,,,,,,,,,,1314.7424353,1314.7464112999999,1314.7464112999999,1315.6831871000002,1314.7464112999999,1316.8388392,j,0,2.053131499999836,None,left,13,"[20, 19, 20, 18, 19, 18, 19, 13, 14, 13, 14, 13, 15, 12, 14, 13, 15, 11, 13, 12, 13, 12, 13, 12, 13, 12, 14, 12]",28,shiftedgaze_L_13.png,j,0,3,results11,001,2026-04-14_10h23.18.042,mogelijke versie adaptive staircase builder,,2026.1.3,59.98033844503508,2026-04-14 10h23.18.296943 +0200,
20.5,ecc10neg,right,56,0,56,f,0,1.4317544999998972,None,0,2,2,2,56,0,56,0,1316.9198263,,,,,,,,,,,,,,,1316.9161382,1316.9198263,1316.9198263,1317.849883,1316.9198263,1318.3661917000002,f,0,1.4317544999998972,None,direct,14,"[20, 19, 20, 18, 19, 18, 19, 13, 14, 13, 14, 13, 15, 12, 14, 13, 15, 11, 13, 12, 13, 12, 13, 12, 13, 12, 14, 12]",28,shifteddirectgaze.png,f,0,3,results11,001,2026-04-14_10h23.18.042,mogelijke versie adaptive staircase builder,,2026.1.3,59.98033844503508,2026-04-14 10h23.18.296943 +0200,
20.5,ecc10neg,right,57,0,57,j,0,2.1741456999998263,None,0,2,2,2,57,0,57,0,1318.4574215,,,,,,,,,,,,,,,1318.4534820000001,1318.4574215,1318.4574215,1319.3660108000001,1318.4574215,1320.6328292,j,0,2.1741456999998263,None,left,15,"[20, 19, 20, 18, 19, 18, 19, 13, 14, 13, 14, 13, 15, 12, 14, 13, 15, 11, 13, 12, 13, 12, 13, 12, 13, 12, 14, 12]",28,shiftedgaze_L_15.png,j,0,3,results11,001,2026-04-14_10h23.18.042,mogelijke versie adaptive staircase builder,,2026.1.3,59.98033844503508,2026-04-14 10h23.18.296943 +0200,
20.5,ecc10neg,right,58,0,58,j,0,1.4771574000001237,None,0,2,2,2,58,0,58,0,1320.722435,,,,,,,,,,,,,,,1320.7185284999998,1320.722435,1320.722435,1321.6332165000001,1320.722435,1322.1998809,j,0,1.4771574000001237,None,left,16,"[20, 19, 20, 18, 19, 18, 19, 13, 14, 13, 14, 13, 15, 12, 14, 13, 15, 11, 13, 12, 13, 12, 13, 12, 13, 12, 14, 12]",28,shiftedgaze_L_16.png,j,0,3,results11,001,2026-04-14_10h23.18.042,mogelijke versie adaptive staircase builder,,2026.1.3,59.98033844503508,2026-04-14 10h23.18.296943 +0200,
20.5,ecc10neg,right,59,0,59,j,1,1.710776000000351,None,0,2,2,2,59,0,59,0,1322.2812565000002,,,,,,,,,,,,,,,1322.2772444,1322.2812565000002,1322.2812565000002,1323.1993403999998,1322.2812565000002,1323.9999237,j,1,1.710776000000351,None,direct,17,"[20, 19, 20, 18, 19, 18, 19, 13, 14, 13, 14, 13, 15, 12, 14, 13, 15, 11, 13, 12, 13, 12, 13, 12, 13, 12, 14, 12, 17]",29,shifteddirectgaze.png,j,1,3,results11,001,2026-04-14_10h23.18.042,mogelijke versie adaptive staircase builder,,2026.1.3,59.98033844503508,2026-04-14 10h23.18.296943 +0200,
20.5,ecc10neg,right,2,2,0,,,,,0,2,2,2,,,,,,,,,,,,,,,,,,,,,,,,,,,,,,,,,,,,,,results11,001,2026-04-14_10h23.18.042,mogelijke versie adaptive staircase builder,,2026.1.3,59.98033844503508,2026-04-14 10h23.18.296943 +0200,
