xPos,stimulusSet,whichImage,thisN,thisTrialN,thisRepN,key_resp.keys,key_resp.corr,key_resp.rt,key_resp.duration,blocks.thisRepN,blocks.thisTrialN,blocks.thisN,blocks.thisIndex,trials.thisRepN,trials.thisTrialN,trials.thisN,trials.thisIndex,thisRow.t,notes,piloting,intro.started,introinstructions.started,intro_key.started,demo_image_left.started,demo_image_middle.started,demo_image_right.started,intro.stopped,intro_key.keys,intro_key.rt,intro_key.duration,block_start.started,block_start.stopped,trial.started,key_resp.started,middle_image.started,right_image.started,left_image.started,trial.stopped,trials.key_resp.keys,trials.key_resp.corr,trials.key_resp.rt,trials.key_resp.duration,direction,angle,reversal_intensities,number_reversals,stimulus,response,correct,blockNumber,participant,session,date,expName,expVersion,psychopyVersion,frameRate,expStart,
,,,,,,,,,,,,,,,,,,,,False,0.04881139999997686,0.05696379999972123,0.05696379999972123,0.05696379999972123,0.05696379999972123,0.05696379999972123,290.08113109999977,space,289.91217660000075,0.10396009999931266,,,,,,,,,,,,,,,,,,,,,results29,001,2026-04-20_13h08.25.765,mogelijke versie adaptive staircase builder,,2026.1.3,60.059338626549774,2026-04-20 13h08.26.147163 +0200,
4.5,ecc10pos,left,0,0,0,f,1,3.9404523000011977,None,0,0,0,0,0,0,0,0,290.4126919999999,,,,,,,,,,,,,290.29510090000076,290.2951534999993,290.40076860000045,290.4126919999999,290.4126919999999,290.4126919999999,291.2973684000008,294.36444800000027,f,1,3.9404523000011977,None,right,20,[],0,shiftedgaze_R_20.png,f,1,1,results29,001,2026-04-20_13h08.25.765,mogelijke versie adaptive staircase builder,,2026.1.3,60.059338626549774,2026-04-20 13h08.26.147163 +0200,
4.5,ecc10pos,left,1,0,1,f,0,2.8115190000007715,None,0,0,0,0,1,0,1,0,294.46160640000016,,,,,,,,,,,,,,,294.4502511999999,294.46160640000016,294.46160640000016,294.46160640000016,295.3638658,297.28113289999965,f,0,2.8115190000007715,None,direct,19,[19],1,shifteddirectgaze.png,f,0,1,results29,001,2026-04-20_13h08.25.765,mogelijke versie adaptive staircase builder,,2026.1.3,60.059338626549774,2026-04-20 13h08.26.147163 +0200,
4.5,ecc10pos,left,2,0,2,f,1,1.9225580999991507,None,0,0,0,0,2,0,2,0,297.3746912000006,,,,,,,,,,,,,,,297.3641473000007,297.3746912000006,297.3746912000006,297.3746912000006,298.28061549999984,299.29779150000104,f,1,1.9225580999991507,None,right,20,"[19, 20]",2,shiftedgaze_R_20.png,f,1,1,results29,001,2026-04-20_13h08.25.765,mogelijke versie adaptive staircase builder,,2026.1.3,60.059338626549774,2026-04-20 13h08.26.147163 +0200,
4.5,ecc10pos,left,3,0,3,f,1,2.4606198000001314,None,0,0,0,0,3,0,3,0,299.4284969,,,,,,,,,,,,,,,299.416957200001,299.4284969,299.4284969,299.4284969,300.2972093999997,301.8976351000001,f,1,2.4606198000001314,None,left,19,"[19, 20]",2,shiftedgaze_L_19.png,f,1,1,results29,001,2026-04-20_13h08.25.765,mogelijke versie adaptive staircase builder,,2026.1.3,60.059338626549774,2026-04-20 13h08.26.147163 +0200,
4.5,ecc10pos,left,4,0,4,f,1,4.836289799999577,None,0,0,0,0,4,0,4,0,302.02075400000103,,,,,,,,,,,,,,,302.0094363999997,302.02075400000103,302.02075400000103,302.02075400000103,302.8971805000001,306.8641253000005,f,1,4.836289799999577,None,right,18,"[19, 20]",2,shiftedgaze_R_18.png,f,1,1,results29,001,2026-04-20_13h08.25.765,mogelijke versie adaptive staircase builder,,2026.1.3,60.059338626549774,2026-04-20 13h08.26.147163 +0200,
4.5,ecc10pos,left,5,0,5,f,0,3.928375399998913,None,0,0,0,0,5,0,5,0,306.96076449999964,,,,,,,,,,,,,,,306.95046770000044,306.96076449999964,306.96076449999964,306.96076449999964,307.8637385000002,310.89750529999947,f,0,3.928375399998913,None,direct,17,"[19, 20, 17]",3,shifteddirectgaze.png,f,0,1,results29,001,2026-04-20_13h08.25.765,mogelijke versie adaptive staircase builder,,2026.1.3,60.059338626549774,2026-04-20 13h08.26.147163 +0200,
4.5,ecc10pos,left,6,0,6,f,1,1.8866906999992352,None,0,0,0,0,6,0,6,0,310.99442740000086,,,,,,,,,,,,,,,310.984218900001,310.99442740000086,310.99442740000086,310.99442740000086,311.897081000001,312.897476600001,f,1,1.8866906999992352,None,right,18,"[19, 20, 17, 18]",4,shiftedgaze_R_18.png,f,1,1,results29,001,2026-04-20_13h08.25.765,mogelijke versie adaptive staircase builder,,2026.1.3,60.059338626549774,2026-04-20 13h08.26.147163 +0200,
4.5,ecc10pos,left,7,0,7,f,1,2.1897206000012375,None,0,0,0,0,7,0,7,0,313.02741530000094,,,,,,,,,,,,,,,313.0156217999993,313.02741530000094,313.02741530000094,313.02741530000094,313.89700000000084,315.230799500001,f,1,2.1897206000012375,None,left,17,"[19, 20, 17, 18]",4,shiftedgaze_L_17.png,f,1,1,results29,001,2026-04-20_13h08.25.765,mogelijke versie adaptive staircase builder,,2026.1.3,60.059338626549774,2026-04-20 13h08.26.147163 +0200,
4.5,ecc10pos,left,8,0,8,f,1,2.240476099999796,None,0,0,0,0,8,0,8,0,315.34455329999946,,,,,,,,,,,,,,,315.33103440000014,315.34455329999946,315.34455329999946,315.34455329999946,316.2303427000006,317.59770820000085,f,1,2.240476099999796,None,left,16,"[19, 20, 17, 18]",4,shiftedgaze_L_16.png,f,1,1,results29,001,2026-04-20_13h08.25.765,mogelijke versie adaptive staircase builder,,2026.1.3,60.059338626549774,2026-04-20 13h08.26.147163 +0200,
4.5,ecc10pos,left,9,0,9,f,0,3.365945700001248,None,0,0,0,0,9,0,9,0,317.7151021000009,,,,,,,,,,,,,,,317.70380939999995,317.7151021000009,317.7151021000009,317.7151021000009,318.6136067000007,321.09719080000104,f,0,3.365945700001248,None,direct,15,"[19, 20, 17, 18, 15]",5,shifteddirectgaze.png,f,0,1,results29,001,2026-04-20_13h08.25.765,mogelijke versie adaptive staircase builder,,2026.1.3,60.059338626549774,2026-04-20 13h08.26.147163 +0200,
4.5,ecc10pos,left,10,0,10,f,0,3.3753668000008474,None,0,0,0,0,10,0,10,0,321.19370900000104,,,,,,,,,,,,,,,321.18358889999945,321.19370900000104,321.19370900000104,321.19370900000104,322.09662220000064,324.580676900001,f,0,3.3753668000008474,None,direct,16,"[19, 20, 17, 18, 15]",5,shifteddirectgaze.png,f,0,1,results29,001,2026-04-20_13h08.25.765,mogelijke versie adaptive staircase builder,,2026.1.3,60.059338626549774,2026-04-20 13h08.26.147163 +0200,
4.5,ecc10pos,left,11,0,11,f,1,4.095470199999909,None,0,0,0,0,11,0,11,0,324.68971580000107,,,,,,,,,,,,,,,324.6793123999996,324.68971580000107,324.68971580000107,324.68971580000107,325.597178,328.7974372000008,f,1,4.095470199999909,None,right,17,"[19, 20, 17, 18, 15, 17]",6,shiftedgaze_R_17.png,f,1,1,results29,001,2026-04-20_13h08.25.765,mogelijke versie adaptive staircase builder,,2026.1.3,60.059338626549774,2026-04-20 13h08.26.147163 +0200,
4.5,ecc10pos,left,12,0,12,f,1,2.6340165000001434,None,0,0,0,0,12,0,12,0,328.9035464999997,,,,,,,,,,,,,,,328.8924026000004,328.9035464999997,328.9035464999997,328.9035464999997,329.79676130000007,331.54716089999965,f,1,2.6340165000001434,None,right,16,"[19, 20, 17, 18, 15, 17]",6,shiftedgaze_R_16.png,f,1,1,results29,001,2026-04-20_13h08.25.765,mogelijke versie adaptive staircase builder,,2026.1.3,60.059338626549774,2026-04-20 13h08.26.147163 +0200,
4.5,ecc10pos,left,13,0,13,f,1,1.9082634000005783,None,0,0,0,0,13,0,13,0,331.6528842000007,,,,,,,,,,,,,,,331.6423589999995,331.6528842000007,331.6528842000007,331.6528842000007,332.54673879999973,333.56381800000054,f,1,1.9082634000005783,None,right,15,"[19, 20, 17, 18, 15, 17]",6,shiftedgaze_R_15.png,f,1,1,results29,001,2026-04-20_13h08.25.765,mogelijke versie adaptive staircase builder,,2026.1.3,60.059338626549774,2026-04-20 13h08.26.147163 +0200,
4.5,ecc10pos,left,14,0,14,f,1,2.4908885000004375,None,0,0,0,0,14,0,14,0,333.67017769999984,,,,,,,,,,,,,,,333.65953380000064,333.67017769999984,333.67017769999984,333.67017769999984,334.5633706999997,336.1637692000004,f,1,2.4908885000004375,None,right,14,"[19, 20, 17, 18, 15, 17]",6,shiftedgaze_R_14.png,f,1,1,results29,001,2026-04-20_13h08.25.765,mogelijke versie adaptive staircase builder,,2026.1.3,60.059338626549774,2026-04-20 13h08.26.147163 +0200,
4.5,ecc10pos,left,15,0,15,f,0,2.2274403999999777,None,0,0,0,0,15,0,15,0,336.2617912000005,,,,,,,,,,,,,,,336.25127690000045,336.2617912000005,336.2617912000005,336.2617912000005,337.1632738999997,338.4968998000004,f,0,2.2274403999999777,None,direct,13,"[19, 20, 17, 18, 15, 17, 13]",7,shifteddirectgaze.png,f,0,1,results29,001,2026-04-20_13h08.25.765,mogelijke versie adaptive staircase builder,,2026.1.3,60.059338626549774,2026-04-20 13h08.26.147163 +0200,
4.5,ecc10pos,left,16,0,16,f,1,1.8614725000006729,None,0,0,0,0,16,0,16,0,338.60365490000004,,,,,,,,,,,,,,,338.5927585999998,338.60365490000004,338.60365490000004,338.60365490000004,339.49662910000006,340.48022909999963,f,1,1.8614725000006729,None,left,14,"[19, 20, 17, 18, 15, 17, 13, 14]",8,shiftedgaze_L_14.png,f,1,1,results29,001,2026-04-20_13h08.25.765,mogelijke versie adaptive staircase builder,,2026.1.3,60.059338626549774,2026-04-20 13h08.26.147163 +0200,
4.5,ecc10pos,left,17,0,17,f,1,2.085915699999532,None,0,0,0,0,17,0,17,0,340.5871447999998,,,,,,,,,,,,,,,340.57601819999945,340.5871447999998,340.5871447999998,340.5871447999998,341.4801504999996,342.68028700000104,f,1,2.085915699999532,None,left,13,"[19, 20, 17, 18, 15, 17, 13, 14]",8,shiftedgaze_L_13.png,f,1,1,results29,001,2026-04-20_13h08.25.765,mogelijke versie adaptive staircase builder,,2026.1.3,60.059338626549774,2026-04-20 13h08.26.147163 +0200,
4.5,ecc10pos,left,18,0,18,f,1,1.9361624999983178,None,0,0,0,0,18,0,18,0,342.7848943000008,,,,,,,,,,,,,,,342.7740231000007,342.7848943000008,342.7848943000008,342.7848943000008,343.6798966000006,344.73030160000053,f,1,1.9361624999983178,None,left,12,"[19, 20, 17, 18, 15, 17, 13, 14]",8,shiftedgaze_L_12.png,f,1,1,results29,001,2026-04-20_13h08.25.765,mogelijke versie adaptive staircase builder,,2026.1.3,60.059338626549774,2026-04-20 13h08.26.147163 +0200,
4.5,ecc10pos,left,19,0,19,f,0,2.013890700000047,None,0,0,0,0,19,0,19,0,344.8273079999999,,,,,,,,,,,,,,,344.81698490000053,344.8273079999999,344.8273079999999,344.8273079999999,345.7299217,346.84684919999927,f,0,2.013890700000047,None,direct,11,"[19, 20, 17, 18, 15, 17, 13, 14, 11]",9,shifteddirectgaze.png,f,0,1,results29,001,2026-04-20_13h08.25.765,mogelijke versie adaptive staircase builder,,2026.1.3,60.059338626549774,2026-04-20 13h08.26.147163 +0200,
4.5,ecc10pos,left,20,0,20,f,1,2.1604695999994874,None,0,0,0,0,20,0,20,0,346.9446155000005,,,,,,,,,,,,,,,346.9331394000001,346.9446155000005,346.9446155000005,346.9446155000005,347.8465054999997,349.1135725000004,f,1,2.1604695999994874,None,left,12,"[19, 20, 17, 18, 15, 17, 13, 14, 11, 12]",10,shiftedgaze_L_12.png,f,1,1,results29,001,2026-04-20_13h08.25.765,mogelijke versie adaptive staircase builder,,2026.1.3,60.059338626549774,2026-04-20 13h08.26.147163 +0200,
4.5,ecc10pos,left,21,0,21,f,1,2.1326651999988826,None,0,0,0,0,21,0,21,0,349.2365544000004,,,,,,,,,,,,,,,349.22690879999936,349.2365544000004,349.2365544000004,349.2365544000004,350.11317600000075,351.38020959999994,f,1,2.1326651999988826,None,left,11,"[19, 20, 17, 18, 15, 17, 13, 14, 11, 12]",10,shiftedgaze_L_11.png,f,1,1,results29,001,2026-04-20_13h08.25.765,mogelijke versie adaptive staircase builder,,2026.1.3,60.059338626549774,2026-04-20 13h08.26.147163 +0200,
4.5,ecc10pos,left,22,0,22,f,1,1.8910871999996743,None,0,0,0,0,22,0,22,0,351.5020347000009,,,,,,,,,,,,,,,351.4916766000006,351.5020347000009,351.5020347000009,351.5020347000009,352.3797833000008,353.39695980000033,f,1,1.8910871999996743,None,right,10,"[19, 20, 17, 18, 15, 17, 13, 14, 11, 12]",10,shiftedgaze_R_10.png,f,1,1,results29,001,2026-04-20_13h08.25.765,mogelijke versie adaptive staircase builder,,2026.1.3,60.059338626549774,2026-04-20 13h08.26.147163 +0200,
4.5,ecc10pos,left,23,0,23,f,1,2.018965900000694,None,0,0,0,0,23,0,23,0,353.50217390000034,,,,,,,,,,,,,,,353.4912753999997,353.50217390000034,353.50217390000034,353.50217390000034,354.3965186000005,355.53030919999946,f,1,2.018965900000694,None,right,9,"[19, 20, 17, 18, 15, 17, 13, 14, 11, 12]",10,shiftedgaze_R_9.png,f,1,1,results29,001,2026-04-20_13h08.25.765,mogelijke versie adaptive staircase builder,,2026.1.3,60.059338626549774,2026-04-20 13h08.26.147163 +0200,
4.5,ecc10pos,left,24,0,24,f,1,1.934018300000389,None,0,0,0,0,24,0,24,0,355.63533839999945,,,,,,,,,,,,,,,355.6235849000004,355.63533839999945,355.63533839999945,355.63533839999945,356.52972939999927,357.58048059999965,f,1,1.934018300000389,None,left,8,"[19, 20, 17, 18, 15, 17, 13, 14, 11, 12]",10,shiftedgaze_L_8.png,f,1,1,results29,001,2026-04-20_13h08.25.765,mogelijke versie adaptive staircase builder,,2026.1.3,60.059338626549774,2026-04-20 13h08.26.147163 +0200,
4.5,ecc10pos,left,25,0,25,f,1,2.035348500001419,None,0,0,0,0,25,0,25,0,357.685776100001,,,,,,,,,,,,,,,357.6751657999994,357.685776100001,357.685776100001,357.685776100001,358.5798525000009,359.72995850000007,f,1,2.035348500001419,None,right,7,"[19, 20, 17, 18, 15, 17, 13, 14, 11, 12]",10,shiftedgaze_R_7.png,f,1,1,results29,001,2026-04-20_13h08.25.765,mogelijke versie adaptive staircase builder,,2026.1.3,60.059338626549774,2026-04-20 13h08.26.147163 +0200,
4.5,ecc10pos,left,26,0,26,f,1,1.6613325999987865,None,0,0,0,0,26,0,26,0,360.2037891,,,,,,,,,,,,,,,360.1931086000004,360.2037891,360.2037891,360.2037891,360.7299445999997,361.8800747000005,f,1,1.6613325999987865,None,left,6,"[19, 20, 17, 18, 15, 17, 13, 14, 11, 12]",10,shiftedgaze_L_6.png,f,1,1,results29,001,2026-04-20_13h08.25.765,mogelijke versie adaptive staircase builder,,2026.1.3,60.059338626549774,2026-04-20 13h08.26.147163 +0200,
4.5,ecc10pos,left,27,0,27,f,1,1.704747199999474,None,0,0,0,0,27,0,27,0,362.08847120000064,,,,,,,,,,,,,,,362.07728099999986,362.08847120000064,362.08847120000064,362.08847120000064,362.8797095000009,363.79689979999966,f,1,1.704747199999474,None,left,5,"[19, 20, 17, 18, 15, 17, 13, 14, 11, 12]",10,shiftedgaze_L_5.png,f,1,1,results29,001,2026-04-20_13h08.25.765,mogelijke versie adaptive staircase builder,,2026.1.3,60.059338626549774,2026-04-20 13h08.26.147163 +0200,
4.5,ecc10pos,left,28,0,28,f,1,1.8311238000005687,None,0,0,0,0,28,0,28,0,364.01794449999943,,,,,,,,,,,,,,,364.00750420000077,364.01794449999943,364.01794449999943,364.01794449999943,364.79635620000045,365.86328350000076,f,1,1.8311238000005687,None,right,4,"[19, 20, 17, 18, 15, 17, 13, 14, 11, 12]",10,shiftedgaze_R_4.png,f,1,1,results29,001,2026-04-20_13h08.25.765,mogelijke versie adaptive staircase builder,,2026.1.3,60.059338626549774,2026-04-20 13h08.26.147163 +0200,
4.5,ecc10pos,left,29,0,29,f,0,1.9934763999990537,None,0,0,0,0,29,0,29,0,365.9602868000002,,,,,,,,,,,,,,,365.94955090000076,365.9602868000002,365.9602868000002,365.9602868000002,366.8629586999996,367.9633897999993,f,0,1.9934763999990537,None,direct,3,"[19, 20, 17, 18, 15, 17, 13, 14, 11, 12, 3]",11,shifteddirectgaze.png,f,0,1,results29,001,2026-04-20_13h08.25.765,mogelijke versie adaptive staircase builder,,2026.1.3,60.059338626549774,2026-04-20 13h08.26.147163 +0200,
4.5,ecc10pos,left,30,0,30,f,0,1.7881338000006508,None,0,0,0,0,30,0,30,0,368.0611136999996,,,,,,,,,,,,,,,368.0503377999994,368.0611136999996,368.0611136999996,368.0611136999996,368.962829600001,369.8630587000007,f,0,1.7881338000006508,None,direct,4,"[19, 20, 17, 18, 15, 17, 13, 14, 11, 12, 3]",11,shifteddirectgaze.png,f,0,1,results29,001,2026-04-20_13h08.25.765,mogelijke versie adaptive staircase builder,,2026.1.3,60.059338626549774,2026-04-20 13h08.26.147163 +0200,
4.5,ecc10pos,left,31,0,31,f,0,2.8336321000006137,None,0,0,0,0,31,0,31,0,369.95956149999984,,,,,,,,,,,,,,,369.9488550999995,369.95956149999984,369.95956149999984,369.95956149999984,370.86289080000097,372.7965717999996,f,0,2.8336321000006137,None,direct,5,"[19, 20, 17, 18, 15, 17, 13, 14, 11, 12, 3]",11,shifteddirectgaze.png,f,0,1,results29,001,2026-04-20_13h08.25.765,mogelijke versie adaptive staircase builder,,2026.1.3,60.059338626549774,2026-04-20 13h08.26.147163 +0200,
4.5,ecc10pos,left,32,0,32,f,0,2.1787499000001844,None,0,0,0,0,32,0,32,0,372.8943720999996,,,,,,,,,,,,,,,372.88338870000007,372.8943720999996,372.8943720999996,372.8943720999996,373.79624350000086,375.07997520000026,f,0,2.1787499000001844,None,direct,6,"[19, 20, 17, 18, 15, 17, 13, 14, 11, 12, 3]",11,shifteddirectgaze.png,f,0,1,results29,001,2026-04-20_13h08.25.765,mogelijke versie adaptive staircase builder,,2026.1.3,60.059338626549774,2026-04-20 13h08.26.147163 +0200,
4.5,ecc10pos,left,33,0,33,f,1,2.14423429999988,None,0,0,0,0,33,0,33,0,375.1769430000004,,,,,,,,,,,,,,,375.1665346000009,375.1769430000004,375.1769430000004,375.1769430000004,376.0795192000005,377.32993720000013,f,1,2.14423429999988,None,right,7,"[19, 20, 17, 18, 15, 17, 13, 14, 11, 12, 3, 7]",12,shiftedgaze_R_7.png,f,1,1,results29,001,2026-04-20_13h08.25.765,mogelijke versie adaptive staircase builder,,2026.1.3,60.059338626549774,2026-04-20 13h08.26.147163 +0200,
4.5,ecc10pos,left,34,0,34,f,1,1.8769320000010339,None,0,0,0,0,34,0,34,0,377.4201266,,,,,,,,,,,,,,,377.40938559999995,377.4201266,377.4201266,377.4201266,378.32958150000013,379.3133211000004,f,1,1.8769320000010339,None,left,6,"[19, 20, 17, 18, 15, 17, 13, 14, 11, 12, 3, 7]",12,shiftedgaze_L_6.png,f,1,1,results29,001,2026-04-20_13h08.25.765,mogelijke versie adaptive staircase builder,,2026.1.3,60.059338626549774,2026-04-20 13h08.26.147163 +0200,
4.5,ecc10pos,left,35,0,35,f,1,1.9617847999998048,None,0,0,0,0,35,0,35,0,379.4082027000004,,,,,,,,,,,,,,,379.3966651999999,379.4082027000004,379.4082027000004,379.4082027000004,380.31276590000016,381.3798595999997,f,1,1.9617847999998048,None,left,5,"[19, 20, 17, 18, 15, 17, 13, 14, 11, 12, 3, 7]",12,shiftedgaze_L_5.png,f,1,1,results29,001,2026-04-20_13h08.25.765,mogelijke versie adaptive staircase builder,,2026.1.3,60.059338626549774,2026-04-20 13h08.26.147163 +0200,
4.5,ecc10pos,left,36,0,36,f,1,1.8719615999998496,None,0,0,0,0,36,0,36,0,381.47330429999965,,,,,,,,,,,,,,,381.4619703999997,381.47330429999965,381.47330429999965,381.47330429999965,382.37953430000016,383.346633000001,f,1,1.8719615999998496,None,right,4,"[19, 20, 17, 18, 15, 17, 13, 14, 11, 12, 3, 7]",12,shiftedgaze_R_4.png,f,1,1,results29,001,2026-04-20_13h08.25.765,mogelijke versie adaptive staircase builder,,2026.1.3,60.059338626549774,2026-04-20 13h08.26.147163 +0200,
4.5,ecc10pos,left,37,0,37,f,1,1.6754516000000876,None,0,0,0,0,37,0,37,0,383.79771600000095,,,,,,,,,,,,,,,383.78734819999954,383.79771600000095,383.79771600000095,383.79771600000095,384.34610559999965,385.4801559999996,f,1,1.6754516000000876,None,right,3,"[19, 20, 17, 18, 15, 17, 13, 14, 11, 12, 3, 7]",12,shiftedgaze_R_3.png,f,1,1,results29,001,2026-04-20_13h08.25.765,mogelijke versie adaptive staircase builder,,2026.1.3,60.059338626549774,2026-04-20 13h08.26.147163 +0200,
4.5,ecc10pos,left,38,0,38,f,1,1.96399940000083,None,0,0,0,0,38,0,38,0,385.7011934000002,,,,,,,,,,,,,,,385.6868009000009,385.7011934000002,385.7011934000002,385.7011934000002,386.4795324000006,387.6801109000007,f,1,1.96399940000083,None,right,2,"[19, 20, 17, 18, 15, 17, 13, 14, 11, 12, 3, 7]",12,shiftedgaze_R_2.png,f,1,1,results29,001,2026-04-20_13h08.25.765,mogelijke versie adaptive staircase builder,,2026.1.3,60.059338626549774,2026-04-20 13h08.26.147163 +0200,
4.5,ecc10pos,left,39,0,39,f,1,1.8536514999996143,None,0,0,0,0,39,0,39,0,387.80345959999977,,,,,,,,,,,,,,,387.79197270000077,387.80345959999977,387.80345959999977,387.80345959999977,388.6795488000007,389.6632793000008,f,1,1.8536514999996143,None,right,1,"[19, 20, 17, 18, 15, 17, 13, 14, 11, 12, 3, 7]",12,shiftedgaze_R_1.png,f,1,1,results29,001,2026-04-20_13h08.25.765,mogelijke versie adaptive staircase builder,,2026.1.3,60.059338626549774,2026-04-20 13h08.26.147163 +0200,
4.5,ecc10pos,left,40,0,40,f,1,2.627112100000886,None,0,0,0,0,40,0,40,0,389.8460520000008,,,,,,,,,,,,,,,389.8341373000003,389.8460520000008,389.8460520000008,389.8460520000008,390.6629739,392.4799889999995,f,1,2.627112100000886,None,left,1,"[19, 20, 17, 18, 15, 17, 13, 14, 11, 12, 3, 7]",12,shiftedgaze_L_1.png,f,1,1,results29,001,2026-04-20_13h08.25.765,mogelijke versie adaptive staircase builder,,2026.1.3,60.059338626549774,2026-04-20 13h08.26.147163 +0200,
4.5,ecc10pos,left,41,0,41,f,1,1.9301527999996324,None,0,0,0,0,41,0,41,0,392.5909350000002,,,,,,,,,,,,,,,392.5787841000001,392.5909350000002,392.5909350000002,392.5909350000002,393.4796086000006,394.5300575000001,f,1,1.9301527999996324,None,left,1,"[19, 20, 17, 18, 15, 17, 13, 14, 11, 12, 3, 7]",12,shiftedgaze_L_1.png,f,1,1,results29,001,2026-04-20_13h08.25.765,mogelijke versie adaptive staircase builder,,2026.1.3,60.059338626549774,2026-04-20 13h08.26.147163 +0200,
4.5,ecc10pos,left,42,0,42,f,1,2.111621899999591,None,0,0,0,0,42,0,42,0,394.64145310000094,,,,,,,,,,,,,,,394.63117460000103,394.64145310000094,394.64145310000094,394.64145310000094,395.52941330000067,396.76294020000023,f,1,2.111621899999591,None,right,1,"[19, 20, 17, 18, 15, 17, 13, 14, 11, 12, 3, 7]",12,shiftedgaze_R_1.png,f,1,1,results29,001,2026-04-20_13h08.25.765,mogelijke versie adaptive staircase builder,,2026.1.3,60.059338626549774,2026-04-20 13h08.26.147163 +0200,
4.5,ecc10pos,left,43,0,43,f,1,2.237810900000113,None,0,0,0,0,43,0,43,0,396.8593684000007,,,,,,,,,,,,,,,396.84801230000085,396.8593684000007,396.8593684000007,396.8593684000007,397.76247950000106,399.11300010000014,f,1,2.237810900000113,None,left,1,"[19, 20, 17, 18, 15, 17, 13, 14, 11, 12, 3, 7]",12,shiftedgaze_L_1.png,f,1,1,results29,001,2026-04-20_13h08.25.765,mogelijke versie adaptive staircase builder,,2026.1.3,60.059338626549774,2026-04-20 13h08.26.147163 +0200,
4.5,ecc10pos,left,44,0,44,f,1,2.2279131000013876,None,0,0,0,0,44,0,44,0,399.2132058999996,,,,,,,,,,,,,,,399.20301010000003,399.2132058999996,399.2132058999996,399.2132058999996,400.1124909000009,401.44635279999966,f,1,2.2279131000013876,None,right,1,"[19, 20, 17, 18, 15, 17, 13, 14, 11, 12, 3, 7]",12,shiftedgaze_R_1.png,f,1,1,results29,001,2026-04-20_13h08.25.765,mogelijke versie adaptive staircase builder,,2026.1.3,60.059338626549774,2026-04-20 13h08.26.147163 +0200,
4.5,ecc10pos,left,45,0,45,f,0,2.5055811000001995,None,0,0,0,0,45,0,45,0,401.55156220000026,,,,,,,,,,,,,,,401.5405774999999,401.55156220000026,401.55156220000026,401.55156220000026,402.4457911999998,404.0627697,f,0,2.5055811000001995,None,direct,1,"[19, 20, 17, 18, 15, 17, 13, 14, 11, 12, 3, 7, 0]",13,shifteddirectgaze.png,f,0,1,results29,001,2026-04-20_13h08.25.765,mogelijke versie adaptive staircase builder,,2026.1.3,60.059338626549774,2026-04-20 13h08.26.147163 +0200,
4.5,ecc10pos,left,46,0,46,f,0,2.2847802999986015,None,0,0,0,0,46,0,46,0,404.1564527999999,,,,,,,,,,,,,,,404.1454893000009,404.1564527999999,404.1564527999999,404.1564527999999,405.06253800000013,406.44612830000005,f,0,2.2847802999986015,None,direct,1,"[19, 20, 17, 18, 15, 17, 13, 14, 11, 12, 3, 7, 0]",13,shifteddirectgaze.png,f,0,1,results29,001,2026-04-20_13h08.25.765,mogelijke versie adaptive staircase builder,,2026.1.3,60.059338626549774,2026-04-20 13h08.26.147163 +0200,
4.5,ecc10pos,left,47,0,47,f,0,2.249230700001135,None,0,0,0,0,47,0,47,0,406.5359224999993,,,,,,,,,,,,,,,406.52501499999926,406.5359224999993,406.5359224999993,406.5359224999993,407.44583220000095,408.79594010000073,f,0,2.249230700001135,None,direct,2,"[19, 20, 17, 18, 15, 17, 13, 14, 11, 12, 3, 7, 0]",13,shifteddirectgaze.png,f,0,1,results29,001,2026-04-20_13h08.25.765,mogelijke versie adaptive staircase builder,,2026.1.3,60.059338626549774,2026-04-20 13h08.26.147163 +0200,
4.5,ecc10pos,left,48,0,48,f,0,2.4726551999992807,None,0,0,0,0,48,0,48,0,408.88864880000074,,,,,,,,,,,,,,,408.8773774000001,408.88864880000074,408.88864880000074,408.88864880000074,409.7957440000009,411.36274179999964,f,0,2.4726551999992807,None,direct,3,"[19, 20, 17, 18, 15, 17, 13, 14, 11, 12, 3, 7, 0]",13,shifteddirectgaze.png,f,0,1,results29,001,2026-04-20_13h08.25.765,mogelijke versie adaptive staircase builder,,2026.1.3,60.059338626549774,2026-04-20 13h08.26.147163 +0200,
4.5,ecc10pos,left,49,0,49,f,1,1.900907899998856,None,0,0,0,0,49,0,49,0,411.8123164999997,,,,,,,,,,,,,,,411.8015617000001,411.8123164999997,411.8123164999997,411.8123164999997,412.3622789000001,413.7292383999993,f,1,1.900907899998856,None,left,4,"[19, 20, 17, 18, 15, 17, 13, 14, 11, 12, 3, 7, 0, 4]",14,shiftedgaze_L_4.png,f,1,1,results29,001,2026-04-20_13h08.25.765,mogelijke versie adaptive staircase builder,,2026.1.3,60.059338626549774,2026-04-20 13h08.26.147163 +0200,
4.5,ecc10pos,left,50,0,50,f,0,2.0454233000000386,None,0,0,0,0,50,0,50,0,413.81977820000066,,,,,,,,,,,,,,,413.80888140000025,413.81977820000066,413.81977820000066,413.81977820000066,414.72891300000083,415.8793545999997,f,0,2.0454233000000386,None,direct,3,"[19, 20, 17, 18, 15, 17, 13, 14, 11, 12, 3, 7, 0, 4, 3]",15,shifteddirectgaze.png,f,0,1,results29,001,2026-04-20_13h08.25.765,mogelijke versie adaptive staircase builder,,2026.1.3,60.059338626549774,2026-04-20 13h08.26.147163 +0200,
4.5,ecc10pos,left,51,0,51,f,1,2.080895999999484,None,0,0,0,0,51,0,51,0,415.9684311000001,,,,,,,,,,,,,,,415.95760150000024,415.9684311000001,415.9684311000001,415.9684311000001,416.8790568000004,418.06265619999976,f,1,2.080895999999484,None,right,4,"[19, 20, 17, 18, 15, 17, 13, 14, 11, 12, 3, 7, 0, 4, 3, 4]",16,shiftedgaze_R_4.png,f,1,1,results29,001,2026-04-20_13h08.25.765,mogelijke versie adaptive staircase builder,,2026.1.3,60.059338626549774,2026-04-20 13h08.26.147163 +0200,
4.5,ecc10pos,left,52,0,52,f,1,2.1549619999987044,None,0,0,0,0,52,0,52,0,418.16623849999996,,,,,,,,,,,,,,,418.15593459999945,418.16623849999996,418.16623849999996,418.16623849999996,419.06233600000087,420.32933070000036,f,1,2.1549619999987044,None,right,3,"[19, 20, 17, 18, 15, 17, 13, 14, 11, 12, 3, 7, 0, 4, 3, 4]",16,shiftedgaze_R_3.png,f,1,1,results29,001,2026-04-20_13h08.25.765,mogelijke versie adaptive staircase builder,,2026.1.3,60.059338626549774,2026-04-20 13h08.26.147163 +0200,
4.5,ecc10pos,left,53,0,53,f,0,2.499750800001493,None,0,0,0,0,53,0,53,0,420.42146610000054,,,,,,,,,,,,,,,420.41063310000027,420.42146610000054,420.42146610000054,420.42146610000054,421.3288243999996,422.9294119999995,f,0,2.499750800001493,None,direct,2,"[19, 20, 17, 18, 15, 17, 13, 14, 11, 12, 3, 7, 0, 4, 3, 4, 2]",17,shifteddirectgaze.png,f,0,1,results29,001,2026-04-20_13h08.25.765,mogelijke versie adaptive staircase builder,,2026.1.3,60.059338626549774,2026-04-20 13h08.26.147163 +0200,
4.5,ecc10pos,left,54,0,54,f,1,1.728034599998864,None,0,0,0,0,54,0,54,0,423.3931661000006,,,,,,,,,,,,,,,423.3826062999997,423.3931661000006,423.3931661000006,423.3931661000006,423.92882420000024,425.12927260000106,f,1,1.728034599998864,None,left,3,"[19, 20, 17, 18, 15, 17, 13, 14, 11, 12, 3, 7, 0, 4, 3, 4, 2, 3]",18,shiftedgaze_L_3.png,f,1,1,results29,001,2026-04-20_13h08.25.765,mogelijke versie adaptive staircase builder,,2026.1.3,60.059338626549774,2026-04-20 13h08.26.147163 +0200,
4.5,ecc10pos,left,55,0,55,f,1,2.063373999999385,None,0,0,0,0,55,0,55,0,425.3378154000002,,,,,,,,,,,,,,,425.32718829999976,425.3378154000002,425.3378154000002,425.3378154000002,426.12884570000097,427.4127601,f,1,2.063373999999385,None,left,2,"[19, 20, 17, 18, 15, 17, 13, 14, 11, 12, 3, 7, 0, 4, 3, 4, 2, 3]",18,shiftedgaze_L_2.png,f,1,1,results29,001,2026-04-20_13h08.25.765,mogelijke versie adaptive staircase builder,,2026.1.3,60.059338626549774,2026-04-20 13h08.26.147163 +0200,
4.5,ecc10pos,left,56,0,56,f,1,2.2542536000000837,None,0,0,0,0,56,0,56,0,427.50705150000067,,,,,,,,,,,,,,,427.4962536000003,427.50705150000067,427.50705150000067,427.50705150000067,428.4125457000009,429.76261870000053,f,1,2.2542536000000837,None,left,1,"[19, 20, 17, 18, 15, 17, 13, 14, 11, 12, 3, 7, 0, 4, 3, 4, 2, 3]",18,shiftedgaze_L_1.png,f,1,1,results29,001,2026-04-20_13h08.25.765,mogelijke versie adaptive staircase builder,,2026.1.3,60.059338626549774,2026-04-20 13h08.26.147163 +0200,
4.5,ecc10pos,left,57,0,57,f,1,2.069414499999766,None,0,0,0,0,57,0,57,0,429.8517941000009,,,,,,,,,,,,,,,429.8411237,429.8517941000009,429.8517941000009,429.8517941000009,430.7621574999994,431.92907299999933,f,1,2.069414499999766,None,right,1,"[19, 20, 17, 18, 15, 17, 13, 14, 11, 12, 3, 7, 0, 4, 3, 4, 2, 3]",18,shiftedgaze_R_1.png,f,1,1,results29,001,2026-04-20_13h08.25.765,mogelijke versie adaptive staircase builder,,2026.1.3,60.059338626549774,2026-04-20 13h08.26.147163 +0200,
4.5,ecc10pos,left,58,0,58,f,1,2.0759425000014744,None,0,0,0,0,58,0,58,0,432.02120509999986,,,,,,,,,,,,,,,432.0105760000006,432.02120509999986,432.02120509999986,432.02120509999986,432.92871899999955,434.1124225000003,f,1,2.0759425000014744,None,left,1,"[19, 20, 17, 18, 15, 17, 13, 14, 11, 12, 3, 7, 0, 4, 3, 4, 2, 3]",18,shiftedgaze_L_1.png,f,1,1,results29,001,2026-04-20_13h08.25.765,mogelijke versie adaptive staircase builder,,2026.1.3,60.059338626549774,2026-04-20 13h08.26.147163 +0200,
4.5,ecc10pos,left,59,0,59,f,1,1.9631814000003942,None,0,0,0,0,59,0,59,0,434.2061080000003,,,,,,,,,,,,,,,434.19481910000104,434.2061080000003,434.2061080000003,434.2061080000003,435.1121053000006,436.17913880000015,f,1,1.9631814000003942,None,left,1,"[19, 20, 17, 18, 15, 17, 13, 14, 11, 12, 3, 7, 0, 4, 3, 4, 2, 3]",18,shiftedgaze_L_1.png,f,1,1,results29,001,2026-04-20_13h08.25.765,mogelijke versie adaptive staircase builder,,2026.1.3,60.059338626549774,2026-04-20 13h08.26.147163 +0200,
4.5,ecc10pos,left,0,0,0,,,,,0,0,0,0,,,,,,,,,,,,,,,,,,,,,,,,,,,,,,,,,,,,,,results29,001,2026-04-20_13h08.25.765,mogelijke versie adaptive staircase builder,,2026.1.3,60.059338626549774,2026-04-20 13h08.26.147163 +0200,
12.5,ecc0,mid,0,0,0,f,0,3.3777153999999427,None,0,1,1,1,0,0,0,0,436.27139480000005,,,,,,,,,,,,,436.18152759999975,436.18156439999984,436.26086700000087,436.27139480000005,437.1953622000001,436.27139480000005,436.27139480000005,439.6625268000007,f,0,3.3777153999999427,None,direct,20,[],0,direct_gaze.png,f,0,2,results29,001,2026-04-20_13h08.25.765,mogelijke versie adaptive staircase builder,,2026.1.3,60.059338626549774,2026-04-20 13h08.26.147163 +0200,
12.5,ecc0,mid,1,0,1,j,1,1.7928334000007453,None,0,1,1,1,1,0,1,0,439.75243480000063,,,,,,,,,,,,,,,439.7415806000008,439.75243480000063,440.66274859999976,439.75243480000063,439.75243480000063,441.54573320000054,j,1,1.7928334000007453,None,direct,20,[20],1,direct_gaze.png,j,1,2,results29,001,2026-04-20_13h08.25.765,mogelijke versie adaptive staircase builder,,2026.1.3,60.059338626549774,2026-04-20 13h08.26.147163 +0200,
12.5,ecc0,mid,2,0,2,j,0,2.178830200000448,None,0,1,1,1,2,0,2,0,441.6463841999994,,,,,,,,,,,,,,,441.63623820000066,441.6463841999994,442.545253100001,441.6463841999994,441.6463841999994,443.82910249999986,j,0,2.178830200000448,None,left,19,"[20, 19]",2,gaze_L_19.png,j,0,2,results29,001,2026-04-20_13h08.25.765,mogelijke versie adaptive staircase builder,,2026.1.3,60.059338626549774,2026-04-20 13h08.26.147163 +0200,
12.5,ecc0,mid,3,0,3,j,0,1.8711822999994183,None,0,1,1,1,3,0,3,0,443.930045000001,,,,,,,,,,,,,,,443.91912070000035,443.930045000001,444.8285477999998,443.930045000001,443.930045000001,445.8122989000003,j,0,1.8711822999994183,None,right,20,"[20, 19]",2,gaze_R_20.png,j,0,2,results29,001,2026-04-20_13h08.25.765,mogelijke versie adaptive staircase builder,,2026.1.3,60.059338626549774,2026-04-20 13h08.26.147163 +0200,
12.5,ecc0,mid,4,0,4,j,1,2.881440199998906,None,0,1,1,1,4,0,4,0,445.90435720000096,,,,,,,,,,,,,,,445.8924320999995,445.90435720000096,446.8118472999995,445.90435720000096,445.90435720000096,448.7956740000009,j,1,2.881440199998906,None,direct,20,"[20, 19, 20]",3,direct_gaze.png,j,1,2,results29,001,2026-04-20_13h08.25.765,mogelijke versie adaptive staircase builder,,2026.1.3,60.059338626549774,2026-04-20 13h08.26.147163 +0200,
12.5,ecc0,mid,5,0,5,j,1,1.9700840000004973,None,0,1,1,1,5,0,5,0,448.8871916999997,,,,,,,,,,,,,,,448.8763486000007,448.8871916999997,449.79534520000016,448.8871916999997,448.8871916999997,450.86200669999926,j,1,1.9700840000004973,None,direct,19,"[20, 19, 20]",3,direct_gaze.png,j,1,2,results29,001,2026-04-20_13h08.25.765,mogelijke versie adaptive staircase builder,,2026.1.3,60.059338626549774,2026-04-20 13h08.26.147163 +0200,
12.5,ecc0,mid,6,0,6,j,0,1.7762206999996124,None,0,1,1,1,6,0,6,0,450.9609371000006,,,,,,,,,,,,,,,450.94997929999954,450.9609371000006,451.86181639999995,450.9609371000006,450.9609371000006,452.7455344000009,j,0,1.7762206999996124,None,right,18,"[20, 19, 20, 18]",4,gaze_R_18.png,j,0,2,results29,001,2026-04-20_13h08.25.765,mogelijke versie adaptive staircase builder,,2026.1.3,60.059338626549774,2026-04-20 13h08.26.147163 +0200,
12.5,ecc0,mid,7,0,7,j,0,1.892058299999917,None,0,1,1,1,7,0,7,0,452.83717869999964,,,,,,,,,,,,,,,452.8259536000005,452.83717869999964,453.7452876999996,452.83717869999964,452.83717869999964,454.74560829999973,j,0,1.892058299999917,None,left,19,"[20, 19, 20, 18]",4,gaze_L_19.png,j,0,2,results29,001,2026-04-20_13h08.25.765,mogelijke versie adaptive staircase builder,,2026.1.3,60.059338626549774,2026-04-20 13h08.26.147163 +0200,
12.5,ecc0,mid,8,0,8,j,0,1.8305426000006264,None,0,1,1,1,8,0,8,0,454.84264840000105,,,,,,,,,,,,,,,454.83200860000034,454.84264840000105,455.74509279999984,454.84264840000105,454.84264840000105,456.67878700000074,j,0,1.8305426000006264,None,left,20,"[20, 19, 20, 18]",4,gaze_L_20.png,j,0,2,results29,001,2026-04-20_13h08.25.765,mogelijke versie adaptive staircase builder,,2026.1.3,60.059338626549774,2026-04-20 13h08.26.147163 +0200,
12.5,ecc0,mid,9,0,9,j,0,2.052851600001304,None,0,1,1,1,9,0,9,0,456.772308900001,,,,,,,,,,,,,,,456.7609444000009,456.772308900001,457.6784098999997,456.772308900001,456.772308900001,458.8285512000002,j,0,2.052851600001304,None,right,20,"[20, 19, 20, 18]",4,gaze_R_20.png,j,0,2,results29,001,2026-04-20_13h08.25.765,mogelijke versie adaptive staircase builder,,2026.1.3,60.059338626549774,2026-04-20 13h08.26.147163 +0200,
12.5,ecc0,mid,10,0,10,j,0,1.8025280000001658,None,0,1,1,1,10,0,10,0,458.9186270000009,,,,,,,,,,,,,,,458.9083279999995,458.9186270000009,459.8283517,458.9186270000009,458.9186270000009,460.7287914000008,j,0,1.8025280000001658,None,left,20,"[20, 19, 20, 18]",4,gaze_L_20.png,j,0,2,results29,001,2026-04-20_13h08.25.765,mogelijke versie adaptive staircase builder,,2026.1.3,60.059338626549774,2026-04-20 13h08.26.147163 +0200,
12.5,ecc0,mid,11,0,11,j,1,1.7195207999993727,None,0,1,1,1,11,0,11,0,460.8177551000008,,,,,,,,,,,,,,,460.80702159999964,460.8177551000008,461.7283298000002,460.8177551000008,460.8177551000008,462.5454836000008,j,1,1.7195207999993727,None,direct,20,"[20, 19, 20, 18, 20]",5,direct_gaze.png,j,1,2,results29,001,2026-04-20_13h08.25.765,mogelijke versie adaptive staircase builder,,2026.1.3,60.059338626549774,2026-04-20 13h08.26.147163 +0200,
12.5,ecc0,mid,12,0,12,j,0,1.6190150000002177,None,0,1,1,1,12,0,12,0,462.6462317000005,,,,,,,,,,,,,,,462.63508379999985,462.6462317000005,463.5455378000006,462.6462317000005,462.6462317000005,464.27922639999997,j,0,1.6190150000002177,None,right,19,"[20, 19, 20, 18, 20, 19]",6,gaze_R_19.png,j,0,2,results29,001,2026-04-20_13h08.25.765,mogelijke versie adaptive staircase builder,,2026.1.3,60.059338626549774,2026-04-20 13h08.26.147163 +0200,
12.5,ecc0,mid,13,0,13,j,0,1.9383051999993768,None,0,1,1,1,13,0,13,0,464.3829136000004,,,,,,,,,,,,,,,464.3708774000006,464.3829136000004,465.27865829999973,464.3829136000004,464.3829136000004,466.32904100000087,j,0,1.9383051999993768,None,left,20,"[20, 19, 20, 18, 20, 19]",6,gaze_L_20.png,j,0,2,results29,001,2026-04-20_13h08.25.765,mogelijke versie adaptive staircase builder,,2026.1.3,60.059338626549774,2026-04-20 13h08.26.147163 +0200,
12.5,ecc0,mid,14,0,14,j,1,1.690822600001411,None,0,1,1,1,14,0,14,0,466.4304511999999,,,,,,,,,,,,,,,466.41930409999986,466.4304511999999,467.3287784000004,466.4304511999999,466.4304511999999,468.1292477999996,j,1,1.690822600001411,None,direct,20,"[20, 19, 20, 18, 20, 19, 20]",7,direct_gaze.png,j,1,2,results29,001,2026-04-20_13h08.25.765,mogelijke versie adaptive staircase builder,,2026.1.3,60.059338626549774,2026-04-20 13h08.26.147163 +0200,
12.5,ecc0,mid,15,0,15,j,0,1.6777815999994345,None,0,1,1,1,15,0,15,0,468.2354266000002,,,,,,,,,,,,,,,468.22141460000057,468.2354266000002,469.12847280000096,468.2354266000002,468.2354266000002,469.92884550000053,j,0,1.6777815999994345,None,right,19,"[20, 19, 20, 18, 20, 19, 20, 19]",8,gaze_R_19.png,j,0,2,results29,001,2026-04-20_13h08.25.765,mogelijke versie adaptive staircase builder,,2026.1.3,60.059338626549774,2026-04-20 13h08.26.147163 +0200,
12.5,ecc0,mid,16,0,16,j,0,1.801839399999153,None,0,1,1,1,16,0,16,0,470.0314844000004,,,,,,,,,,,,,,,470.019896400001,470.0314844000004,470.92853990000003,470.0314844000004,470.0314844000004,471.8457966999995,j,0,1.801839399999153,None,right,20,"[20, 19, 20, 18, 20, 19, 20, 19]",8,gaze_R_20.png,j,0,2,results29,001,2026-04-20_13h08.25.765,mogelijke versie adaptive staircase builder,,2026.1.3,60.059338626549774,2026-04-20 13h08.26.147163 +0200,
12.5,ecc0,mid,17,0,17,j,0,1.7896395999996457,None,0,1,1,1,17,0,17,0,471.947650600001,,,,,,,,,,,,,,,471.93509170000107,471.947650600001,472.84522860000106,471.947650600001,471.947650600001,473.74571839999953,j,0,1.7896395999996457,None,right,20,"[20, 19, 20, 18, 20, 19, 20, 19]",8,gaze_R_20.png,j,0,2,results29,001,2026-04-20_13h08.25.765,mogelijke versie adaptive staircase builder,,2026.1.3,60.059338626549774,2026-04-20 13h08.26.147163 +0200,
12.5,ecc0,mid,18,0,18,j,1,1.6861909999988711,None,0,1,1,1,18,0,18,0,473.8512045000007,,,,,,,,,,,,,,,473.83663069999966,473.8512045000007,474.7615339999993,473.8512045000007,473.8512045000007,475.5451656000005,j,1,1.6861909999988711,None,direct,20,"[20, 19, 20, 18, 20, 19, 20, 19, 20]",9,direct_gaze.png,j,1,2,results29,001,2026-04-20_13h08.25.765,mogelijke versie adaptive staircase builder,,2026.1.3,60.059338626549774,2026-04-20 13h08.26.147163 +0200,
12.5,ecc0,mid,19,0,19,j,1,1.675695399999313,None,0,1,1,1,19,0,19,0,475.6375566000006,,,,,,,,,,,,,,,475.62684609999997,475.6375566000006,476.5447569000007,475.6375566000006,475.6375566000006,477.32862320000095,j,1,1.675695399999313,None,direct,19,"[20, 19, 20, 18, 20, 19, 20, 19, 20]",9,direct_gaze.png,j,1,2,results29,001,2026-04-20_13h08.25.765,mogelijke versie adaptive staircase builder,,2026.1.3,60.059338626549774,2026-04-20 13h08.26.147163 +0200,
12.5,ecc0,mid,20,0,20,j,0,1.7477827000002435,None,0,1,1,1,20,0,20,0,477.42954140000074,,,,,,,,,,,,,,,477.4189595000007,477.42954140000074,478.3281401999993,477.42954140000074,477.42954140000074,479.17855790000067,j,0,1.7477827000002435,None,left,18,"[20, 19, 20, 18, 20, 19, 20, 19, 20, 18]",10,gaze_L_18.png,j,0,2,results29,001,2026-04-20_13h08.25.765,mogelijke versie adaptive staircase builder,,2026.1.3,60.059338626549774,2026-04-20 13h08.26.147163 +0200,
12.5,ecc0,mid,21,0,21,j,0,1.8697563000005175,None,0,1,1,1,21,0,21,0,479.2675758000005,,,,,,,,,,,,,,,479.257150200001,479.2675758000005,480.17812310000045,479.2675758000005,479.2675758000005,481.1452346999995,j,0,1.8697563000005175,None,right,19,"[20, 19, 20, 18, 20, 19, 20, 19, 20, 18]",10,gaze_R_19.png,j,0,2,results29,001,2026-04-20_13h08.25.765,mogelijke versie adaptive staircase builder,,2026.1.3,60.059338626549774,2026-04-20 13h08.26.147163 +0200,
12.5,ecc0,mid,22,0,22,j,0,1.763217199999417,None,0,1,1,1,22,0,22,0,481.239000900001,,,,,,,,,,,,,,,481.2277821000007,481.239000900001,482.1447291000004,481.239000900001,481.239000900001,483.01178450000043,j,0,1.763217199999417,None,left,20,"[20, 19, 20, 18, 20, 19, 20, 19, 20, 18]",10,gaze_L_20.png,j,0,2,results29,001,2026-04-20_13h08.25.765,mogelijke versie adaptive staircase builder,,2026.1.3,60.059338626549774,2026-04-20 13h08.26.147163 +0200,
12.5,ecc0,mid,23,0,23,j,0,1.7930606000008993,None,0,1,1,1,23,0,23,0,483.10419569999976,,,,,,,,,,,,,,,483.09316539999963,483.10419569999976,484.0113562000006,483.10419569999976,483.10419569999976,484.9116432999999,j,0,1.7930606000008993,None,left,20,"[20, 19, 20, 18, 20, 19, 20, 19, 20, 18]",10,gaze_L_20.png,j,0,2,results29,001,2026-04-20_13h08.25.765,mogelijke versie adaptive staircase builder,,2026.1.3,60.059338626549774,2026-04-20 13h08.26.147163 +0200,
12.5,ecc0,mid,24,0,24,j,0,1.8779104000004736,None,0,1,1,1,24,0,24,0,485.00339650000024,,,,,,,,,,,,,,,484.9925062000002,485.00339650000024,485.9115103000004,485.00339650000024,485.00339650000024,486.89522709999983,j,0,1.8779104000004736,None,right,20,"[20, 19, 20, 18, 20, 19, 20, 19, 20, 18]",10,gaze_R_20.png,j,0,2,results29,001,2026-04-20_13h08.25.765,mogelijke versie adaptive staircase builder,,2026.1.3,60.059338626549774,2026-04-20 13h08.26.147163 +0200,
12.5,ecc0,mid,25,0,25,j,0,1.7965155999991111,None,0,1,1,1,25,0,25,0,486.9888279000006,,,,,,,,,,,,,,,486.97737419999976,486.9888279000006,487.89477740000075,486.9888279000006,486.9888279000006,488.79508329999953,j,0,1.7965155999991111,None,right,20,"[20, 19, 20, 18, 20, 19, 20, 19, 20, 18]",10,gaze_R_20.png,j,0,2,results29,001,2026-04-20_13h08.25.765,mogelijke versie adaptive staircase builder,,2026.1.3,60.059338626549774,2026-04-20 13h08.26.147163 +0200,
12.5,ecc0,mid,26,0,26,j,0,1.762118399999963,None,0,1,1,1,26,0,26,0,488.88707609999983,,,,,,,,,,,,,,,488.8759635999995,488.88707609999983,489.79468740000084,488.88707609999983,488.88707609999983,490.6617244000008,j,0,1.762118399999963,None,right,20,"[20, 19, 20, 18, 20, 19, 20, 19, 20, 18]",10,gaze_R_20.png,j,0,2,results29,001,2026-04-20_13h08.25.765,mogelijke versie adaptive staircase builder,,2026.1.3,60.059338626549774,2026-04-20 13h08.26.147163 +0200,
12.5,ecc0,mid,27,0,27,j,0,1.8101272999992943,None,0,1,1,1,27,0,27,0,490.7516909999995,,,,,,,,,,,,,,,490.74142369999936,490.7516909999995,491.6612992999999,490.7516909999995,490.7516909999995,492.57845629999974,j,0,1.8101272999992943,None,left,20,"[20, 19, 20, 18, 20, 19, 20, 19, 20, 18]",10,gaze_L_20.png,j,0,2,results29,001,2026-04-20_13h08.25.765,mogelijke versie adaptive staircase builder,,2026.1.3,60.059338626549774,2026-04-20 13h08.26.147163 +0200,
12.5,ecc0,mid,28,0,28,j,0,1.7714173999993363,None,0,1,1,1,28,0,28,0,492.66992559999926,,,,,,,,,,,,,,,492.6589707000003,492.66992559999926,493.5779499,492.66992559999926,492.66992559999926,494.44493180000063,j,0,1.7714173999993363,None,right,20,"[20, 19, 20, 18, 20, 19, 20, 19, 20, 18]",10,gaze_R_20.png,j,0,2,results29,001,2026-04-20_13h08.25.765,mogelijke versie adaptive staircase builder,,2026.1.3,60.059338626549774,2026-04-20 13h08.26.147163 +0200,
12.5,ecc0,mid,29,0,29,j,0,1.7830938999995851,None,0,1,1,1,29,0,29,0,494.5381748,,,,,,,,,,,,,,,494.52727810000033,494.5381748,495.44456720000017,494.5381748,494.5381748,496.32832400000007,j,0,1.7830938999995851,None,right,20,"[20, 19, 20, 18, 20, 19, 20, 19, 20, 18]",10,gaze_R_20.png,j,0,2,results29,001,2026-04-20_13h08.25.765,mogelijke versie adaptive staircase builder,,2026.1.3,60.059338626549774,2026-04-20 13h08.26.147163 +0200,
12.5,ecc0,mid,30,0,30,j,0,2.5473385000004782,None,0,1,1,1,30,0,30,0,496.4219577999993,,,,,,,,,,,,,,,496.41166429999976,496.4219577999993,497.3280087000003,496.4219577999993,496.4219577999993,498.9783494000003,j,0,2.5473385000004782,None,left,20,"[20, 19, 20, 18, 20, 19, 20, 19, 20, 18]",10,gaze_L_20.png,j,0,2,results29,001,2026-04-20_13h08.25.765,mogelijke versie adaptive staircase builder,,2026.1.3,60.059338626549774,2026-04-20 13h08.26.147163 +0200,
12.5,ecc0,mid,31,0,31,j,0,1.8205508000010013,None,0,1,1,1,31,0,31,0,499.06865649999963,,,,,,,,,,,,,,,499.0573507000008,499.06865649999963,499.9778444000003,499.06865649999963,499.06865649999963,500.89494829999967,j,0,1.8205508000010013,None,right,20,"[20, 19, 20, 18, 20, 19, 20, 19, 20, 18]",10,gaze_R_20.png,j,0,2,results29,001,2026-04-20_13h08.25.765,mogelijke versie adaptive staircase builder,,2026.1.3,60.059338626549774,2026-04-20 13h08.26.147163 +0200,
12.5,ecc0,mid,32,0,32,j,1,1.767283099999986,None,0,1,1,1,32,0,32,0,500.9859118000004,,,,,,,,,,,,,,,500.97555939999984,500.9859118000004,501.89456509999945,500.9859118000004,500.9859118000004,502.7616003000003,j,1,1.767283099999986,None,direct,20,"[20, 19, 20, 18, 20, 19, 20, 19, 20, 18, 20]",11,direct_gaze.png,j,1,2,results29,001,2026-04-20_13h08.25.765,mogelijke versie adaptive staircase builder,,2026.1.3,60.059338626549774,2026-04-20 13h08.26.147163 +0200,
12.5,ecc0,mid,33,0,33,j,0,1.9238390999998956,None,0,1,1,1,33,0,33,0,502.85387699999956,,,,,,,,,,,,,,,502.8430052999993,502.85387699999956,503.7610956000008,502.85387699999956,502.85387699999956,504.7782029000009,j,0,1.9238390999998956,None,right,19,"[20, 19, 20, 18, 20, 19, 20, 19, 20, 18, 20, 19]",12,gaze_R_19.png,j,0,2,results29,001,2026-04-20_13h08.25.765,mogelijke versie adaptive staircase builder,,2026.1.3,60.059338626549774,2026-04-20 13h08.26.147163 +0200,
12.5,ecc0,mid,34,0,34,j,0,1.6189924999998766,None,0,1,1,1,34,0,34,0,504.8703404000007,,,,,,,,,,,,,,,504.8599546000005,504.8703404000007,505.7777403,504.8703404000007,504.8703404000007,506.49485210000057,j,0,1.6189924999998766,None,right,20,"[20, 19, 20, 18, 20, 19, 20, 19, 20, 18, 20, 19]",12,gaze_R_20.png,j,0,2,results29,001,2026-04-20_13h08.25.765,mogelijke versie adaptive staircase builder,,2026.1.3,60.059338626549774,2026-04-20 13h08.26.147163 +0200,
12.5,ecc0,mid,35,0,35,j,1,1.7897142000001622,None,0,1,1,1,35,0,35,0,506.58831680000003,,,,,,,,,,,,,,,506.57760469999994,506.58831680000003,507.49441429999933,506.58831680000003,506.58831680000003,508.3946634999993,j,1,1.7897142000001622,None,direct,20,"[20, 19, 20, 18, 20, 19, 20, 19, 20, 18, 20, 19, 20]",13,direct_gaze.png,j,1,2,results29,001,2026-04-20_13h08.25.765,mogelijke versie adaptive staircase builder,,2026.1.3,60.059338626549774,2026-04-20 13h08.26.147163 +0200,
12.5,ecc0,mid,36,0,36,j,0,1.8973234000004595,None,0,1,1,1,36,0,36,0,508.48793990000013,,,,,,,,,,,,,,,508.4768927999994,508.48793990000013,509.3944539999993,508.48793990000013,508.48793990000013,510.39470919999985,j,0,1.8973234000004595,None,left,19,"[20, 19, 20, 18, 20, 19, 20, 19, 20, 18, 20, 19, 20, 19]",14,gaze_L_19.png,j,0,2,results29,001,2026-04-20_13h08.25.765,mogelijke versie adaptive staircase builder,,2026.1.3,60.059338626549774,2026-04-20 13h08.26.147163 +0200,
12.5,ecc0,mid,37,0,37,j,0,2.477062300000398,None,0,1,1,1,37,0,37,0,510.48457830000007,,,,,,,,,,,,,,,510.4740371000007,510.48457830000007,511.3943753000003,510.48457830000007,510.48457830000007,512.9781906000007,j,0,2.477062300000398,None,right,20,"[20, 19, 20, 18, 20, 19, 20, 19, 20, 18, 20, 19, 20, 19]",14,gaze_R_20.png,j,0,2,results29,001,2026-04-20_13h08.25.765,mogelijke versie adaptive staircase builder,,2026.1.3,60.059338626549774,2026-04-20 13h08.26.147163 +0200,
12.5,ecc0,mid,38,0,38,j,0,1.6498917000008078,None,0,1,1,1,38,0,38,0,513.0713329000009,,,,,,,,,,,,,,,513.0603883999993,513.0713329000009,513.9777130000002,513.0713329000009,513.0713329000009,514.7280234000009,j,0,1.6498917000008078,None,left,20,"[20, 19, 20, 18, 20, 19, 20, 19, 20, 18, 20, 19, 20, 19]",14,gaze_L_20.png,j,0,2,results29,001,2026-04-20_13h08.25.765,mogelijke versie adaptive staircase builder,,2026.1.3,60.059338626549774,2026-04-20 13h08.26.147163 +0200,
12.5,ecc0,mid,39,0,39,j,1,1.7307282999991003,None,0,1,1,1,39,0,39,0,514.8225499,,,,,,,,,,,,,,,514.811791600001,514.8225499,515.7276959999999,514.8225499,514.8225499,516.5611989999998,j,1,1.7307282999991003,None,direct,20,"[20, 19, 20, 18, 20, 19, 20, 19, 20, 18, 20, 19, 20, 19, 20]",15,direct_gaze.png,j,1,2,results29,001,2026-04-20_13h08.25.765,mogelijke versie adaptive staircase builder,,2026.1.3,60.059338626549774,2026-04-20 13h08.26.147163 +0200,
12.5,ecc0,mid,40,0,40,j,0,2.182226400000218,None,0,1,1,1,40,0,40,0,516.6509889999998,,,,,,,,,,,,,,,516.6406217000003,516.6509889999998,517.5610130000005,516.6509889999998,516.6509889999998,518.8446643999996,j,0,2.182226400000218,None,left,19,"[20, 19, 20, 18, 20, 19, 20, 19, 20, 18, 20, 19, 20, 19, 20, 19]",16,gaze_L_19.png,j,0,2,results29,001,2026-04-20_13h08.25.765,mogelijke versie adaptive staircase builder,,2026.1.3,60.059338626549774,2026-04-20 13h08.26.147163 +0200,
12.5,ecc0,mid,41,0,41,j,0,1.6990214999987074,None,0,1,1,1,41,0,41,0,518.934288800001,,,,,,,,,,,,,,,518.9236072999993,518.934288800001,519.8442971999993,518.934288800001,518.934288800001,520.6446928999994,j,0,1.6990214999987074,None,left,20,"[20, 19, 20, 18, 20, 19, 20, 19, 20, 18, 20, 19, 20, 19, 20, 19]",16,gaze_L_20.png,j,0,2,results29,001,2026-04-20_13h08.25.765,mogelijke versie adaptive staircase builder,,2026.1.3,60.059338626549774,2026-04-20 13h08.26.147163 +0200,
12.5,ecc0,mid,42,0,42,j,0,1.6813265000000683,None,0,1,1,1,42,0,42,0,520.7366452999995,,,,,,,,,,,,,,,520.7260831000003,520.7366452999995,521.6442447000009,520.7366452999995,520.7366452999995,522.4279026999993,j,0,1.6813265000000683,None,left,20,"[20, 19, 20, 18, 20, 19, 20, 19, 20, 18, 20, 19, 20, 19, 20, 19]",16,gaze_L_20.png,j,0,2,results29,001,2026-04-20_13h08.25.765,mogelijke versie adaptive staircase builder,,2026.1.3,60.059338626549774,2026-04-20 13h08.26.147163 +0200,
12.5,ecc0,mid,43,0,43,j,0,1.4172464999992371,None,0,1,1,1,43,0,43,0,522.5199604000009,,,,,,,,,,,,,,,522.5094045000005,522.5199604000009,523.4276864999993,522.5199604000009,522.5199604000009,523.9446033999993,j,0,1.4172464999992371,None,right,20,"[20, 19, 20, 18, 20, 19, 20, 19, 20, 18, 20, 19, 20, 19, 20, 19]",16,gaze_R_20.png,j,0,2,results29,001,2026-04-20_13h08.25.765,mogelijke versie adaptive staircase builder,,2026.1.3,60.059338626549774,2026-04-20 13h08.26.147163 +0200,
12.5,ecc0,mid,44,0,44,j,0,1.597714300000007,None,0,1,1,1,44,0,44,0,524.0354790000001,,,,,,,,,,,,,,,524.0235907000006,524.0354790000001,524.9442562999993,524.0354790000001,524.0354790000001,525.6444807000007,j,0,1.597714300000007,None,left,20,"[20, 19, 20, 18, 20, 19, 20, 19, 20, 18, 20, 19, 20, 19, 20, 19]",16,gaze_L_20.png,j,0,2,results29,001,2026-04-20_13h08.25.765,mogelijke versie adaptive staircase builder,,2026.1.3,60.059338626549774,2026-04-20 13h08.26.147163 +0200,
12.5,ecc0,mid,45,0,45,j,0,1.6565000999999029,None,0,1,1,1,45,0,45,0,525.7367792999994,,,,,,,,,,,,,,,525.7261558999999,525.7367792999994,526.6441434999997,525.7367792999994,525.7367792999994,527.3945576999995,j,0,1.6565000999999029,None,left,20,"[20, 19, 20, 18, 20, 19, 20, 19, 20, 18, 20, 19, 20, 19, 20, 19]",16,gaze_L_20.png,j,0,2,results29,001,2026-04-20_13h08.25.765,mogelijke versie adaptive staircase builder,,2026.1.3,60.059338626549774,2026-04-20 13h08.26.147163 +0200,
12.5,ecc0,mid,46,0,46,j,0,2.099005100000795,None,0,1,1,1,46,0,46,0,527.4862656000005,,,,,,,,,,,,,,,527.4751591000004,527.4862656000005,528.3941329000008,527.4862656000005,527.4862656000005,529.5945047000005,j,0,2.099005100000795,None,left,20,"[20, 19, 20, 18, 20, 19, 20, 19, 20, 18, 20, 19, 20, 19, 20, 19]",16,gaze_L_20.png,j,0,2,results29,001,2026-04-20_13h08.25.765,mogelijke versie adaptive staircase builder,,2026.1.3,60.059338626549774,2026-04-20 13h08.26.147163 +0200,
12.5,ecc0,mid,47,0,47,j,0,1.7478910999998334,None,0,1,1,1,47,0,47,0,529.6853420000007,,,,,,,,,,,,,,,529.6731928999998,529.6853420000007,530.5949134000002,529.6853420000007,529.6853420000007,531.4444065000007,j,0,1.7478910999998334,None,right,20,"[20, 19, 20, 18, 20, 19, 20, 19, 20, 18, 20, 19, 20, 19, 20, 19]",16,gaze_R_20.png,j,0,2,results29,001,2026-04-20_13h08.25.765,mogelijke versie adaptive staircase builder,,2026.1.3,60.059338626549774,2026-04-20 13h08.26.147163 +0200,
12.5,ecc0,mid,48,0,48,j,0,1.7136308000008285,None,0,1,1,1,48,0,48,0,531.5356714999998,,,,,,,,,,,,,,,531.5251986000003,531.5356714999998,532.4441459000009,531.5356714999998,531.5356714999998,533.2610605999998,j,0,1.7136308000008285,None,left,20,"[20, 19, 20, 18, 20, 19, 20, 19, 20, 18, 20, 19, 20, 19, 20, 19]",16,gaze_L_20.png,j,0,2,results29,001,2026-04-20_13h08.25.765,mogelijke versie adaptive staircase builder,,2026.1.3,60.059338626549774,2026-04-20 13h08.26.147163 +0200,
12.5,ecc0,mid,49,0,49,j,0,1.6864913999997952,None,0,1,1,1,49,0,49,0,533.3547357000007,,,,,,,,,,,,,,,533.3433996999993,533.3547357000007,534.2607050999995,533.3547357000007,533.3547357000007,535.0443706000005,j,0,1.6864913999997952,None,right,20,"[20, 19, 20, 18, 20, 19, 20, 19, 20, 18, 20, 19, 20, 19, 20, 19]",16,gaze_R_20.png,j,0,2,results29,001,2026-04-20_13h08.25.765,mogelijke versie adaptive staircase builder,,2026.1.3,60.059338626549774,2026-04-20 13h08.26.147163 +0200,
12.5,ecc0,mid,50,0,50,j,0,1.755174599999009,None,0,1,1,1,50,0,50,0,535.134245700001,,,,,,,,,,,,,,,535.1237363,535.134245700001,536.0440216000006,535.134245700001,535.134245700001,536.8945301999993,j,0,1.755174599999009,None,left,20,"[20, 19, 20, 18, 20, 19, 20, 19, 20, 18, 20, 19, 20, 19, 20, 19]",16,gaze_L_20.png,j,0,2,results29,001,2026-04-20_13h08.25.765,mogelijke versie adaptive staircase builder,,2026.1.3,60.059338626549774,2026-04-20 13h08.26.147163 +0200,
12.5,ecc0,mid,51,0,51,j,0,2.0407395999991422,None,0,1,1,1,51,0,51,0,536.9845784000008,,,,,,,,,,,,,,,536.9741078000006,536.9845784000008,537.8941195999996,536.9845784000008,536.9845784000008,539.0276880000001,j,0,2.0407395999991422,None,right,20,"[20, 19, 20, 18, 20, 19, 20, 19, 20, 18, 20, 19, 20, 19, 20, 19]",16,gaze_R_20.png,j,0,2,results29,001,2026-04-20_13h08.25.765,mogelijke versie adaptive staircase builder,,2026.1.3,60.059338626549774,2026-04-20 13h08.26.147163 +0200,
12.5,ecc0,mid,52,0,52,j,1,1.686219600000186,None,0,1,1,1,52,0,52,0,539.1230904999993,,,,,,,,,,,,,,,539.1112919000007,539.1230904999993,540.0274473000009,539.1230904999993,539.1230904999993,540.8108878000003,j,1,1.686219600000186,None,direct,20,"[20, 19, 20, 18, 20, 19, 20, 19, 20, 18, 20, 19, 20, 19, 20, 19, 20]",17,direct_gaze.png,j,1,2,results29,001,2026-04-20_13h08.25.765,mogelijke versie adaptive staircase builder,,2026.1.3,60.059338626549774,2026-04-20 13h08.26.147163 +0200,
12.5,ecc0,mid,53,0,53,j,1,1.6346052999997482,None,0,1,1,1,53,0,53,0,540.9027017999997,,,,,,,,,,,,,,,540.8922172000002,540.9027017999997,541.8113921999993,540.9027017999997,540.9027017999997,542.5443259999993,j,1,1.6346052999997482,None,direct,19,"[20, 19, 20, 18, 20, 19, 20, 19, 20, 18, 20, 19, 20, 19, 20, 19, 20]",17,direct_gaze.png,j,1,2,results29,001,2026-04-20_13h08.25.765,mogelijke versie adaptive staircase builder,,2026.1.3,60.059338626549774,2026-04-20 13h08.26.147163 +0200,
12.5,ecc0,mid,54,0,54,j,1,1.5469744999991235,None,0,1,1,1,54,0,54,0,542.6382613999995,,,,,,,,,,,,,,,542.6273247999998,542.6382613999995,543.5444351999995,542.6382613999995,542.6382613999995,544.1944624000007,j,1,1.5469744999991235,None,direct,18,"[20, 19, 20, 18, 20, 19, 20, 19, 20, 18, 20, 19, 20, 19, 20, 19, 20]",17,direct_gaze.png,j,1,2,results29,001,2026-04-20_13h08.25.765,mogelijke versie adaptive staircase builder,,2026.1.3,60.059338626549774,2026-04-20 13h08.26.147163 +0200,
12.5,ecc0,mid,55,0,55,j,1,1.7204447999993135,None,0,1,1,1,55,0,55,0,544.2890148999995,,,,,,,,,,,,,,,544.277756200001,544.2890148999995,545.1939603999999,544.2890148999995,544.2890148999995,546.0109002999998,j,1,1.7204447999993135,None,direct,17,"[20, 19, 20, 18, 20, 19, 20, 19, 20, 18, 20, 19, 20, 19, 20, 19, 20]",17,direct_gaze.png,j,1,2,results29,001,2026-04-20_13h08.25.765,mogelijke versie adaptive staircase builder,,2026.1.3,60.059338626549774,2026-04-20 13h08.26.147163 +0200,
12.5,ecc0,mid,56,0,56,j,1,1.514149799999359,None,0,1,1,1,56,0,56,0,546.1035794,,,,,,,,,,,,,,,546.0931230000006,546.1035794,547.0104738999999,546.1035794,546.1035794,547.6276109999999,j,1,1.514149799999359,None,direct,16,"[20, 19, 20, 18, 20, 19, 20, 19, 20, 18, 20, 19, 20, 19, 20, 19, 20]",17,direct_gaze.png,j,1,2,results29,001,2026-04-20_13h08.25.765,mogelijke versie adaptive staircase builder,,2026.1.3,60.059338626549774,2026-04-20 13h08.26.147163 +0200,
12.5,ecc0,mid,57,0,57,j,1,1.472585200001049,None,0,1,1,1,57,0,57,0,547.7208068,,,,,,,,,,,,,,,547.7096290000009,547.7208068,548.6287334000008,547.7208068,547.7208068,549.1943415999995,j,1,1.472585200001049,None,direct,15,"[20, 19, 20, 18, 20, 19, 20, 19, 20, 18, 20, 19, 20, 19, 20, 19, 20]",17,direct_gaze.png,j,1,2,results29,001,2026-04-20_13h08.25.765,mogelijke versie adaptive staircase builder,,2026.1.3,60.059338626549774,2026-04-20 13h08.26.147163 +0200,
12.5,ecc0,mid,58,0,58,f,1,4.339908300000388,None,0,1,1,1,58,0,58,0,549.2933771000007,,,,,,,,,,,,,,,549.2834158000005,549.2933771000007,550.1938659000007,549.2933771000007,549.2933771000007,553.6445595000005,f,1,4.339908300000388,None,right,14,"[20, 19, 20, 18, 20, 19, 20, 19, 20, 18, 20, 19, 20, 19, 20, 19, 20]",17,gaze_R_14.png,f,1,2,results29,001,2026-04-20_13h08.25.765,mogelijke versie adaptive staircase builder,,2026.1.3,60.059338626549774,2026-04-20 13h08.26.147163 +0200,
12.5,ecc0,mid,59,0,59,f,1,3.0537420000000566,None,0,1,1,1,59,0,59,0,553.7555501999996,,,,,,,,,,,,,,,553.744485700001,553.7555501999996,554.6439938999993,553.7555501999996,553.7555501999996,556.8113465000006,f,1,3.0537420000000566,None,left,13,"[20, 19, 20, 18, 20, 19, 20, 19, 20, 18, 20, 19, 20, 19, 20, 19, 20]",17,gaze_L_13.png,f,1,2,results29,001,2026-04-20_13h08.25.765,mogelijke versie adaptive staircase builder,,2026.1.3,60.059338626549774,2026-04-20 13h08.26.147163 +0200,
12.5,ecc0,mid,1,1,0,,,,,0,1,1,1,,,,,,,,,,,,,,,,,,,,,,,,,,,,,,,,,,,,,,results29,001,2026-04-20_13h08.25.765,mogelijke versie adaptive staircase builder,,2026.1.3,60.059338626549774,2026-04-20 13h08.26.147163 +0200,
20.5,ecc10neg,right,0,0,0,f,0,6.219254900001033,None,0,2,2,2,0,0,0,0,556.9179884000005,,,,,,,,,,,,,556.8138703000004,556.8139090999994,556.9053380999994,556.9179884000005,556.9179884000005,557.8272997999993,556.9179884000005,563.1451662,f,0,6.219254900001033,None,direct,20,[],0,shifteddirectgaze.png,f,0,3,results29,001,2026-04-20_13h08.25.765,mogelijke versie adaptive staircase builder,,2026.1.3,60.059338626549774,2026-04-20 13h08.26.147163 +0200,
20.5,ecc10neg,right,1,0,1,f,1,2.9495389000003343,None,0,2,2,2,1,0,1,0,563.2838014000008,,,,,,,,,,,,,,,563.2710907000001,563.2838014000008,563.2838014000008,564.1606661999995,563.2838014000008,566.2439878999994,f,1,2.9495389000003343,None,right,20,[20],1,shiftedgaze_R_20.png,f,1,3,results29,001,2026-04-20_13h08.25.765,mogelijke versie adaptive staircase builder,,2026.1.3,60.059338626549774,2026-04-20 13h08.26.147163 +0200,
20.5,ecc10neg,right,2,0,2,j,1,1.7887126999994507,None,0,2,2,2,2,0,2,0,566.3566215999999,,,,,,,,,,,,,,,566.3455746,566.3566215999999,566.3566215999999,567.2438160000002,566.3566215999999,568.1607597000002,j,1,1.7887126999994507,None,direct,19,[20],1,shifteddirectgaze.png,j,1,3,results29,001,2026-04-20_13h08.25.765,mogelijke versie adaptive staircase builder,,2026.1.3,60.059338626549774,2026-04-20 13h08.26.147163 +0200,
20.5,ecc10neg,right,3,0,3,f,1,1.851893499999278,None,0,2,2,2,3,0,3,0,568.2853957000007,,,,,,,,,,,,,,,568.2735484000004,568.2853957000007,568.2853957000007,569.1603314999993,568.2853957000007,570.1440285999997,f,1,1.851893499999278,None,right,18,[20],1,shiftedgaze_R_18.png,f,1,3,results29,001,2026-04-20_13h08.25.765,mogelijke versie adaptive staircase builder,,2026.1.3,60.059338626549774,2026-04-20 13h08.26.147163 +0200,
20.5,ecc10neg,right,4,0,4,f,0,1.8910128999996232,None,0,2,2,2,4,0,4,0,570.2543198000003,,,,,,,,,,,,,,,570.2432238000001,570.2543198000003,570.2543198000003,571.1436426,570.2543198000003,572.1606621999999,f,0,1.8910128999996232,None,direct,17,"[20, 17]",2,shifteddirectgaze.png,f,0,3,results29,001,2026-04-20_13h08.25.765,mogelijke versie adaptive staircase builder,,2026.1.3,60.059338626549774,2026-04-20 13h08.26.147163 +0200,
20.5,ecc10neg,right,5,0,5,j,0,1.6491514000008465,None,0,2,2,2,5,0,5,0,572.2642097000007,,,,,,,,,,,,,,,572.2528555000008,572.2642097000007,572.2642097000007,573.1603264999994,572.2642097000007,573.927405800001,j,0,1.6491514000008465,None,left,18,"[20, 17]",2,shiftedgaze_L_18.png,j,0,3,results29,001,2026-04-20_13h08.25.765,mogelijke versie adaptive staircase builder,,2026.1.3,60.059338626549774,2026-04-20 13h08.26.147163 +0200,
20.5,ecc10neg,right,6,0,6,f,1,2.739650499999698,None,0,2,2,2,6,0,6,0,574.0537330000006,,,,,,,,,,,,,,,574.0426203999996,574.0537330000006,574.0537330000006,574.9270073000007,574.0537330000006,576.7938223000001,f,1,2.739650499999698,None,right,19,"[20, 17, 19]",3,shiftedgaze_R_19.png,f,1,3,results29,001,2026-04-20_13h08.25.765,mogelijke versie adaptive staircase builder,,2026.1.3,60.059338626549774,2026-04-20 13h08.26.147163 +0200,
20.5,ecc10neg,right,7,0,7,f,1,3.1291970999991463,None,0,2,2,2,7,0,7,0,576.8880234999997,,,,,,,,,,,,,,,576.8769050999999,576.8880234999997,576.8880234999997,577.7934841999995,576.8880234999997,580.0271403000006,f,1,3.1291970999991463,None,right,18,"[20, 17, 19]",3,shiftedgaze_R_18.png,f,1,3,results29,001,2026-04-20_13h08.25.765,mogelijke versie adaptive staircase builder,,2026.1.3,60.059338626549774,2026-04-20 13h08.26.147163 +0200,
20.5,ecc10neg,right,8,0,8,f,1,1.8283064999995986,None,0,2,2,2,8,0,8,0,580.1409445000008,,,,,,,,,,,,,,,580.1303516000007,580.1409445000008,580.1409445000008,581.0267917000001,580.1409445000008,581.9769998000011,f,1,1.8283064999995986,None,right,17,"[20, 17, 19]",3,shiftedgaze_R_17.png,f,1,3,results29,001,2026-04-20_13h08.25.765,mogelijke versie adaptive staircase builder,,2026.1.3,60.059338626549774,2026-04-20 13h08.26.147163 +0200,
20.5,ecc10neg,right,9,0,9,f,0,2.085585599999831,None,0,2,2,2,9,0,9,0,582.0917781999997,,,,,,,,,,,,,,,582.0805722999994,582.0917781999997,582.0917781999997,582.9768070000009,582.0917781999997,584.1939333999999,f,0,2.085585599999831,None,direct,16,"[20, 17, 19, 16]",4,shifteddirectgaze.png,f,0,3,results29,001,2026-04-20_13h08.25.765,mogelijke versie adaptive staircase builder,,2026.1.3,60.059338626549774,2026-04-20 13h08.26.147163 +0200,
20.5,ecc10neg,right,10,0,10,f,0,2.2145388000008097,None,0,2,2,2,10,0,10,0,584.290690400001,,,,,,,,,,,,,,,584.2792255999993,584.290690400001,584.290690400001,585.1936767000007,584.290690400001,586.5104391999994,f,0,2.2145388000008097,None,direct,17,"[20, 17, 19, 16]",4,shifteddirectgaze.png,f,0,3,results29,001,2026-04-20_13h08.25.765,mogelijke versie adaptive staircase builder,,2026.1.3,60.059338626549774,2026-04-20 13h08.26.147163 +0200,
20.5,ecc10neg,right,11,0,11,j,0,1.850402000000031,None,0,2,2,2,11,0,11,0,586.6468430999994,,,,,,,,,,,,,,,586.6361436999996,586.6468430999994,586.6468430999994,587.5099597999997,586.6468430999994,588.5103153,j,0,1.850402000000031,None,right,18,"[20, 17, 19, 16]",4,shiftedgaze_R_18.png,j,0,3,results29,001,2026-04-20_13h08.25.765,mogelijke versie adaptive staircase builder,,2026.1.3,60.059338626549774,2026-04-20 13h08.26.147163 +0200,
20.5,ecc10neg,right,12,0,12,f,1,2.233399000000645,None,0,2,2,2,12,0,12,0,588.616067500001,,,,,,,,,,,,,,,588.6045653000001,588.616067500001,588.616067500001,589.5099212000005,588.616067500001,590.860606100001,f,1,2.233399000000645,None,right,19,"[20, 17, 19, 16, 19]",5,shiftedgaze_R_19.png,f,1,3,results29,001,2026-04-20_13h08.25.765,mogelijke versie adaptive staircase builder,,2026.1.3,60.059338626549774,2026-04-20 13h08.26.147163 +0200,
20.5,ecc10neg,right,13,0,13,f,0,1.4792195000009087,None,0,2,2,2,13,0,13,0,590.9782326000004,,,,,,,,,,,,,,,590.9670454000006,590.9782326000004,590.9782326000004,591.8599541999993,590.9782326000004,592.4608693000009,f,0,1.4792195000009087,None,direct,18,"[20, 17, 19, 16, 19, 18]",6,shifteddirectgaze.png,f,0,3,results29,001,2026-04-20_13h08.25.765,mogelijke versie adaptive staircase builder,,2026.1.3,60.059338626549774,2026-04-20 13h08.26.147163 +0200,
20.5,ecc10neg,right,14,0,14,j,0,1.7396795000004204,None,0,2,2,2,14,0,14,0,592.5657649000004,,,,,,,,,,,,,,,592.5546369000003,592.5657649000004,592.5657649000004,593.4767836999999,592.5657649000004,594.3109937000008,j,0,1.7396795000004204,None,left,19,"[20, 17, 19, 16, 19, 18]",6,shiftedgaze_L_19.png,j,0,3,results29,001,2026-04-20_13h08.25.765,mogelijke versie adaptive staircase builder,,2026.1.3,60.059338626549774,2026-04-20 13h08.26.147163 +0200,
20.5,ecc10neg,right,15,0,15,f,1,2.5906575999997585,None,0,2,2,2,15,0,15,0,594.4348100999996,,,,,,,,,,,,,,,594.4230520000001,594.4348100999996,594.4348100999996,595.3265742999993,594.4348100999996,597.0268971000005,f,1,2.5906575999997585,None,right,20,"[20, 17, 19, 16, 19, 18, 20]",7,shiftedgaze_R_20.png,f,1,3,results29,001,2026-04-20_13h08.25.765,mogelijke versie adaptive staircase builder,,2026.1.3,60.059338626549774,2026-04-20 13h08.26.147163 +0200,
20.5,ecc10neg,right,16,0,16,f,0,1.7521192000003794,None,0,2,2,2,16,0,16,0,597.1452184999998,,,,,,,,,,,,,,,597.1341518999998,597.1452184999998,597.1452184999998,598.0275302000009,597.1452184999998,598.9103326000004,f,0,1.7521192000003794,None,direct,19,"[20, 17, 19, 16, 19, 18, 20, 19]",8,shifteddirectgaze.png,f,0,3,results29,001,2026-04-20_13h08.25.765,mogelijke versie adaptive staircase builder,,2026.1.3,60.059338626549774,2026-04-20 13h08.26.147163 +0200,
20.5,ecc10neg,right,17,0,17,f,1,2.6139648000007583,None,0,2,2,2,17,0,17,0,599.0355227,,,,,,,,,,,,,,,599.0235893000008,599.0355227,599.0355227,599.9098931000008,599.0355227,601.6602201000005,f,1,2.6139648000007583,None,right,20,"[20, 17, 19, 16, 19, 18, 20, 19, 20]",9,shiftedgaze_R_20.png,f,1,3,results29,001,2026-04-20_13h08.25.765,mogelijke versie adaptive staircase builder,,2026.1.3,60.059338626549774,2026-04-20 13h08.26.147163 +0200,
20.5,ecc10neg,right,18,0,18,j,1,2.503758300001209,None,0,2,2,2,18,0,18,0,601.7778780999997,,,,,,,,,,,,,,,601.7669380000007,601.7778780999997,601.7778780999997,602.6597027000007,601.7778780999997,604.293689600001,j,1,2.503758300001209,None,direct,19,"[20, 17, 19, 16, 19, 18, 20, 19, 20]",9,shifteddirectgaze.png,j,1,3,results29,001,2026-04-20_13h08.25.765,mogelijke versie adaptive staircase builder,,2026.1.3,60.059338626549774,2026-04-20 13h08.26.147163 +0200,
20.5,ecc10neg,right,19,0,19,j,1,2.7391665000013745,None,0,2,2,2,19,0,19,0,604.3903983,,,,,,,,,,,,,,,604.3794039999993,604.3903983,604.3903983,605.2931852000002,604.3903983,607.1437213999998,j,1,2.7391665000013745,None,direct,18,"[20, 17, 19, 16, 19, 18, 20, 19, 20]",9,shifteddirectgaze.png,j,1,3,results29,001,2026-04-20_13h08.25.765,mogelijke versie adaptive staircase builder,,2026.1.3,60.059338626549774,2026-04-20 13h08.26.147163 +0200,
20.5,ecc10neg,right,20,0,20,f,0,1.8990534000004118,None,0,2,2,2,20,0,20,0,607.2383363999998,,,,,,,,,,,,,,,607.2277453999995,607.2383363999998,607.2383363999998,608.1430703999995,607.2383363999998,609.1435483000005,f,0,1.8990534000004118,None,direct,17,"[20, 17, 19, 16, 19, 18, 20, 19, 20, 17]",10,shifteddirectgaze.png,f,0,3,results29,001,2026-04-20_13h08.25.765,mogelijke versie adaptive staircase builder,,2026.1.3,60.059338626549774,2026-04-20 13h08.26.147163 +0200,
20.5,ecc10neg,right,21,0,21,j,0,1.6080992999995942,None,0,2,2,2,21,0,21,0,609.2652701000006,,,,,,,,,,,,,,,609.2534868000002,609.2652701000006,609.2652701000006,610.1430999999993,609.2652701000006,610.8766863000001,j,0,1.6080992999995942,None,right,18,"[20, 17, 19, 16, 19, 18, 20, 19, 20, 17]",10,shiftedgaze_R_18.png,j,0,3,results29,001,2026-04-20_13h08.25.765,mogelijke versie adaptive staircase builder,,2026.1.3,60.059338626549774,2026-04-20 13h08.26.147163 +0200,
20.5,ecc10neg,right,22,0,22,j,0,1.3991588999997475,None,0,2,2,2,22,0,22,0,610.9947465000005,,,,,,,,,,,,,,,610.9835798000004,610.9947465000005,610.9947465000005,611.8763822000001,610.9947465000005,612.4100947000006,j,0,1.3991588999997475,None,left,19,"[20, 17, 19, 16, 19, 18, 20, 19, 20, 17]",10,shiftedgaze_L_19.png,j,0,3,results29,001,2026-04-20_13h08.25.765,mogelijke versie adaptive staircase builder,,2026.1.3,60.059338626549774,2026-04-20 13h08.26.147163 +0200,
20.5,ecc10neg,right,23,0,23,f,0,2.422055700000783,None,0,2,2,2,23,0,23,0,612.5072908000002,,,,,,,,,,,,,,,612.4962245000006,612.5072908000002,612.5072908000002,613.4097158000004,612.5072908000002,614.9433208999999,f,0,2.422055700000783,None,direct,20,"[20, 17, 19, 16, 19, 18, 20, 19, 20, 17]",10,shifteddirectgaze.png,f,0,3,results29,001,2026-04-20_13h08.25.765,mogelijke versie adaptive staircase builder,,2026.1.3,60.059338626549774,2026-04-20 13h08.26.147163 +0200,
20.5,ecc10neg,right,24,0,24,j,0,2.5452709999990475,None,0,2,2,2,24,0,24,0,615.0482568000007,,,,,,,,,,,,,,,615.0373916999997,615.0482568000007,615.0482568000007,615.9432018999996,615.0482568000007,617.610075300001,j,0,2.5452709999990475,None,left,20,"[20, 17, 19, 16, 19, 18, 20, 19, 20, 17]",10,shiftedgaze_L_20.png,j,0,3,results29,001,2026-04-20_13h08.25.765,mogelijke versie adaptive staircase builder,,2026.1.3,60.059338626549774,2026-04-20 13h08.26.147163 +0200,
20.5,ecc10neg,right,25,0,25,f,1,2.510414200000014,None,0,2,2,2,25,0,25,0,617.7069611000006,,,,,,,,,,,,,,,617.6963477999998,617.7069611000006,617.7069611000006,618.6096940000007,617.7069611000006,620.2266393000009,f,1,2.510414200000014,None,left,20,"[20, 17, 19, 16, 19, 18, 20, 19, 20, 17, 20]",11,shiftedgaze_L_20.png,f,1,3,results29,001,2026-04-20_13h08.25.765,mogelijke versie adaptive staircase builder,,2026.1.3,60.059338626549774,2026-04-20 13h08.26.147163 +0200,
20.5,ecc10neg,right,26,0,26,j,1,1.5172683000000688,None,0,2,2,2,26,0,26,0,620.3241271000006,,,,,,,,,,,,,,,620.3136629,620.3241271000006,620.3241271000006,621.2262069000008,620.3241271000006,621.8432888999996,j,1,1.5172683000000688,None,direct,19,"[20, 17, 19, 16, 19, 18, 20, 19, 20, 17, 20]",11,shifteddirectgaze.png,j,1,3,results29,001,2026-04-20_13h08.25.765,mogelijke versie adaptive staircase builder,,2026.1.3,60.059338626549774,2026-04-20 13h08.26.147163 +0200,
20.5,ecc10neg,right,27,0,27,f,1,2.5418856000014785,None,0,2,2,2,27,0,27,0,621.9635103,,,,,,,,,,,,,,,621.9524985000007,621.9635103,621.9635103,622.8429073999996,621.9635103,624.5098823000008,f,1,2.5418856000014785,None,right,18,"[20, 17, 19, 16, 19, 18, 20, 19, 20, 17, 20]",11,shiftedgaze_R_18.png,f,1,3,results29,001,2026-04-20_13h08.25.765,mogelijke versie adaptive staircase builder,,2026.1.3,60.059338626549774,2026-04-20 13h08.26.147163 +0200,
20.5,ecc10neg,right,28,0,28,j,0,1.6406583999996656,None,0,2,2,2,28,0,28,0,624.6326931999993,,,,,,,,,,,,,,,624.6219400000009,624.6326931999993,624.6326931999993,625.5095738,624.6326931999993,626.2764977000006,j,0,1.6406583999996656,None,left,17,"[20, 17, 19, 16, 19, 18, 20, 19, 20, 17, 20, 17]",12,shiftedgaze_L_17.png,j,0,3,results29,001,2026-04-20_13h08.25.765,mogelijke versie adaptive staircase builder,,2026.1.3,60.059338626549774,2026-04-20 13h08.26.147163 +0200,
20.5,ecc10neg,right,29,0,29,j,0,1.4445170999988477,None,0,2,2,2,29,0,29,0,626.3728652000009,,,,,,,,,,,,,,,626.3620905999996,626.3728652000009,626.3728652000009,627.2761611000005,626.3728652000009,627.8267919000009,j,0,1.4445170999988477,None,left,18,"[20, 17, 19, 16, 19, 18, 20, 19, 20, 17, 20, 17]",12,shiftedgaze_L_18.png,j,0,3,results29,001,2026-04-20_13h08.25.765,mogelijke versie adaptive staircase builder,,2026.1.3,60.059338626549774,2026-04-20 13h08.26.147163 +0200,
20.5,ecc10neg,right,30,0,30,j,0,1.4642801999998483,None,0,2,2,2,30,0,30,0,627.9211015000001,,,,,,,,,,,,,,,627.9108082000002,627.9211015000001,627.9211015000001,628.826283800001,627.9211015000001,629.3931389000008,j,0,1.4642801999998483,None,left,19,"[20, 17, 19, 16, 19, 18, 20, 19, 20, 17, 20, 17]",12,shiftedgaze_L_19.png,j,0,3,results29,001,2026-04-20_13h08.25.765,mogelijke versie adaptive staircase builder,,2026.1.3,60.059338626549774,2026-04-20 13h08.26.147163 +0200,
20.5,ecc10neg,right,31,0,31,j,0,1.4670096000008925,None,0,2,2,2,31,0,31,0,629.5183405999996,,,,,,,,,,,,,,,629.5069650000005,629.5183405999996,629.5183405999996,630.3930099000008,629.5183405999996,630.9931744999994,j,0,1.4670096000008925,None,right,20,"[20, 17, 19, 16, 19, 18, 20, 19, 20, 17, 20, 17]",12,shiftedgaze_R_20.png,j,0,3,results29,001,2026-04-20_13h08.25.765,mogelijke versie adaptive staircase builder,,2026.1.3,60.059338626549774,2026-04-20 13h08.26.147163 +0200,
20.5,ecc10neg,right,32,0,32,j,0,1.691772400001355,None,0,2,2,2,32,0,32,0,631.1096161000005,,,,,,,,,,,,,,,631.0985146000003,631.1096161000005,631.1096161000005,631.9928166999998,631.1096161000005,632.8097961000003,j,0,1.691772400001355,None,left,20,"[20, 17, 19, 16, 19, 18, 20, 19, 20, 17, 20, 17]",12,shiftedgaze_L_20.png,j,0,3,results29,001,2026-04-20_13h08.25.765,mogelijke versie adaptive staircase builder,,2026.1.3,60.059338626549774,2026-04-20 13h08.26.147163 +0200,
20.5,ecc10neg,right,33,0,33,f,1,2.132381899999018,None,0,2,2,2,33,0,33,0,632.9330298000004,,,,,,,,,,,,,,,632.9216283999995,632.9330298000004,632.9330298000004,633.8093826999993,632.9330298000004,635.0763473000006,f,1,2.132381899999018,None,right,20,"[20, 17, 19, 16, 19, 18, 20, 19, 20, 17, 20, 17, 20]",13,shiftedgaze_R_20.png,f,1,3,results29,001,2026-04-20_13h08.25.765,mogelijke versie adaptive staircase builder,,2026.1.3,60.059338626549774,2026-04-20 13h08.26.147163 +0200,
20.5,ecc10neg,right,34,0,34,j,0,1.5174470000001747,None,0,2,2,2,34,0,34,0,635.1799028000005,,,,,,,,,,,,,,,635.1690756000007,635.1799028000005,635.1799028000005,636.0771648999998,635.1799028000005,636.7097315999999,j,0,1.5174470000001747,None,right,19,"[20, 17, 19, 16, 19, 18, 20, 19, 20, 17, 20, 17, 20, 19]",14,shiftedgaze_R_19.png,j,0,3,results29,001,2026-04-20_13h08.25.765,mogelijke versie adaptive staircase builder,,2026.1.3,60.059338626549774,2026-04-20 13h08.26.147163 +0200,
20.5,ecc10neg,right,35,0,35,f,0,2.5538125000002765,None,0,2,2,2,35,0,35,0,636.8234458000006,,,,,,,,,,,,,,,636.8121494000006,636.8234458000006,636.8234458000006,637.7093999999997,636.8234458000006,639.3930560000008,f,0,2.5538125000002765,None,direct,20,"[20, 17, 19, 16, 19, 18, 20, 19, 20, 17, 20, 17, 20, 19]",14,shifteddirectgaze.png,f,0,3,results29,001,2026-04-20_13h08.25.765,mogelijke versie adaptive staircase builder,,2026.1.3,60.059338626549774,2026-04-20 13h08.26.147163 +0200,
20.5,ecc10neg,right,36,0,36,j,1,1.7033061000001908,None,0,2,2,2,36,0,36,0,639.4899423000006,,,,,,,,,,,,,,,639.4792675999997,639.4899423000006,639.4899423000006,640.3926052000006,639.4899423000006,641.2097549000009,j,1,1.7033061000001908,None,direct,20,"[20, 17, 19, 16, 19, 18, 20, 19, 20, 17, 20, 17, 20, 19, 20]",15,shifteddirectgaze.png,j,1,3,results29,001,2026-04-20_13h08.25.765,mogelijke versie adaptive staircase builder,,2026.1.3,60.059338626549774,2026-04-20 13h08.26.147163 +0200,
20.5,ecc10neg,right,37,0,37,j,1,1.5030975000008766,None,0,2,2,2,37,0,37,0,641.3066120999993,,,,,,,,,,,,,,,641.2962256999999,641.3066120999993,641.3066120999993,642.2094025999995,641.3066120999993,642.8267264999995,j,1,1.5030975000008766,None,direct,19,"[20, 17, 19, 16, 19, 18, 20, 19, 20, 17, 20, 17, 20, 19, 20]",15,shifteddirectgaze.png,j,1,3,results29,001,2026-04-20_13h08.25.765,mogelijke versie adaptive staircase builder,,2026.1.3,60.059338626549774,2026-04-20 13h08.26.147163 +0200,
20.5,ecc10neg,right,38,0,38,j,0,1.5818913000002794,None,0,2,2,2,38,0,38,0,642.9233784999997,,,,,,,,,,,,,,,642.912492200001,642.9233784999997,642.9233784999997,643.8259073000008,642.9233784999997,644.5095813999997,j,0,1.5818913000002794,None,left,18,"[20, 17, 19, 16, 19, 18, 20, 19, 20, 17, 20, 17, 20, 19, 20, 18]",16,shiftedgaze_L_18.png,j,0,3,results29,001,2026-04-20_13h08.25.765,mogelijke versie adaptive staircase builder,,2026.1.3,60.059338626549774,2026-04-20 13h08.26.147163 +0200,
20.5,ecc10neg,right,39,0,39,j,0,1.518605799999932,None,0,2,2,2,39,0,39,0,644.6347924000002,,,,,,,,,,,,,,,644.6216943,644.6347924000002,644.6347924000002,645.5091895999994,644.6347924000002,646.1596965999997,j,0,1.518605799999932,None,right,19,"[20, 17, 19, 16, 19, 18, 20, 19, 20, 17, 20, 17, 20, 19, 20, 18]",16,shiftedgaze_R_19.png,j,0,3,results29,001,2026-04-20_13h08.25.765,mogelijke versie adaptive staircase builder,,2026.1.3,60.059338626549774,2026-04-20 13h08.26.147163 +0200,
20.5,ecc10neg,right,40,0,40,j,0,1.6047428000001673,None,0,2,2,2,40,0,40,0,646.2606268,,,,,,,,,,,,,,,646.2497008000009,646.2606268,646.2606268,647.1593205999998,646.2606268,647.8762898999994,j,0,1.6047428000001673,None,right,20,"[20, 17, 19, 16, 19, 18, 20, 19, 20, 17, 20, 17, 20, 19, 20, 18]",16,shiftedgaze_R_20.png,j,0,3,results29,001,2026-04-20_13h08.25.765,mogelijke versie adaptive staircase builder,,2026.1.3,60.059338626549774,2026-04-20 13h08.26.147163 +0200,
20.5,ecc10neg,right,41,0,41,j,0,1.5384126999997534,None,0,2,2,2,41,0,41,0,647.9909485000007,,,,,,,,,,,,,,,647.9802684000006,647.9909485000007,647.9909485000007,648.8759346000006,647.9909485000007,649.5429819000001,j,0,1.5384126999997534,None,left,20,"[20, 17, 19, 16, 19, 18, 20, 19, 20, 17, 20, 17, 20, 19, 20, 18]",16,shiftedgaze_L_20.png,j,0,3,results29,001,2026-04-20_13h08.25.765,mogelijke versie adaptive staircase builder,,2026.1.3,60.059338626549774,2026-04-20 13h08.26.147163 +0200,
20.5,ecc10neg,right,42,0,42,f,1,1.7573453999993944,None,0,2,2,2,42,0,42,0,649.7000396000003,,,,,,,,,,,,,,,649.6519943000003,649.7000396000003,649.7000396000003,650.5434566000004,649.7000396000003,651.4595537999994,f,1,1.7573453999993944,None,right,20,"[20, 17, 19, 16, 19, 18, 20, 19, 20, 17, 20, 17, 20, 19, 20, 18, 20]",17,shiftedgaze_R_20.png,f,1,3,results29,001,2026-04-20_13h08.25.765,mogelijke versie adaptive staircase builder,,2026.1.3,60.059338626549774,2026-04-20 13h08.26.147163 +0200,
20.5,ecc10neg,right,43,0,43,j,0,2.2508920000000217,None,0,2,2,2,43,0,43,0,651.5748015999998,,,,,,,,,,,,,,,651.5639847000002,651.5748015999998,651.5748015999998,652.4598865999997,651.5748015999998,653.8267849999993,j,0,2.2508920000000217,None,left,19,"[20, 17, 19, 16, 19, 18, 20, 19, 20, 17, 20, 17, 20, 19, 20, 18, 20, 19]",18,shiftedgaze_L_19.png,j,0,3,results29,001,2026-04-20_13h08.25.765,mogelijke versie adaptive staircase builder,,2026.1.3,60.059338626549774,2026-04-20 13h08.26.147163 +0200,
20.5,ecc10neg,right,44,0,44,j,0,2.5010368000002927,None,0,2,2,2,44,0,44,0,653.9489759000007,,,,,,,,,,,,,,,653.9373520000008,653.9489759000007,653.9489759000007,654.8424336000007,653.9489759000007,656.4595009999994,j,0,2.5010368000002927,None,right,20,"[20, 17, 19, 16, 19, 18, 20, 19, 20, 17, 20, 17, 20, 19, 20, 18, 20, 19]",18,shiftedgaze_R_20.png,j,0,3,results29,001,2026-04-20_13h08.25.765,mogelijke versie adaptive staircase builder,,2026.1.3,60.059338626549774,2026-04-20 13h08.26.147163 +0200,
20.5,ecc10neg,right,45,0,45,j,0,1.7216084000010596,None,0,2,2,2,45,0,45,0,656.5758019000004,,,,,,,,,,,,,,,656.5643629000006,656.5758019000004,656.5758019000004,657.4597546999994,656.5758019000004,658.3095677000001,j,0,1.7216084000010596,None,left,20,"[20, 17, 19, 16, 19, 18, 20, 19, 20, 17, 20, 17, 20, 19, 20, 18, 20, 19]",18,shiftedgaze_L_20.png,j,0,3,results29,001,2026-04-20_13h08.25.765,mogelijke versie adaptive staircase builder,,2026.1.3,60.059338626549774,2026-04-20 13h08.26.147163 +0200,
20.5,ecc10neg,right,46,0,46,j,0,1.5190898000000743,None,0,2,2,2,46,0,46,0,658.4101780000001,,,,,,,,,,,,,,,658.3996535000006,658.4101780000001,658.4101780000001,659.3091098999994,658.4101780000001,659.9426241000001,j,0,1.5190898000000743,None,left,20,"[20, 17, 19, 16, 19, 18, 20, 19, 20, 17, 20, 17, 20, 19, 20, 18, 20, 19]",18,shiftedgaze_L_20.png,j,0,3,results29,001,2026-04-20_13h08.25.765,mogelijke versie adaptive staircase builder,,2026.1.3,60.059338626549774,2026-04-20 13h08.26.147163 +0200,
20.5,ecc10neg,right,47,0,47,f,1,1.5132002999998804,None,0,2,2,2,47,0,47,0,660.0641390000001,,,,,,,,,,,,,,,660.0521840000001,660.0641390000001,660.0641390000001,660.9423602000006,660.0641390000001,661.592754700001,f,1,1.5132002999998804,None,right,20,"[20, 17, 19, 16, 19, 18, 20, 19, 20, 17, 20, 17, 20, 19, 20, 18, 20, 19, 20]",19,shiftedgaze_R_20.png,f,1,3,results29,001,2026-04-20_13h08.25.765,mogelijke versie adaptive staircase builder,,2026.1.3,60.059338626549774,2026-04-20 13h08.26.147163 +0200,
20.5,ecc10neg,right,48,0,48,j,0,2.138807100000122,None,0,2,2,2,48,0,48,0,661.6947481999996,,,,,,,,,,,,,,,661.6841748000006,661.6947481999996,661.6947481999996,662.5924804000006,661.6947481999996,663.8427276000002,j,0,2.138807100000122,None,right,19,"[20, 17, 19, 16, 19, 18, 20, 19, 20, 17, 20, 17, 20, 19, 20, 18, 20, 19, 20, 19]",20,shiftedgaze_R_19.png,j,0,3,results29,001,2026-04-20_13h08.25.765,mogelijke versie adaptive staircase builder,,2026.1.3,60.059338626549774,2026-04-20 13h08.26.147163 +0200,
20.5,ecc10neg,right,49,0,49,j,1,1.6554777000001195,None,0,2,2,2,49,0,49,0,663.961806700001,,,,,,,,,,,,,,,663.9506760000004,663.961806700001,663.961806700001,664.8422181999995,663.961806700001,665.6261037000004,j,1,1.6554777000001195,None,direct,20,"[20, 17, 19, 16, 19, 18, 20, 19, 20, 17, 20, 17, 20, 19, 20, 18, 20, 19, 20, 19, 20]",21,shifteddirectgaze.png,j,1,3,results29,001,2026-04-20_13h08.25.765,mogelijke versie adaptive staircase builder,,2026.1.3,60.059338626549774,2026-04-20 13h08.26.147163 +0200,
20.5,ecc10neg,right,50,0,50,j,1,1.5653059999985999,None,0,2,2,2,50,0,50,0,665.7241510999993,,,,,,,,,,,,,,,665.7131518999995,665.7241510999993,665.7241510999993,666.6257072999997,665.7241510999993,667.2928400000001,j,1,1.5653059999985999,None,direct,19,"[20, 17, 19, 16, 19, 18, 20, 19, 20, 17, 20, 17, 20, 19, 20, 18, 20, 19, 20, 19, 20]",21,shifteddirectgaze.png,j,1,3,results29,001,2026-04-20_13h08.25.765,mogelijke versie adaptive staircase builder,,2026.1.3,60.059338626549774,2026-04-20 13h08.26.147163 +0200,
20.5,ecc10neg,right,51,0,51,j,1,1.7169306999985565,None,0,2,2,2,51,0,51,0,667.388437900001,,,,,,,,,,,,,,,667.3782771000006,667.388437900001,667.388437900001,668.2922944000002,667.388437900001,669.1091496999998,j,1,1.7169306999985565,None,direct,18,"[20, 17, 19, 16, 19, 18, 20, 19, 20, 17, 20, 17, 20, 19, 20, 18, 20, 19, 20, 19, 20]",21,shifteddirectgaze.png,j,1,3,results29,001,2026-04-20_13h08.25.765,mogelijke versie adaptive staircase builder,,2026.1.3,60.059338626549774,2026-04-20 13h08.26.147163 +0200,
20.5,ecc10neg,right,52,0,52,j,1,1.7806738999988738,None,0,2,2,2,52,0,52,0,669.2046496000003,,,,,,,,,,,,,,,669.1943398000003,669.2046496000003,669.2046496000003,670.1089006000002,669.2046496000003,670.9925801000009,j,1,1.7806738999988738,None,direct,17,"[20, 17, 19, 16, 19, 18, 20, 19, 20, 17, 20, 17, 20, 19, 20, 18, 20, 19, 20, 19, 20]",21,shifteddirectgaze.png,j,1,3,results29,001,2026-04-20_13h08.25.765,mogelijke versie adaptive staircase builder,,2026.1.3,60.059338626549774,2026-04-20 13h08.26.147163 +0200,
20.5,ecc10neg,right,53,0,53,j,0,2.1259795000005397,None,0,2,2,2,53,0,53,0,671.0993904000006,,,,,,,,,,,,,,,671.088677400001,671.0993904000006,671.0993904000006,671.9922361000008,671.0993904000006,673.2258839999995,j,0,2.1259795000005397,None,left,16,"[20, 17, 19, 16, 19, 18, 20, 19, 20, 17, 20, 17, 20, 19, 20, 18, 20, 19, 20, 19, 20, 16]",22,shiftedgaze_L_16.png,j,0,3,results29,001,2026-04-20_13h08.25.765,mogelijke versie adaptive staircase builder,,2026.1.3,60.059338626549774,2026-04-20 13h08.26.147163 +0200,
20.5,ecc10neg,right,54,0,54,f,0,2.223013100001481,None,0,2,2,2,54,0,54,0,673.3223775999995,,,,,,,,,,,,,,,673.3122913999996,673.3223775999995,673.3223775999995,674.2255435000006,673.3223775999995,675.5599856000008,f,0,2.223013100001481,None,direct,17,"[20, 17, 19, 16, 19, 18, 20, 19, 20, 17, 20, 17, 20, 19, 20, 18, 20, 19, 20, 19, 20, 16]",22,shifteddirectgaze.png,f,0,3,results29,001,2026-04-20_13h08.25.765,mogelijke versie adaptive staircase builder,,2026.1.3,60.059338626549774,2026-04-20 13h08.26.147163 +0200,
20.5,ecc10neg,right,55,0,55,f,0,1.9938681999992696,None,0,2,2,2,55,0,55,0,675.656000500001,,,,,,,,,,,,,,,675.6451670999995,675.656000500001,675.656000500001,676.5761975000005,675.656000500001,677.6591122000009,f,0,1.9938681999992696,None,direct,18,"[20, 17, 19, 16, 19, 18, 20, 19, 20, 17, 20, 17, 20, 19, 20, 18, 20, 19, 20, 19, 20, 16]",22,shifteddirectgaze.png,f,0,3,results29,001,2026-04-20_13h08.25.765,mogelijke versie adaptive staircase builder,,2026.1.3,60.059338626549774,2026-04-20 13h08.26.147163 +0200,
20.5,ecc10neg,right,56,0,56,j,0,1.7329035000002477,None,0,2,2,2,56,0,56,0,677.7563814000005,,,,,,,,,,,,,,,677.7460885,677.7563814000005,677.7563814000005,678.6587397000003,677.7563814000005,679.4925067999993,j,0,1.7329035000002477,None,left,19,"[20, 17, 19, 16, 19, 18, 20, 19, 20, 17, 20, 17, 20, 19, 20, 18, 20, 19, 20, 19, 20, 16]",22,shiftedgaze_L_19.png,j,0,3,results29,001,2026-04-20_13h08.25.765,mogelijke versie adaptive staircase builder,,2026.1.3,60.059338626549774,2026-04-20 13h08.26.147163 +0200,
20.5,ecc10neg,right,57,0,57,j,1,1.595912300001146,None,0,2,2,2,57,0,57,0,679.5894580000004,,,,,,,,,,,,,,,679.5789182999997,679.5894580000004,679.5894580000004,680.4922024000007,679.5894580000004,681.1925661999994,j,1,1.595912300001146,None,direct,20,"[20, 17, 19, 16, 19, 18, 20, 19, 20, 17, 20, 17, 20, 19, 20, 18, 20, 19, 20, 19, 20, 16, 20]",23,shifteddirectgaze.png,j,1,3,results29,001,2026-04-20_13h08.25.765,mogelijke versie adaptive staircase builder,,2026.1.3,60.059338626549774,2026-04-20 13h08.26.147163 +0200,
20.5,ecc10neg,right,58,0,58,f,0,1.6816307999997662,None,0,2,2,2,58,0,58,0,681.2878208000002,,,,,,,,,,,,,,,681.2770450000007,681.2878208000002,681.2878208000002,682.192071200001,681.2878208000002,682.975827100001,f,0,1.6816307999997662,None,direct,19,"[20, 17, 19, 16, 19, 18, 20, 19, 20, 17, 20, 17, 20, 19, 20, 18, 20, 19, 20, 19, 20, 16, 20, 19]",24,shifteddirectgaze.png,f,0,3,results29,001,2026-04-20_13h08.25.765,mogelijke versie adaptive staircase builder,,2026.1.3,60.059338626549774,2026-04-20 13h08.26.147163 +0200,
20.5,ecc10neg,right,59,0,59,j,1,1.7544763000005332,None,0,2,2,2,59,0,59,0,683.0711250999993,,,,,,,,,,,,,,,683.0607903,683.0711250999993,683.0711250999993,683.9753068999999,683.0711250999993,684.8423529000011,j,1,1.7544763000005332,None,direct,20,"[20, 17, 19, 16, 19, 18, 20, 19, 20, 17, 20, 17, 20, 19, 20, 18, 20, 19, 20, 19, 20, 16, 20, 19, 20]",25,shifteddirectgaze.png,j,1,3,results29,001,2026-04-20_13h08.25.765,mogelijke versie adaptive staircase builder,,2026.1.3,60.059338626549774,2026-04-20 13h08.26.147163 +0200,
20.5,ecc10neg,right,2,2,0,,,,,0,2,2,2,,,,,,,,,,,,,,,,,,,,,,,,,,,,,,,,,,,,,,results29,001,2026-04-20_13h08.25.765,mogelijke versie adaptive staircase builder,,2026.1.3,60.059338626549774,2026-04-20 13h08.26.147163 +0200,
