xPos,stimulusSet,whichImage,thisN,thisTrialN,thisRepN,key_resp.keys,key_resp.corr,key_resp.rt,key_resp.duration,blocks.thisRepN,blocks.thisTrialN,blocks.thisN,blocks.thisIndex,trials.thisRepN,trials.thisTrialN,trials.thisN,trials.thisIndex,thisRow.t,notes,piloting,intro.started,introinstructions.started,intro_key.started,demo_image_left.started,demo_image_middle.started,demo_image_right.started,intro.stopped,intro_key.keys,intro_key.rt,intro_key.duration,block_start.started,block_start.stopped,trial.started,key_resp.started,middle_image.started,right_image.started,left_image.started,trial.stopped,trials.key_resp.keys,trials.key_resp.corr,trials.key_resp.rt,trials.key_resp.duration,direction,angle,reversal_intensities,number_reversals,stimulus,response,correct,blockNumber,participant,session,date,expName,expVersion,psychopyVersion,frameRate,expStart
,,,,,,,,,,,,,,,,,,,,False,0.0741528,0.0853072,0.0853072,0.0853072,0.0853072,0.0853072,1873.135048,space,1872.887754,0.1525876,,,,,,,,,,,,,,,,,,,,,results23,1,2026-04-20_09h59.32.952,mogelijke versie adaptive staircase builder,,2026.1.3,60.01439145,2026-04-20 09h59.33.698788 +0200
4.5,ecc10pos,left,0,0,0,f,0,2.2680291,None,0,0,0,0,0,0,0,0,1873.905181,,,,,,,,,,,,,1873.78397,1873.784108,1873.894753,1873.905181,1873.905181,1873.905181,1874.784304,1876.184657,f,0,2.2680291,None,direct,20,[],0,shifteddirectgaze.png,f,0,1,results23,1,2026-04-20_09h59.32.952,mogelijke versie adaptive staircase builder,,2026.1.3,60.01439145,2026-04-20 09h59.33.698788 +0200
4.5,ecc10pos,left,1,0,1,f,1,2.133443,None,0,0,0,0,1,0,1,0,1876.399804,,,,,,,,,,,,,,,1876.389165,1876.399804,1876.399804,1876.399804,1877.200912,1878.534818,f,1,2.133443,None,right,20,[20],1,shiftedgaze_R_20.png,f,1,1,results23,1,2026-04-20_09h59.32.952,mogelijke versie adaptive staircase builder,,2026.1.3,60.01439145,2026-04-20 09h59.33.698788 +0200
4.5,ecc10pos,left,2,0,2,j,0,1.7833832,None,0,0,0,0,2,0,2,0,1878.741773,,,,,,,,,,,,,,,1878.731663,1878.741773,1878.741773,1878.741773,1879.534238,1880.534687,j,0,1.7833832,None,right,19,"[20, 19]",2,shiftedgaze_R_19.png,j,0,1,results23,1,2026-04-20_09h59.32.952,mogelijke versie adaptive staircase builder,,2026.1.3,60.01439145,2026-04-20 09h59.33.698788 +0200
4.5,ecc10pos,left,3,0,3,j,0,1.9332788,None,0,0,0,0,3,0,3,0,1880.647836,,,,,,,,,,,,,,,1880.637136,1880.647836,1880.647836,1880.647836,1881.534226,1882.584551,j,0,1.9332788,None,right,20,"[20, 19]",2,shiftedgaze_R_20.png,j,0,1,results23,1,2026-04-20_09h59.32.952,mogelijke versie adaptive staircase builder,,2026.1.3,60.01439145,2026-04-20 09h59.33.698788 +0200
4.5,ecc10pos,left,4,0,4,f,0,1.9827623,None,0,0,0,0,4,0,4,0,1882.686326,,,,,,,,,,,,,,,1882.675548,1882.686326,1882.686326,1882.686326,1883.584364,1884.684625,f,0,1.9827623,None,direct,20,"[20, 19]",2,shifteddirectgaze.png,f,0,1,results23,1,2026-04-20_09h59.32.952,mogelijke versie adaptive staircase builder,,2026.1.3,60.01439145,2026-04-20 09h59.33.698788 +0200
4.5,ecc10pos,left,5,0,5,f,0,2.6362401,None,0,0,0,0,5,0,5,0,1884.78488,,,,,,,,,,,,,,,1884.774121,1884.78488,1884.78488,1884.78488,1885.685015,1887.434548,f,0,2.6362401,None,direct,20,"[20, 19]",2,shifteddirectgaze.png,f,0,1,results23,1,2026-04-20_09h59.32.952,mogelijke versie adaptive staircase builder,,2026.1.3,60.01439145,2026-04-20 09h59.33.698788 +0200
4.5,ecc10pos,left,6,0,6,j,0,2.1293601,None,0,0,0,0,6,0,6,0,1887.72373,,,,,,,,,,,,,,,1887.711846,1887.72373,1887.72373,1887.72373,1888.434178,1889.867884,j,0,2.1293601,None,left,20,"[20, 19]",2,shiftedgaze_L_20.png,j,0,1,results23,1,2026-04-20_09h59.32.952,mogelijke versie adaptive staircase builder,,2026.1.3,60.01439145,2026-04-20 09h59.33.698788 +0200
4.5,ecc10pos,left,7,0,7,j,1,2.3327674,None,0,0,0,0,7,0,7,0,1889.984294,,,,,,,,,,,,,,,1889.972549,1889.984294,1889.984294,1889.984294,1890.867577,1892.317731,j,1,2.3327674,None,direct,20,"[20, 19, 20]",3,shifteddirectgaze.png,j,1,1,results23,1,2026-04-20_09h59.32.952,mogelijke versie adaptive staircase builder,,2026.1.3,60.01439145,2026-04-20 09h59.33.698788 +0200
4.5,ecc10pos,left,8,0,8,f,1,2.4736995,None,0,0,0,0,8,0,8,0,1892.427589,,,,,,,,,,,,,,,1892.417583,1892.427589,1892.427589,1892.427589,1893.317278,1894.917715,f,1,2.4736995,None,right,19,"[20, 19, 20]",3,shiftedgaze_R_19.png,f,1,1,results23,1,2026-04-20_09h59.32.952,mogelijke versie adaptive staircase builder,,2026.1.3,60.01439145,2026-04-20 09h59.33.698788 +0200
4.5,ecc10pos,left,9,0,9,j,0,1.9995575,None,0,0,0,0,9,0,9,0,1895.205605,,,,,,,,,,,,,,,1895.195265,1895.205605,1895.205605,1895.205605,1895.917612,1897.217707,j,0,1.9995575,None,right,18,"[20, 19, 20, 18]",4,shiftedgaze_R_18.png,j,0,1,results23,1,2026-04-20_09h59.32.952,mogelijke versie adaptive staircase builder,,2026.1.3,60.01439145,2026-04-20 09h59.33.698788 +0200
4.5,ecc10pos,left,10,0,10,f,1,2.2840178,None,0,0,0,0,10,0,10,0,1897.329116,,,,,,,,,,,,,,,1897.318493,1897.329116,1897.329116,1897.329116,1898.21729,1899.617666,f,1,2.2840178,None,right,19,"[20, 19, 20, 18, 19]",5,shiftedgaze_R_19.png,f,1,1,results23,1,2026-04-20_09h59.32.952,mogelijke versie adaptive staircase builder,,2026.1.3,60.01439145,2026-04-20 09h59.33.698788 +0200
4.5,ecc10pos,left,11,0,11,j,0,2.1516,None,0,0,0,0,11,0,11,0,1899.925471,,,,,,,,,,,,,,,1899.914169,1899.925471,1899.925471,1899.925471,1900.617558,1902.084303,j,0,2.1516,None,left,18,"[20, 19, 20, 18, 19, 18]",6,shiftedgaze_L_18.png,j,0,1,results23,1,2026-04-20_09h59.32.952,mogelijke versie adaptive staircase builder,,2026.1.3,60.01439145,2026-04-20 09h59.33.698788 +0200
4.5,ecc10pos,left,12,0,12,j,0,2.3163951,None,0,0,0,0,12,0,12,0,1902.208752,,,,,,,,,,,,,,,1902.198126,1902.208752,1902.208752,1902.208752,1903.08386,1904.534245,j,0,2.3163951,None,right,19,"[20, 19, 20, 18, 19, 18]",6,shiftedgaze_R_19.png,j,0,1,results23,1,2026-04-20_09h59.32.952,mogelijke versie adaptive staircase builder,,2026.1.3,60.01439145,2026-04-20 09h59.33.698788 +0200
4.5,ecc10pos,left,13,0,13,j,0,2.2702285,None,0,0,0,0,13,0,13,0,1904.662906,,,,,,,,,,,,,,,1904.652004,1904.662906,1904.662906,1904.662906,1905.533938,1906.934181,j,0,2.2702285,None,left,20,"[20, 19, 20, 18, 19, 18]",6,shiftedgaze_L_20.png,j,0,1,results23,1,2026-04-20_09h59.32.952,mogelijke versie adaptive staircase builder,,2026.1.3,60.01439145,2026-04-20 09h59.33.698788 +0200
4.5,ecc10pos,left,14,0,14,f,1,1.7552113,None,0,0,0,0,14,0,14,0,1907.041893,,,,,,,,,,,,,,,1907.029983,1907.041893,1907.041893,1907.041893,1907.933895,1908.800865,f,1,1.7552113,None,left,20,"[20, 19, 20, 18, 19, 18, 20]",7,shiftedgaze_L_20.png,f,1,1,results23,1,2026-04-20_09h59.32.952,mogelijke versie adaptive staircase builder,,2026.1.3,60.01439145,2026-04-20 09h59.33.698788 +0200
4.5,ecc10pos,left,15,0,15,f,0,2.1837149,None,0,0,0,0,15,0,15,0,1908.917754,,,,,,,,,,,,,,,1908.907375,1908.917754,1908.917754,1908.917754,1909.800504,1911.117718,f,0,2.1837149,None,direct,19,"[20, 19, 20, 18, 19, 18, 20, 19]",8,shifteddirectgaze.png,f,0,1,results23,1,2026-04-20_09h59.32.952,mogelijke versie adaptive staircase builder,,2026.1.3,60.01439145,2026-04-20 09h59.33.698788 +0200
4.5,ecc10pos,left,16,0,16,j,1,2.1388161,None,0,0,0,0,16,0,16,0,1911.218773,,,,,,,,,,,,,,,1911.207664,1911.218773,1911.218773,1911.218773,1912.117048,1913.367551,j,1,2.1388161,None,direct,20,"[20, 19, 20, 18, 19, 18, 20, 19, 20]",9,shifteddirectgaze.png,j,1,1,results23,1,2026-04-20_09h59.32.952,mogelijke versie adaptive staircase builder,,2026.1.3,60.01439145,2026-04-20 09h59.33.698788 +0200
4.5,ecc10pos,left,17,0,17,j,0,2.2620999,None,0,0,0,0,17,0,17,0,1913.479011,,,,,,,,,,,,,,,1913.468772,1913.479011,1913.479011,1913.479011,1914.367268,1915.75079,j,0,2.2620999,None,right,19,"[20, 19, 20, 18, 19, 18, 20, 19, 20, 19]",10,shiftedgaze_R_19.png,j,0,1,results23,1,2026-04-20_09h59.32.952,mogelijke versie adaptive staircase builder,,2026.1.3,60.01439145,2026-04-20 09h59.33.698788 +0200
4.5,ecc10pos,left,18,0,18,f,0,2.631023,None,0,0,0,0,18,0,18,0,1915.86213,,,,,,,,,,,,,,,1915.851762,1915.86213,1915.86213,1915.86213,1916.750333,1918.500743,f,0,2.631023,None,direct,20,"[20, 19, 20, 18, 19, 18, 20, 19, 20, 19]",10,shifteddirectgaze.png,f,0,1,results23,1,2026-04-20_09h59.32.952,mogelijke versie adaptive staircase builder,,2026.1.3,60.01439145,2026-04-20 09h59.33.698788 +0200
4.5,ecc10pos,left,19,0,19,j,0,2.8849738,None,0,0,0,0,19,0,19,0,1918.600178,,,,,,,,,,,,,,,1918.590153,1918.600178,1918.600178,1918.600178,1919.500263,1921.500719,j,0,2.8849738,None,right,20,"[20, 19, 20, 18, 19, 18, 20, 19, 20, 19]",10,shiftedgaze_R_20.png,j,0,1,results23,1,2026-04-20_09h59.32.952,mogelijke versie adaptive staircase builder,,2026.1.3,60.01439145,2026-04-20 09h59.33.698788 +0200
4.5,ecc10pos,left,20,0,20,j,0,2.2375514,None,0,0,0,0,20,0,20,0,1921.599594,,,,,,,,,,,,,,,1921.58876,1921.599594,1921.599594,1921.599594,1922.500511,1923.850673,j,0,2.2375514,None,right,20,"[20, 19, 20, 18, 19, 18, 20, 19, 20, 19]",10,shiftedgaze_R_20.png,j,0,1,results23,1,2026-04-20_09h59.32.952,mogelijke versie adaptive staircase builder,,2026.1.3,60.01439145,2026-04-20 09h59.33.698788 +0200
4.5,ecc10pos,left,21,0,21,j,1,1.9322891,None,0,0,0,0,21,0,21,0,1923.952791,,,,,,,,,,,,,,,1923.942252,1923.952791,1923.952791,1923.952791,1924.85025,1925.900743,j,1,1.9322891,None,direct,20,"[20, 19, 20, 18, 19, 18, 20, 19, 20, 19, 20]",11,shifteddirectgaze.png,j,1,1,results23,1,2026-04-20_09h59.32.952,mogelijke versie adaptive staircase builder,,2026.1.3,60.01439145,2026-04-20 09h59.33.698788 +0200
4.5,ecc10pos,left,22,0,22,f,1,1.755168,None,0,0,0,0,22,0,22,0,1926.041936,,,,,,,,,,,,,,,1926.030976,1926.041936,1926.041936,1926.041936,1926.900257,1927.800499,f,1,1.755168,None,left,19,"[20, 19, 20, 18, 19, 18, 20, 19, 20, 19, 20]",11,shiftedgaze_L_19.png,f,1,1,results23,1,2026-04-20_09h59.32.952,mogelijke versie adaptive staircase builder,,2026.1.3,60.01439145,2026-04-20 09h59.33.698788 +0200
4.5,ecc10pos,left,23,0,23,j,1,2.0629526,None,0,0,0,0,23,0,23,0,1927.918276,,,,,,,,,,,,,,,1927.907032,1927.918276,1927.918276,1927.918276,1928.800168,1929.983977,j,1,2.0629526,None,direct,18,"[20, 19, 20, 18, 19, 18, 20, 19, 20, 19, 20]",11,shifteddirectgaze.png,j,1,1,results23,1,2026-04-20_09h59.32.952,mogelijke versie adaptive staircase builder,,2026.1.3,60.01439145,2026-04-20 09h59.33.698788 +0200
4.5,ecc10pos,left,24,0,24,j,0,0.0870105,None,0,0,0,0,24,0,24,0,1930.486066,,,,,,,,,,,,,,,1930.475166,1930.486066,1930.486066,1930.486066,,1930.58395,j,0,0.0870105,None,left,17,"[20, 19, 20, 18, 19, 18, 20, 19, 20, 19, 20, 17]",12,shiftedgaze_L_17.png,j,0,1,results23,1,2026-04-20_09h59.32.952,mogelijke versie adaptive staircase builder,,2026.1.3,60.01439145,2026-04-20 09h59.33.698788 +0200
4.5,ecc10pos,left,25,0,25,j,0,3.0155377,None,0,0,0,0,25,0,25,0,1930.701767,,,,,,,,,,,,,,,1930.691039,1930.701767,1930.701767,1930.701767,1931.583589,1933.733953,j,0,3.0155377,None,right,18,"[20, 19, 20, 18, 19, 18, 20, 19, 20, 19, 20, 17]",12,shiftedgaze_R_18.png,j,0,1,results23,1,2026-04-20_09h59.32.952,mogelijke versie adaptive staircase builder,,2026.1.3,60.01439145,2026-04-20 09h59.33.698788 +0200
4.5,ecc10pos,left,26,0,26,f,1,1.7268992,None,0,0,0,0,26,0,26,0,1933.846367,,,,,,,,,,,,,,,1933.836123,1933.846367,1933.846367,1933.846367,1934.733639,1935.584437,f,1,1.7268992,None,right,19,"[20, 19, 20, 18, 19, 18, 20, 19, 20, 19, 20, 17, 19]",13,shiftedgaze_R_19.png,f,1,1,results23,1,2026-04-20_09h59.32.952,mogelijke versie adaptive staircase builder,,2026.1.3,60.01439145,2026-04-20 09h59.33.698788 +0200
4.5,ecc10pos,left,27,0,27,f,1,2.0196206,None,0,0,0,0,27,0,27,0,1935.713497,,,,,,,,,,,,,,,1935.701871,1935.713497,1935.713497,1935.713497,1936.600205,1937.734056,f,1,2.0196206,None,left,18,"[20, 19, 20, 18, 19, 18, 20, 19, 20, 19, 20, 17, 19]",13,shiftedgaze_L_18.png,f,1,1,results23,1,2026-04-20_09h59.32.952,mogelijke versie adaptive staircase builder,,2026.1.3,60.01439145,2026-04-20 09h59.33.698788 +0200
4.5,ecc10pos,left,28,0,28,j,0,4.6964006,None,0,0,0,0,28,0,28,0,1937.844696,,,,,,,,,,,,,,,1937.83051,1937.844696,1937.844696,1937.844696,1938.733718,1942.550777,j,0,4.6964006,None,left,17,"[20, 19, 20, 18, 19, 18, 20, 19, 20, 19, 20, 17, 19, 17]",14,shiftedgaze_L_17.png,j,0,1,results23,1,2026-04-20_09h59.32.952,mogelijke versie adaptive staircase builder,,2026.1.3,60.01439145,2026-04-20 09h59.33.698788 +0200
4.5,ecc10pos,left,29,0,29,j,1,2.4581488,None,0,0,0,0,29,0,29,0,1942.675125,,,,,,,,,,,,,,,1942.663535,1942.675125,1942.675125,1942.675125,1943.566714,1945.133896,j,1,2.4581488,None,direct,18,"[20, 19, 20, 18, 19, 18, 20, 19, 20, 19, 20, 17, 19, 17, 18]",15,shifteddirectgaze.png,j,1,1,results23,1,2026-04-20_09h59.32.952,mogelijke versie adaptive staircase builder,,2026.1.3,60.01439145,2026-04-20 09h59.33.698788 +0200
4.5,ecc10pos,left,30,0,30,j,1,2.0071028,None,0,0,0,0,30,0,30,0,1945.238042,,,,,,,,,,,,,,,1945.227372,1945.238042,1945.238042,1945.238042,1946.13339,1947.250348,j,1,2.0071028,None,direct,17,"[20, 19, 20, 18, 19, 18, 20, 19, 20, 19, 20, 17, 19, 17, 18]",15,shifteddirectgaze.png,j,1,1,results23,1,2026-04-20_09h59.32.952,mogelijke versie adaptive staircase builder,,2026.1.3,60.01439145,2026-04-20 09h59.33.698788 +0200
4.5,ecc10pos,left,31,0,31,f,0,1.7267136,None,0,0,0,0,31,0,31,0,1947.350411,,,,,,,,,,,,,,,1947.339926,1947.350411,1947.350411,1947.350411,1948.250069,1949.083628,f,0,1.7267136,None,direct,16,"[20, 19, 20, 18, 19, 18, 20, 19, 20, 19, 20, 17, 19, 17, 18, 16]",16,shifteddirectgaze.png,f,0,1,results23,1,2026-04-20_09h59.32.952,mogelijke versie adaptive staircase builder,,2026.1.3,60.01439145,2026-04-20 09h59.33.698788 +0200
4.5,ecc10pos,left,32,0,32,f,1,2.070918,None,0,0,0,0,32,0,32,0,1949.214181,,,,,,,,,,,,,,,1949.203712,1949.214181,1949.214181,1949.214181,1950.083247,1951.300408,f,1,2.070918,None,left,17,"[20, 19, 20, 18, 19, 18, 20, 19, 20, 19, 20, 17, 19, 17, 18, 16, 17]",17,shiftedgaze_L_17.png,f,1,1,results23,1,2026-04-20_09h59.32.952,mogelijke versie adaptive staircase builder,,2026.1.3,60.01439145,2026-04-20 09h59.33.698788 +0200
4.5,ecc10pos,left,33,0,33,j,0,2.3713049,None,0,0,0,0,33,0,33,0,1951.753843,,,,,,,,,,,,,,,1951.742893,1951.753843,1951.753843,1951.753843,1952.299904,1954.133639,j,0,2.3713049,None,left,16,"[20, 19, 20, 18, 19, 18, 20, 19, 20, 19, 20, 17, 19, 17, 18, 16, 17, 16]",18,shiftedgaze_L_16.png,j,0,1,results23,1,2026-04-20_09h59.32.952,mogelijke versie adaptive staircase builder,,2026.1.3,60.01439145,2026-04-20 09h59.33.698788 +0200
4.5,ecc10pos,left,34,0,34,f,1,1.9535063,None,0,0,0,0,34,0,34,0,1954.41165,,,,,,,,,,,,,,,1954.400343,1954.41165,1954.41165,1954.41165,1955.133204,1956.367274,f,1,1.9535063,None,right,17,"[20, 19, 20, 18, 19, 18, 20, 19, 20, 19, 20, 17, 19, 17, 18, 16, 17, 16, 17]",19,shiftedgaze_R_17.png,f,1,1,results23,1,2026-04-20_09h59.32.952,mogelijke versie adaptive staircase builder,,2026.1.3,60.01439145,2026-04-20 09h59.33.698788 +0200
4.5,ecc10pos,left,35,0,35,j,0,2.2804586,None,0,0,0,0,35,0,35,0,1956.580687,,,,,,,,,,,,,,,1956.569951,1956.580687,1956.580687,1956.580687,1957.367197,1958.866759,j,0,2.2804586,None,right,16,"[20, 19, 20, 18, 19, 18, 20, 19, 20, 19, 20, 17, 19, 17, 18, 16, 17, 16, 17, 16]",20,shiftedgaze_R_16.png,j,0,1,results23,1,2026-04-20_09h59.32.952,mogelijke versie adaptive staircase builder,,2026.1.3,60.01439145,2026-04-20 09h59.33.698788 +0200
4.5,ecc10pos,left,36,0,36,j,0,1.5034853,None,0,0,0,0,36,0,36,0,1958.989655,,,,,,,,,,,,,,,1958.978129,1958.989655,1958.989655,1958.989655,1959.866552,1960.500093,j,0,1.5034853,None,left,17,"[20, 19, 20, 18, 19, 18, 20, 19, 20, 19, 20, 17, 19, 17, 18, 16, 17, 16, 17, 16]",20,shiftedgaze_L_17.png,j,0,1,results23,1,2026-04-20_09h59.32.952,mogelijke versie adaptive staircase builder,,2026.1.3,60.01439145,2026-04-20 09h59.33.698788 +0200
4.5,ecc10pos,left,37,0,37,j,0,1.9404413,None,0,0,0,0,37,0,37,0,1960.616688,,,,,,,,,,,,,,,1960.60539,1960.616688,1960.616688,1960.616688,1961.500002,1962.566644,j,0,1.9404413,None,right,18,"[20, 19, 20, 18, 19, 18, 20, 19, 20, 19, 20, 17, 19, 17, 18, 16, 17, 16, 17, 16]",20,shiftedgaze_R_18.png,j,0,1,results23,1,2026-04-20_09h59.32.952,mogelijke versie adaptive staircase builder,,2026.1.3,60.01439145,2026-04-20 09h59.33.698788 +0200
4.5,ecc10pos,left,38,0,38,f,1,1.8740166,None,0,0,0,0,38,0,38,0,1962.691166,,,,,,,,,,,,,,,1962.67953,1962.691166,1962.691166,1962.691166,1963.566386,1964.56691,f,1,1.8740166,None,left,19,"[20, 19, 20, 18, 19, 18, 20, 19, 20, 19, 20, 17, 19, 17, 18, 16, 17, 16, 17, 16, 19]",21,shiftedgaze_L_19.png,f,1,1,results23,1,2026-04-20_09h59.32.952,mogelijke versie adaptive staircase builder,,2026.1.3,60.01439145,2026-04-20 09h59.33.698788 +0200
4.5,ecc10pos,left,39,0,39,f,0,2.7918967,None,0,0,0,0,39,0,39,0,1964.685296,,,,,,,,,,,,,,,1964.674026,1964.685296,1964.685296,1964.685296,1965.566405,1967.483956,f,0,2.7918967,None,direct,18,"[20, 19, 20, 18, 19, 18, 20, 19, 20, 19, 20, 17, 19, 17, 18, 16, 17, 16, 17, 16, 19, 18]",22,shifteddirectgaze.png,f,0,1,results23,1,2026-04-20_09h59.32.952,mogelijke versie adaptive staircase builder,,2026.1.3,60.01439145,2026-04-20 09h59.33.698788 +0200
4.5,ecc10pos,left,40,0,40,j,0,2.1544692,None,0,0,0,0,40,0,40,0,1967.594735,,,,,,,,,,,,,,,1967.584378,1967.594735,1967.594735,1967.594735,1968.499906,1969.7506,j,0,2.1544692,None,right,19,"[20, 19, 20, 18, 19, 18, 20, 19, 20, 19, 20, 17, 19, 17, 18, 16, 17, 16, 17, 16, 19, 18]",22,shiftedgaze_R_19.png,j,0,1,results23,1,2026-04-20_09h59.32.952,mogelijke versie adaptive staircase builder,,2026.1.3,60.01439145,2026-04-20 09h59.33.698788 +0200
4.5,ecc10pos,left,41,0,41,j,1,2.5302399,None,0,0,0,0,41,0,41,0,1969.858959,,,,,,,,,,,,,,,1969.848396,1969.858959,1969.858959,1969.858959,1970.766311,1972.400067,j,1,2.5302399,None,direct,20,"[20, 19, 20, 18, 19, 18, 20, 19, 20, 19, 20, 17, 19, 17, 18, 16, 17, 16, 17, 16, 19, 18, 20]",23,shifteddirectgaze.png,j,1,1,results23,1,2026-04-20_09h59.32.952,mogelijke versie adaptive staircase builder,,2026.1.3,60.01439145,2026-04-20 09h59.33.698788 +0200
4.5,ecc10pos,left,42,0,42,j,1,2.2487268,None,0,0,0,0,42,0,42,0,1972.50047,,,,,,,,,,,,,,,1972.489695,1972.50047,1972.50047,1972.50047,1973.399555,1974.749986,j,1,2.2487268,None,direct,19,"[20, 19, 20, 18, 19, 18, 20, 19, 20, 19, 20, 17, 19, 17, 18, 16, 17, 16, 17, 16, 19, 18, 20]",23,shifteddirectgaze.png,j,1,1,results23,1,2026-04-20_09h59.32.952,mogelijke versie adaptive staircase builder,,2026.1.3,60.01439145,2026-04-20 09h59.33.698788 +0200
4.5,ecc10pos,left,43,0,43,f,0,2.6989047,None,0,0,0,0,43,0,43,0,1974.850326,,,,,,,,,,,,,,,1974.839147,1974.850326,1974.850326,1974.850326,1975.749571,1977.550021,f,0,2.6989047,None,direct,18,"[20, 19, 20, 18, 19, 18, 20, 19, 20, 19, 20, 17, 19, 17, 18, 16, 17, 16, 17, 16, 19, 18, 20, 18]",24,shifteddirectgaze.png,f,0,1,results23,1,2026-04-20_09h59.32.952,mogelijke versie adaptive staircase builder,,2026.1.3,60.01439145,2026-04-20 09h59.33.698788 +0200
4.5,ecc10pos,left,44,0,44,f,1,2.7599071,None,0,0,0,0,44,0,44,0,1977.677298,,,,,,,,,,,,,,,1977.666328,1977.677298,1977.677298,1977.677298,1978.549507,1980.450517,f,1,2.7599071,None,left,19,"[20, 19, 20, 18, 19, 18, 20, 19, 20, 19, 20, 17, 19, 17, 18, 16, 17, 16, 17, 16, 19, 18, 20, 18, 19]",25,shiftedgaze_L_19.png,f,1,1,results23,1,2026-04-20_09h59.32.952,mogelijke versie adaptive staircase builder,,2026.1.3,60.01439145,2026-04-20 09h59.33.698788 +0200
4.5,ecc10pos,left,45,0,45,j,0,2.8025263,None,0,0,0,0,45,0,45,0,1980.570726,,,,,,,,,,,,,,,1980.559642,1980.570726,1980.570726,1980.570726,1981.466137,1983.383191,j,0,2.8025263,None,right,18,"[20, 19, 20, 18, 19, 18, 20, 19, 20, 19, 20, 17, 19, 17, 18, 16, 17, 16, 17, 16, 19, 18, 20, 18, 19, 18]",26,shiftedgaze_R_18.png,j,0,1,results23,1,2026-04-20_09h59.32.952,mogelijke versie adaptive staircase builder,,2026.1.3,60.01439145,2026-04-20 09h59.33.698788 +0200
4.5,ecc10pos,left,46,0,46,j,1,2.0865832,None,0,0,0,0,46,0,46,0,1983.478639,,,,,,,,,,,,,,,1983.467373,1983.478639,1983.478639,1983.478639,1984.382953,1985.566718,j,1,2.0865832,None,direct,19,"[20, 19, 20, 18, 19, 18, 20, 19, 20, 19, 20, 17, 19, 17, 18, 16, 17, 16, 17, 16, 19, 18, 20, 18, 19, 18, 19]",27,shifteddirectgaze.png,j,1,1,results23,1,2026-04-20_09h59.32.952,mogelijke versie adaptive staircase builder,,2026.1.3,60.01439145,2026-04-20 09h59.33.698788 +0200
4.5,ecc10pos,left,47,0,47,j,1,2.5048952,None,0,0,0,0,47,0,47,0,1985.668297,,,,,,,,,,,,,,,1985.658,1985.668297,1985.668297,1985.668297,1986.565997,1988.183125,j,1,2.5048952,None,direct,18,"[20, 19, 20, 18, 19, 18, 20, 19, 20, 19, 20, 17, 19, 17, 18, 16, 17, 16, 17, 16, 19, 18, 20, 18, 19, 18, 19]",27,shifteddirectgaze.png,j,1,1,results23,1,2026-04-20_09h59.32.952,mogelijke versie adaptive staircase builder,,2026.1.3,60.01439145,2026-04-20 09h59.33.698788 +0200
4.5,ecc10pos,left,48,0,48,f,1,1.8439148,None,0,0,0,0,48,0,48,0,1988.281292,,,,,,,,,,,,,,,1988.271205,1988.281292,1988.281292,1988.281292,1989.18273,1990.133682,f,1,1.8439148,None,right,17,"[20, 19, 20, 18, 19, 18, 20, 19, 20, 19, 20, 17, 19, 17, 18, 16, 17, 16, 17, 16, 19, 18, 20, 18, 19, 18, 19]",27,shiftedgaze_R_17.png,f,1,1,results23,1,2026-04-20_09h59.32.952,mogelijke versie adaptive staircase builder,,2026.1.3,60.01439145,2026-04-20 09h59.33.698788 +0200
4.5,ecc10pos,left,49,0,49,j,1,1.758845,None,0,0,0,0,49,0,49,0,1990.23068,,,,,,,,,,,,,,,1990.219785,1990.23068,1990.23068,1990.23068,1991.149567,1991.999845,j,1,1.758845,None,direct,16,"[20, 19, 20, 18, 19, 18, 20, 19, 20, 19, 20, 17, 19, 17, 18, 16, 17, 16, 17, 16, 19, 18, 20, 18, 19, 18, 19]",27,shifteddirectgaze.png,j,1,1,results23,1,2026-04-20_09h59.32.952,mogelijke versie adaptive staircase builder,,2026.1.3,60.01439145,2026-04-20 09h59.33.698788 +0200
4.5,ecc10pos,left,50,0,50,j,0,5.315117,None,0,0,0,0,50,0,50,0,1992.458298,,,,,,,,,,,,,,,1992.448778,1992.458298,1992.458298,1992.458298,1992.999432,1997.782957,j,0,5.315117,None,left,15,"[20, 19, 20, 18, 19, 18, 20, 19, 20, 19, 20, 17, 19, 17, 18, 16, 17, 16, 17, 16, 19, 18, 20, 18, 19, 18, 19, 15]",28,shiftedgaze_L_15.png,j,0,1,results23,1,2026-04-20_09h59.32.952,mogelijke versie adaptive staircase builder,,2026.1.3,60.01439145,2026-04-20 09h59.33.698788 +0200
4.5,ecc10pos,left,51,0,51,j,1,1.9547004,None,0,0,0,0,51,0,51,0,1997.890576,,,,,,,,,,,,,,,1997.880574,1997.890576,1997.890576,1997.890576,1998.782635,1999.849598,j,1,1.9547004,None,direct,16,"[20, 19, 20, 18, 19, 18, 20, 19, 20, 19, 20, 17, 19, 17, 18, 16, 17, 16, 17, 16, 19, 18, 20, 18, 19, 18, 19, 15, 16]",29,shifteddirectgaze.png,j,1,1,results23,1,2026-04-20_09h59.32.952,mogelijke versie adaptive staircase builder,,2026.1.3,60.01439145,2026-04-20 09h59.33.698788 +0200
4.5,ecc10pos,left,52,0,52,f,1,2.4307225,None,0,0,0,0,52,0,52,0,1999.958921,,,,,,,,,,,,,,,1999.948966,1999.958921,1999.958921,1999.958921,2000.849224,2002.399481,f,1,2.4307225,None,left,15,"[20, 19, 20, 18, 19, 18, 20, 19, 20, 19, 20, 17, 19, 17, 18, 16, 17, 16, 17, 16, 19, 18, 20, 18, 19, 18, 19, 15, 16]",29,shiftedgaze_L_15.png,f,1,1,results23,1,2026-04-20_09h59.32.952,mogelijke versie adaptive staircase builder,,2026.1.3,60.01439145,2026-04-20 09h59.33.698788 +0200
4.5,ecc10pos,left,53,0,53,f,0,2.5455804,None,0,0,0,0,53,0,53,0,2002.507563,,,,,,,,,,,,,,,2002.497223,2002.507563,2002.507563,2002.507563,2003.399122,2005.066239,f,0,2.5455804,None,direct,14,"[20, 19, 20, 18, 19, 18, 20, 19, 20, 19, 20, 17, 19, 17, 18, 16, 17, 16, 17, 16, 19, 18, 20, 18, 19, 18, 19, 15, 16, 14]",30,shifteddirectgaze.png,f,0,1,results23,1,2026-04-20_09h59.32.952,mogelijke versie adaptive staircase builder,,2026.1.3,60.01439145,2026-04-20 09h59.33.698788 +0200
4.5,ecc10pos,left,54,0,54,j,0,3.0352477,None,0,0,0,0,54,0,54,0,2005.177955,,,,,,,,,,,,,,,2005.167681,2005.177955,2005.177955,2005.177955,2006.066031,2008.216214,j,0,3.0352477,None,left,15,"[20, 19, 20, 18, 19, 18, 20, 19, 20, 19, 20, 17, 19, 17, 18, 16, 17, 16, 17, 16, 19, 18, 20, 18, 19, 18, 19, 15, 16, 14]",30,shiftedgaze_L_15.png,j,0,1,results23,1,2026-04-20_09h59.32.952,mogelijke versie adaptive staircase builder,,2026.1.3,60.01439145,2026-04-20 09h59.33.698788 +0200
4.5,ecc10pos,left,55,0,55,j,0,1.8142729,None,0,0,0,0,55,0,55,0,2008.326974,,,,,,,,,,,,,,,2008.316728,2008.326974,2008.326974,2008.326974,2009.215892,2010.149432,j,0,1.8142729,None,right,16,"[20, 19, 20, 18, 19, 18, 20, 19, 20, 19, 20, 17, 19, 17, 18, 16, 17, 16, 17, 16, 19, 18, 20, 18, 19, 18, 19, 15, 16, 14]",30,shiftedgaze_R_16.png,j,0,1,results23,1,2026-04-20_09h59.32.952,mogelijke versie adaptive staircase builder,,2026.1.3,60.01439145,2026-04-20 09h59.33.698788 +0200
4.5,ecc10pos,left,56,0,56,j,0,1.8153503,None,0,0,0,0,56,0,56,0,2010.277826,,,,,,,,,,,,,,,2010.266931,2010.277826,2010.277826,2010.277826,2011.149077,2012.099461,j,0,1.8153503,None,left,17,"[20, 19, 20, 18, 19, 18, 20, 19, 20, 19, 20, 17, 19, 17, 18, 16, 17, 16, 17, 16, 19, 18, 20, 18, 19, 18, 19, 15, 16, 14]",30,shiftedgaze_L_17.png,j,0,1,results23,1,2026-04-20_09h59.32.952,mogelijke versie adaptive staircase builder,,2026.1.3,60.01439145,2026-04-20 09h59.33.698788 +0200
4.5,ecc10pos,left,57,0,57,f,1,1.5311118,None,0,0,0,0,57,0,57,0,2012.218341,,,,,,,,,,,,,,,2012.207192,2012.218341,2012.218341,2012.218341,2013.09903,2013.766089,f,1,1.5311118,None,right,18,"[20, 19, 20, 18, 19, 18, 20, 19, 20, 19, 20, 17, 19, 17, 18, 16, 17, 16, 17, 16, 19, 18, 20, 18, 19, 18, 19, 15, 16, 14, 18]",31,shiftedgaze_R_18.png,f,1,1,results23,1,2026-04-20_09h59.32.952,mogelijke versie adaptive staircase builder,,2026.1.3,60.01439145,2026-04-20 09h59.33.698788 +0200
4.5,ecc10pos,left,58,0,58,j,1,1.9131349,None,0,0,0,0,58,0,58,0,2013.860033,,,,,,,,,,,,,,,2013.849368,2013.860033,2013.860033,2013.860033,2014.765667,2015.782714,j,1,1.9131349,None,direct,17,"[20, 19, 20, 18, 19, 18, 20, 19, 20, 19, 20, 17, 19, 17, 18, 16, 17, 16, 17, 16, 19, 18, 20, 18, 19, 18, 19, 15, 16, 14, 18]",31,shifteddirectgaze.png,j,1,1,results23,1,2026-04-20_09h59.32.952,mogelijke versie adaptive staircase builder,,2026.1.3,60.01439145,2026-04-20 09h59.33.698788 +0200
4.5,ecc10pos,left,59,0,59,f,0,2.1107136,None,0,0,0,0,59,0,59,0,2015.879008,,,,,,,,,,,,,,,2015.868295,2015.879008,2015.879008,2015.879008,2016.782447,2017.999571,f,0,2.1107136,None,direct,16,"[20, 19, 20, 18, 19, 18, 20, 19, 20, 19, 20, 17, 19, 17, 18, 16, 17, 16, 17, 16, 19, 18, 20, 18, 19, 18, 19, 15, 16, 14, 18, 16]",32,shifteddirectgaze.png,f,0,1,results23,1,2026-04-20_09h59.32.952,mogelijke versie adaptive staircase builder,,2026.1.3,60.01439145,2026-04-20 09h59.33.698788 +0200
4.5,ecc10pos,left,0,0,0,,,,,0,0,0,0,,,,,,,,,,,,,,,,,,,,,,,,,,,,,,,,,,,,,,results23,1,2026-04-20_09h59.32.952,mogelijke versie adaptive staircase builder,,2026.1.3,60.01439145,2026-04-20 09h59.33.698788 +0200
12.5,ecc0,mid,0,0,0,j,0,0.1848732,None,0,1,1,1,0,0,0,0,2018.484296,,,,,,,,,,,,,2018.004832,2018.004871,2018.473831,2018.484296,,2018.484296,2018.484296,2018.682887,j,0,0.1848732,None,left,20,[],0,gaze_L_20.png,j,0,2,results23,1,2026-04-20_09h59.32.952,mogelijke versie adaptive staircase builder,,2026.1.3,60.01439145,2026-04-20 09h59.33.698788 +0200
12.5,ecc0,mid,1,0,1,j,0,4.0193962,None,0,1,1,1,1,0,1,0,2018.777841,,,,,,,,,,,,,,,2018.766695,2018.777841,2019.682371,2018.777841,2018.777841,2022.799353,j,0,4.0193962,None,left,20,[],0,gaze_L_20.png,j,0,2,results23,1,2026-04-20_09h59.32.952,mogelijke versie adaptive staircase builder,,2026.1.3,60.01439145,2026-04-20 09h59.33.698788 +0200
12.5,ecc0,mid,2,0,2,j,1,3.8690201,None,0,1,1,1,2,0,2,0,2022.904172,,,,,,,,,,,,,,,2022.893847,2022.904172,2023.798966,2022.904172,2022.904172,2026.782607,j,1,3.8690201,None,direct,20,[20],1,direct_gaze.png,j,1,2,results23,1,2026-04-20_09h59.32.952,mogelijke versie adaptive staircase builder,,2026.1.3,60.01439145,2026-04-20 09h59.33.698788 +0200
12.5,ecc0,mid,3,0,3,j,0,1.7709057,None,0,1,1,1,3,0,3,0,2027.002323,,,,,,,,,,,,,,,2026.991584,2027.002323,2027.78218,2027.002323,2027.002323,2028.782616,j,0,1.7709057,None,right,19,"[20, 19]",2,gaze_R_19.png,j,0,2,results23,1,2026-04-20_09h59.32.952,mogelijke versie adaptive staircase builder,,2026.1.3,60.01439145,2026-04-20 09h59.33.698788 +0200
12.5,ecc0,mid,4,0,4,j,0,2.2291528,None,0,1,1,1,4,0,4,0,2028.880064,,,,,,,,,,,,,,,2028.868666,2028.880064,2029.782336,2028.880064,2028.880064,2031.115916,j,0,2.2291528,None,left,20,"[20, 19]",2,gaze_L_20.png,j,0,2,results23,1,2026-04-20_09h59.32.952,mogelijke versie adaptive staircase builder,,2026.1.3,60.01439145,2026-04-20 09h59.33.698788 +0200
12.5,ecc0,mid,5,0,5,j,0,2.0199642,None,0,1,1,1,5,0,5,0,2031.329324,,,,,,,,,,,,,,,2031.31898,2031.329324,2032.115445,2031.329324,2031.329324,2033.365779,j,0,2.0199642,None,right,20,"[20, 19]",2,gaze_R_20.png,j,0,2,results23,1,2026-04-20_09h59.32.952,mogelijke versie adaptive staircase builder,,2026.1.3,60.01439145,2026-04-20 09h59.33.698788 +0200
12.5,ecc0,mid,6,0,6,j,0,2.4329015,None,0,1,1,1,6,0,6,0,2033.460251,,,,,,,,,,,,,,,2033.44941,2033.460251,2034.36559,2033.460251,2033.460251,2035.899336,j,0,2.4329015,None,left,20,"[20, 19]",2,gaze_L_20.png,j,0,2,results23,1,2026-04-20_09h59.32.952,mogelijke versie adaptive staircase builder,,2026.1.3,60.01439145,2026-04-20 09h59.33.698788 +0200
12.5,ecc0,mid,7,0,7,j,0,2.0488845,None,0,1,1,1,7,0,7,0,2035.996418,,,,,,,,,,,,,,,2035.985428,2035.996418,2036.898665,2035.996418,2035.996418,2038.049066,j,0,2.0488845,None,left,20,"[20, 19]",2,gaze_L_20.png,j,0,2,results23,1,2026-04-20_09h59.32.952,mogelijke versie adaptive staircase builder,,2026.1.3,60.01439145,2026-04-20 09h59.33.698788 +0200
12.5,ecc0,mid,8,0,8,j,1,2.6035187,None,0,1,1,1,8,0,8,0,2038.145652,,,,,,,,,,,,,,,2038.135212,2038.145652,2039.048725,2038.145652,2038.145652,2040.765698,j,1,2.6035187,None,direct,20,"[20, 19, 20]",3,direct_gaze.png,j,1,2,results23,1,2026-04-20_09h59.32.952,mogelijke versie adaptive staircase builder,,2026.1.3,60.01439145,2026-04-20 09h59.33.698788 +0200
12.5,ecc0,mid,9,0,9,f,1,1.6243415,None,0,1,1,1,9,0,9,0,2040.860978,,,,,,,,,,,,,,,2040.849547,2040.860978,2041.765635,2040.860978,2040.860978,2042.49895,f,1,1.6243415,None,right,19,"[20, 19, 20]",3,gaze_R_19.png,f,1,2,results23,1,2026-04-20_09h59.32.952,mogelijke versie adaptive staircase builder,,2026.1.3,60.01439145,2026-04-20 09h59.33.698788 +0200
12.5,ecc0,mid,10,0,10,f,0,2.3390446,None,0,1,1,1,10,0,10,0,2042.594118,,,,,,,,,,,,,,,2042.583771,2042.594118,2043.498648,2042.594118,2042.594118,2044.949039,f,0,2.3390446,None,direct,18,"[20, 19, 20, 18]",4,direct_gaze.png,f,0,2,results23,1,2026-04-20_09h59.32.952,mogelijke versie adaptive staircase builder,,2026.1.3,60.01439145,2026-04-20 09h59.33.698788 +0200
12.5,ecc0,mid,11,0,11,f,1,2.1419404,None,0,1,1,1,11,0,11,0,2045.407453,,,,,,,,,,,,,,,2045.397114,2045.407453,2045.94871,2045.407453,2045.407453,2047.565518,f,1,2.1419404,None,left,19,"[20, 19, 20, 18, 19]",5,gaze_L_19.png,f,1,2,results23,1,2026-04-20_09h59.32.952,mogelijke versie adaptive staircase builder,,2026.1.3,60.01439145,2026-04-20 09h59.33.698788 +0200
12.5,ecc0,mid,12,0,12,f,0,1.9808183,None,0,1,1,1,12,0,12,0,2047.664397,,,,,,,,,,,,,,,2047.650953,2047.664397,2048.565274,2047.664397,2047.664397,2049.648982,f,0,1.9808183,None,direct,18,"[20, 19, 20, 18, 19, 18]",6,direct_gaze.png,f,0,2,results23,1,2026-04-20_09h59.32.952,mogelijke versie adaptive staircase builder,,2026.1.3,60.01439145,2026-04-20 09h59.33.698788 +0200
12.5,ecc0,mid,13,0,13,f,1,2.2846387,None,0,1,1,1,13,0,13,0,2049.744544,,,,,,,,,,,,,,,2049.73404,2049.744544,2050.648627,2049.744544,2049.744544,2052.032195,f,1,2.2846387,None,left,19,"[20, 19, 20, 18, 19, 18, 19]",7,gaze_L_19.png,f,1,2,results23,1,2026-04-20_09h59.32.952,mogelijke versie adaptive staircase builder,,2026.1.3,60.01439145,2026-04-20 09h59.33.698788 +0200
12.5,ecc0,mid,14,0,14,j,0,1.4554263,None,0,1,1,1,14,0,14,0,2052.245819,,,,,,,,,,,,,,,2052.235443,2052.245819,2053.03187,2052.245819,2052.245819,2053.715551,j,0,1.4554263,None,left,18,"[20, 19, 20, 18, 19, 18, 19, 18]",8,gaze_L_18.png,j,0,2,results23,1,2026-04-20_09h59.32.952,mogelijke versie adaptive staircase builder,,2026.1.3,60.01439145,2026-04-20 09h59.33.698788 +0200
12.5,ecc0,mid,15,0,15,j,1,1.6491191,None,0,1,1,1,15,0,15,0,2053.81208,,,,,,,,,,,,,,,2053.8014,2053.81208,2054.715189,2053.81208,2053.81208,2055.465518,j,1,1.6491191,None,direct,19,"[20, 19, 20, 18, 19, 18, 19, 18, 19]",9,direct_gaze.png,j,1,2,results23,1,2026-04-20_09h59.32.952,mogelijke versie adaptive staircase builder,,2026.1.3,60.01439145,2026-04-20 09h59.33.698788 +0200
12.5,ecc0,mid,16,0,16,j,0,2.5253901,None,0,1,1,1,16,0,16,0,2055.559833,,,,,,,,,,,,,,,2055.549534,2055.559833,2056.465301,2055.559833,2055.559833,2058.098828,j,0,2.5253901,None,left,18,"[20, 19, 20, 18, 19, 18, 19, 18, 19, 18]",10,gaze_L_18.png,j,0,2,results23,1,2026-04-20_09h59.32.952,mogelijke versie adaptive staircase builder,,2026.1.3,60.01439145,2026-04-20 09h59.33.698788 +0200
12.5,ecc0,mid,17,0,17,f,1,2.0385195,None,0,1,1,1,17,0,17,0,2058.198709,,,,,,,,,,,,,,,2058.188051,2058.198709,2059.098493,2058.198709,2058.198709,2060.248786,f,1,2.0385195,None,right,19,"[20, 19, 20, 18, 19, 18, 19, 18, 19, 18, 19]",11,gaze_R_19.png,f,1,2,results23,1,2026-04-20_09h59.32.952,mogelijke versie adaptive staircase builder,,2026.1.3,60.01439145,2026-04-20 09h59.33.698788 +0200
12.5,ecc0,mid,18,0,18,f,0,2.4126714,None,0,1,1,1,18,0,18,0,2060.344581,,,,,,,,,,,,,,,2060.333985,2060.344581,2061.248452,2060.344581,2060.344581,2062.765554,f,0,2.4126714,None,direct,18,"[20, 19, 20, 18, 19, 18, 19, 18, 19, 18, 19, 18]",12,direct_gaze.png,f,0,2,results23,1,2026-04-20_09h59.32.952,mogelijke versie adaptive staircase builder,,2026.1.3,60.01439145,2026-04-20 09h59.33.698788 +0200
12.5,ecc0,mid,19,0,19,j,1,1.7263914,None,0,1,1,1,19,0,19,0,2062.862841,,,,,,,,,,,,,,,2062.852367,2062.862841,2063.765246,2062.862841,2062.862841,2064.598675,j,1,1.7263914,None,direct,19,"[20, 19, 20, 18, 19, 18, 19, 18, 19, 18, 19, 18, 19]",13,direct_gaze.png,j,1,2,results23,1,2026-04-20_09h59.32.952,mogelijke versie adaptive staircase builder,,2026.1.3,60.01439145,2026-04-20 09h59.33.698788 +0200
12.5,ecc0,mid,20,0,20,f,0,2.4071414,None,0,1,1,1,20,0,20,0,2064.694102,,,,,,,,,,,,,,,2064.68299,2064.694102,2065.59837,2064.694102,2064.694102,2067.115326,f,0,2.4071414,None,direct,18,"[20, 19, 20, 18, 19, 18, 19, 18, 19, 18, 19, 18, 19, 18]",14,direct_gaze.png,f,0,2,results23,1,2026-04-20_09h59.32.952,mogelijke versie adaptive staircase builder,,2026.1.3,60.01439145,2026-04-20 09h59.33.698788 +0200
12.5,ecc0,mid,21,0,21,j,0,1.9925874,None,0,1,1,1,21,0,21,0,2067.212666,,,,,,,,,,,,,,,2067.202453,2067.212666,2068.114895,2067.212666,2067.212666,2069.215229,j,0,1.9925874,None,right,19,"[20, 19, 20, 18, 19, 18, 19, 18, 19, 18, 19, 18, 19, 18]",14,gaze_R_19.png,j,0,2,results23,1,2026-04-20_09h59.32.952,mogelijke versie adaptive staircase builder,,2026.1.3,60.01439145,2026-04-20 09h59.33.698788 +0200
12.5,ecc0,mid,22,0,22,j,0,2.1734573,None,0,1,1,1,22,0,22,0,2069.311767,,,,,,,,,,,,,,,2069.300719,2069.311767,2070.214825,2069.311767,2069.311767,2071.498692,j,0,2.1734573,None,right,20,"[20, 19, 20, 18, 19, 18, 19, 18, 19, 18, 19, 18, 19, 18]",14,gaze_R_20.png,j,0,2,results23,1,2026-04-20_09h59.32.952,mogelijke versie adaptive staircase builder,,2026.1.3,60.01439145,2026-04-20 09h59.33.698788 +0200
12.5,ecc0,mid,23,0,23,j,0,2.2911522,None,0,1,1,1,23,0,23,0,2071.594074,,,,,,,,,,,,,,,2071.583795,2071.594074,2072.498229,2071.594074,2071.594074,2073.898792,j,0,2.2911522,None,left,20,"[20, 19, 20, 18, 19, 18, 19, 18, 19, 18, 19, 18, 19, 18]",14,gaze_L_20.png,j,0,2,results23,1,2026-04-20_09h59.32.952,mogelijke versie adaptive staircase builder,,2026.1.3,60.01439145,2026-04-20 09h59.33.698788 +0200
12.5,ecc0,mid,24,0,24,f,1,1.9656431,None,0,1,1,1,24,0,24,0,2073.999829,,,,,,,,,,,,,,,2073.989333,2073.999829,2074.898598,2073.999829,2073.999829,2075.98202,f,1,1.9656431,None,left,20,"[20, 19, 20, 18, 19, 18, 19, 18, 19, 18, 19, 18, 19, 18, 20]",15,gaze_L_20.png,f,1,2,results23,1,2026-04-20_09h59.32.952,mogelijke versie adaptive staircase builder,,2026.1.3,60.01439145,2026-04-20 09h59.33.698788 +0200
12.5,ecc0,mid,25,0,25,f,1,3.2478451,None,0,1,1,1,25,0,25,0,2076.077384,,,,,,,,,,,,,,,2076.066383,2076.077384,2076.981566,2076.077384,2076.077384,2079.332031,f,1,3.2478451,None,left,19,"[20, 19, 20, 18, 19, 18, 19, 18, 19, 18, 19, 18, 19, 18, 20]",15,gaze_L_19.png,f,1,2,results23,1,2026-04-20_09h59.32.952,mogelijke versie adaptive staircase builder,,2026.1.3,60.01439145,2026-04-20 09h59.33.698788 +0200
12.5,ecc0,mid,26,0,26,j,0,3.3597218,None,0,1,1,1,26,0,26,0,2079.42956,,,,,,,,,,,,,,,2079.419025,2079.42956,2080.331721,2079.42956,2079.42956,2082.79846,j,0,3.3597218,None,left,18,"[20, 19, 20, 18, 19, 18, 19, 18, 19, 18, 19, 18, 19, 18, 20, 18]",16,gaze_L_18.png,j,0,2,results23,1,2026-04-20_09h59.32.952,mogelijke versie adaptive staircase builder,,2026.1.3,60.01439145,2026-04-20 09h59.33.698788 +0200
12.5,ecc0,mid,27,0,27,f,1,3.4621482,None,0,1,1,1,27,0,27,0,2082.895125,,,,,,,,,,,,,,,2082.88455,2082.895125,2083.798141,2082.895125,2082.895125,2086.365089,f,1,3.4621482,None,left,19,"[20, 19, 20, 18, 19, 18, 19, 18, 19, 18, 19, 18, 19, 18, 20, 18, 19]",17,gaze_L_19.png,f,1,2,results23,1,2026-04-20_09h59.32.952,mogelijke versie adaptive staircase builder,,2026.1.3,60.01439145,2026-04-20 09h59.33.698788 +0200
12.5,ecc0,mid,28,0,28,f,0,3.9991522,None,0,1,1,1,28,0,28,0,2086.462181,,,,,,,,,,,,,,,2086.450716,2086.462181,2087.364825,2086.462181,2086.462181,2090.46487,f,0,3.9991522,None,direct,18,"[20, 19, 20, 18, 19, 18, 19, 18, 19, 18, 19, 18, 19, 18, 20, 18, 19, 18]",18,direct_gaze.png,f,0,2,results23,1,2026-04-20_09h59.32.952,mogelijke versie adaptive staircase builder,,2026.1.3,60.01439145,2026-04-20 09h59.33.698788 +0200
12.5,ecc0,mid,29,0,29,j,1,1.9572156,None,0,1,1,1,29,0,29,0,2090.560136,,,,,,,,,,,,,,,2090.549921,2090.560136,2091.464645,2090.560136,2090.560136,2092.532015,j,1,1.9572156,None,direct,19,"[20, 19, 20, 18, 19, 18, 19, 18, 19, 18, 19, 18, 19, 18, 20, 18, 19, 18, 19]",19,direct_gaze.png,j,1,2,results23,1,2026-04-20_09h59.32.952,mogelijke versie adaptive staircase builder,,2026.1.3,60.01439145,2026-04-20 09h59.33.698788 +0200
12.5,ecc0,mid,30,0,30,j,0,0.1210474,None,0,1,1,1,30,0,30,0,2093.004177,,,,,,,,,,,,,,,2092.993638,2093.004177,,2093.004177,2093.004177,2093.131878,j,0,0.1210474,None,right,18,"[20, 19, 20, 18, 19, 18, 19, 18, 19, 18, 19, 18, 19, 18, 20, 18, 19, 18, 19, 18]",20,gaze_R_18.png,j,0,2,results23,1,2026-04-20_09h59.32.952,mogelijke versie adaptive staircase builder,,2026.1.3,60.01439145,2026-04-20 09h59.33.698788 +0200
12.5,ecc0,mid,31,0,31,f,1,2.5540673,None,0,1,1,1,31,0,31,0,2093.227497,,,,,,,,,,,,,,,2093.217263,2093.227497,2094.131265,2093.227497,2093.227497,2095.798529,f,1,2.5540673,None,right,19,"[20, 19, 20, 18, 19, 18, 19, 18, 19, 18, 19, 18, 19, 18, 20, 18, 19, 18, 19, 18, 19]",21,gaze_R_19.png,f,1,2,results23,1,2026-04-20_09h59.32.952,mogelijke versie adaptive staircase builder,,2026.1.3,60.01439145,2026-04-20 09h59.33.698788 +0200
12.5,ecc0,mid,32,0,32,j,1,2.2874458,None,0,1,1,1,32,0,32,0,2095.894192,,,,,,,,,,,,,,,2095.883718,2095.894192,2096.797973,2095.894192,2095.894192,2098.198429,j,1,2.2874458,None,direct,18,"[20, 19, 20, 18, 19, 18, 19, 18, 19, 18, 19, 18, 19, 18, 20, 18, 19, 18, 19, 18, 19]",21,direct_gaze.png,j,1,2,results23,1,2026-04-20_09h59.32.952,mogelijke versie adaptive staircase builder,,2026.1.3,60.01439145,2026-04-20 09h59.33.698788 +0200
12.5,ecc0,mid,33,0,33,j,0,2.0043972,None,0,1,1,1,33,0,33,0,2098.401177,,,,,,,,,,,,,,,2098.389675,2098.401177,2099.19801,2098.401177,2098.401177,2100.415301,j,0,2.0043972,None,left,17,"[20, 19, 20, 18, 19, 18, 19, 18, 19, 18, 19, 18, 19, 18, 20, 18, 19, 18, 19, 18, 19, 17]",22,gaze_L_17.png,j,0,2,results23,1,2026-04-20_09h59.32.952,mogelijke versie adaptive staircase builder,,2026.1.3,60.01439145,2026-04-20 09h59.33.698788 +0200
12.5,ecc0,mid,34,0,34,j,0,2.6754481,None,0,1,1,1,34,0,34,0,2100.5139,,,,,,,,,,,,,,,2100.50381,2100.5139,2101.414632,2100.5139,2100.5139,2103.198246,j,0,2.6754481,None,left,18,"[20, 19, 20, 18, 19, 18, 19, 18, 19, 18, 19, 18, 19, 18, 20, 18, 19, 18, 19, 18, 19, 17]",22,gaze_L_18.png,j,0,2,results23,1,2026-04-20_09h59.32.952,mogelijke versie adaptive staircase builder,,2026.1.3,60.01439145,2026-04-20 09h59.33.698788 +0200
12.5,ecc0,mid,35,0,35,f,1,2.2961566,None,0,1,1,1,35,0,35,0,2103.29316,,,,,,,,,,,,,,,2103.282047,2103.29316,2104.198202,2103.29316,2103.29316,2105.598344,f,1,2.2961566,None,left,19,"[20, 19, 20, 18, 19, 18, 19, 18, 19, 18, 19, 18, 19, 18, 20, 18, 19, 18, 19, 18, 19, 17, 19]",23,gaze_L_19.png,f,1,2,results23,1,2026-04-20_09h59.32.952,mogelijke versie adaptive staircase builder,,2026.1.3,60.01439145,2026-04-20 09h59.33.698788 +0200
12.5,ecc0,mid,36,0,36,j,1,2.2798654,None,0,1,1,1,36,0,36,0,2105.693472,,,,,,,,,,,,,,,2105.68221,2105.693472,2106.597778,2105.693472,2105.693472,2107.981594,j,1,2.2798654,None,direct,18,"[20, 19, 20, 18, 19, 18, 19, 18, 19, 18, 19, 18, 19, 18, 20, 18, 19, 18, 19, 18, 19, 17, 19]",23,direct_gaze.png,j,1,2,results23,1,2026-04-20_09h59.32.952,mogelijke versie adaptive staircase builder,,2026.1.3,60.01439145,2026-04-20 09h59.33.698788 +0200
12.5,ecc0,mid,37,0,37,j,0,2.2106054,None,0,1,1,1,37,0,37,0,2108.434748,,,,,,,,,,,,,,,2108.424306,2108.434748,2108.981223,2108.434748,2108.434748,2110.648138,j,0,2.2106054,None,right,17,"[20, 19, 20, 18, 19, 18, 19, 18, 19, 18, 19, 18, 19, 18, 20, 18, 19, 18, 19, 18, 19, 17, 19, 17]",24,gaze_R_17.png,j,0,2,results23,1,2026-04-20_09h59.32.952,mogelijke versie adaptive staircase builder,,2026.1.3,60.01439145,2026-04-20 09h59.33.698788 +0200
12.5,ecc0,mid,38,0,38,f,1,3.2359855,None,0,1,1,1,38,0,38,0,2110.745549,,,,,,,,,,,,,,,2110.734809,2110.745549,2111.648049,2110.745549,2110.745549,2113.998801,f,1,3.2359855,None,right,18,"[20, 19, 20, 18, 19, 18, 19, 18, 19, 18, 19, 18, 19, 18, 20, 18, 19, 18, 19, 18, 19, 17, 19, 17, 18]",25,gaze_R_18.png,f,1,2,results23,1,2026-04-20_09h59.32.952,mogelijke versie adaptive staircase builder,,2026.1.3,60.01439145,2026-04-20 09h59.33.698788 +0200
12.5,ecc0,mid,39,0,39,j,0,2.5482436,None,0,1,1,1,39,0,39,0,2114.097137,,,,,,,,,,,,,,,2114.085996,2114.097137,2115.014476,2114.097137,2114.097137,2116.64812,j,0,2.5482436,None,left,17,"[20, 19, 20, 18, 19, 18, 19, 18, 19, 18, 19, 18, 19, 18, 20, 18, 19, 18, 19, 18, 19, 17, 19, 17, 18, 17]",26,gaze_L_17.png,j,0,2,results23,1,2026-04-20_09h59.32.952,mogelijke versie adaptive staircase builder,,2026.1.3,60.01439145,2026-04-20 09h59.33.698788 +0200
12.5,ecc0,mid,40,0,40,j,1,2.6423221,None,0,1,1,1,40,0,40,0,2116.746921,,,,,,,,,,,,,,,2116.735647,2116.746921,2117.648068,2116.746921,2116.746921,2119.397869,j,1,2.6423221,None,direct,18,"[20, 19, 20, 18, 19, 18, 19, 18, 19, 18, 19, 18, 19, 18, 20, 18, 19, 18, 19, 18, 19, 17, 19, 17, 18, 17, 18]",27,direct_gaze.png,j,1,2,results23,1,2026-04-20_09h59.32.952,mogelijke versie adaptive staircase builder,,2026.1.3,60.01439145,2026-04-20 09h59.33.698788 +0200
12.5,ecc0,mid,41,0,41,f,1,2.7735256,None,0,1,1,1,41,0,41,0,2119.49549,,,,,,,,,,,,,,,2119.484276,2119.49549,2120.39775,2119.49549,2119.49549,2122.281288,f,1,2.7735256,None,right,17,"[20, 19, 20, 18, 19, 18, 19, 18, 19, 18, 19, 18, 19, 18, 20, 18, 19, 18, 19, 18, 19, 17, 19, 17, 18, 17, 18]",27,gaze_R_17.png,f,1,2,results23,1,2026-04-20_09h59.32.952,mogelijke versie adaptive staircase builder,,2026.1.3,60.01439145,2026-04-20 09h59.33.698788 +0200
12.5,ecc0,mid,42,0,42,j,0,3.0304213,None,0,1,1,1,42,0,42,0,2122.751189,,,,,,,,,,,,,,,2122.734903,2122.751189,2123.281105,2122.751189,2122.751189,2125.798103,j,0,3.0304213,None,right,16,"[20, 19, 20, 18, 19, 18, 19, 18, 19, 18, 19, 18, 19, 18, 20, 18, 19, 18, 19, 18, 19, 17, 19, 17, 18, 17, 18, 16]",28,gaze_R_16.png,j,0,2,results23,1,2026-04-20_09h59.32.952,mogelijke versie adaptive staircase builder,,2026.1.3,60.01439145,2026-04-20 09h59.33.698788 +0200
12.5,ecc0,mid,43,0,43,j,1,2.5541973,None,0,1,1,1,43,0,43,0,2125.899076,,,,,,,,,,,,,,,2125.888281,2125.899076,2126.797486,2125.899076,2125.899076,2128.464541,j,1,2.5541973,None,direct,17,"[20, 19, 20, 18, 19, 18, 19, 18, 19, 18, 19, 18, 19, 18, 20, 18, 19, 18, 19, 18, 19, 17, 19, 17, 18, 17, 18, 16, 17]",29,direct_gaze.png,j,1,2,results23,1,2026-04-20_09h59.32.952,mogelijke versie adaptive staircase builder,,2026.1.3,60.01439145,2026-04-20 09h59.33.698788 +0200
12.5,ecc0,mid,44,0,44,j,0,1.7884214,None,0,1,1,1,44,0,44,0,2128.728769,,,,,,,,,,,,,,,2128.717708,2128.728769,2129.464399,2128.728769,2128.728769,2130.531472,j,0,1.7884214,None,left,16,"[20, 19, 20, 18, 19, 18, 19, 18, 19, 18, 19, 18, 19, 18, 20, 18, 19, 18, 19, 18, 19, 17, 19, 17, 18, 17, 18, 16, 17, 16]",30,gaze_L_16.png,j,0,2,results23,1,2026-04-20_09h59.32.952,mogelijke versie adaptive staircase builder,,2026.1.3,60.01439145,2026-04-20 09h59.33.698788 +0200
12.5,ecc0,mid,45,0,45,f,0,2.6063028,None,0,1,1,1,45,0,45,0,2130.631237,,,,,,,,,,,,,,,2130.621246,2130.631237,2131.53069,2130.631237,2130.631237,2133.24776,f,0,2.6063028,None,direct,17,"[20, 19, 20, 18, 19, 18, 19, 18, 19, 18, 19, 18, 19, 18, 20, 18, 19, 18, 19, 18, 19, 17, 19, 17, 18, 17, 18, 16, 17, 16]",30,direct_gaze.png,f,0,2,results23,1,2026-04-20_09h59.32.952,mogelijke versie adaptive staircase builder,,2026.1.3,60.01439145,2026-04-20 09h59.33.698788 +0200
12.5,ecc0,mid,46,0,46,f,0,3.5971905,None,0,1,1,1,46,0,46,0,2133.344043,,,,,,,,,,,,,,,2133.333253,2133.344043,2134.247412,2133.344043,2133.344043,2136.947955,f,0,3.5971905,None,direct,18,"[20, 19, 20, 18, 19, 18, 19, 18, 19, 18, 19, 18, 19, 18, 20, 18, 19, 18, 19, 18, 19, 17, 19, 17, 18, 17, 18, 16, 17, 16]",30,direct_gaze.png,f,0,2,results23,1,2026-04-20_09h59.32.952,mogelijke versie adaptive staircase builder,,2026.1.3,60.01439145,2026-04-20 09h59.33.698788 +0200
12.5,ecc0,mid,47,0,47,j,0,1.898522,None,0,1,1,1,47,0,47,0,2137.050851,,,,,,,,,,,,,,,2137.040334,2137.050851,2137.947443,2137.050851,2137.050851,2138.964468,j,0,1.898522,None,left,19,"[20, 19, 20, 18, 19, 18, 19, 18, 19, 18, 19, 18, 19, 18, 20, 18, 19, 18, 19, 18, 19, 17, 19, 17, 18, 17, 18, 16, 17, 16]",30,gaze_L_19.png,j,0,2,results23,1,2026-04-20_09h59.32.952,mogelijke versie adaptive staircase builder,,2026.1.3,60.01439145,2026-04-20 09h59.33.698788 +0200
12.5,ecc0,mid,48,0,48,j,0,2.0813686,None,0,1,1,1,48,0,48,0,2139.067924,,,,,,,,,,,,,,,2139.057207,2139.067924,2139.964156,2139.067924,2139.067924,2141.164588,j,0,2.0813686,None,left,20,"[20, 19, 20, 18, 19, 18, 19, 18, 19, 18, 19, 18, 19, 18, 20, 18, 19, 18, 19, 18, 19, 17, 19, 17, 18, 17, 18, 16, 17, 16]",30,gaze_L_20.png,j,0,2,results23,1,2026-04-20_09h59.32.952,mogelijke versie adaptive staircase builder,,2026.1.3,60.01439145,2026-04-20 09h59.33.698788 +0200
12.5,ecc0,mid,49,0,49,j,0,3.0545211,None,0,1,1,1,49,0,49,0,2141.262778,,,,,,,,,,,,,,,2141.251333,2141.262778,2142.164201,2141.262778,2141.262778,2144.331131,j,0,3.0545211,None,right,20,"[20, 19, 20, 18, 19, 18, 19, 18, 19, 18, 19, 18, 19, 18, 20, 18, 19, 18, 19, 18, 19, 17, 19, 17, 18, 17, 18, 16, 17, 16]",30,gaze_R_20.png,j,0,2,results23,1,2026-04-20_09h59.32.952,mogelijke versie adaptive staircase builder,,2026.1.3,60.01439145,2026-04-20 09h59.33.698788 +0200
12.5,ecc0,mid,50,0,50,j,0,2.3629706,None,0,1,1,1,50,0,50,0,2144.426474,,,,,,,,,,,,,,,2144.415885,2144.426474,2145.330772,2144.426474,2144.426474,2146.797877,j,0,2.3629706,None,right,20,"[20, 19, 20, 18, 19, 18, 19, 18, 19, 18, 19, 18, 19, 18, 20, 18, 19, 18, 19, 18, 19, 17, 19, 17, 18, 17, 18, 16, 17, 16]",30,gaze_R_20.png,j,0,2,results23,1,2026-04-20_09h59.32.952,mogelijke versie adaptive staircase builder,,2026.1.3,60.01439145,2026-04-20 09h59.33.698788 +0200
12.5,ecc0,mid,51,0,51,f,1,2.2662441,None,0,1,1,1,51,0,51,0,2146.899033,,,,,,,,,,,,,,,2146.88799,2146.899033,2147.797521,2146.899033,2146.899033,2149.181122,f,1,2.2662441,None,left,20,"[20, 19, 20, 18, 19, 18, 19, 18, 19, 18, 19, 18, 19, 18, 20, 18, 19, 18, 19, 18, 19, 17, 19, 17, 18, 17, 18, 16, 17, 16, 20]",31,gaze_L_20.png,f,1,2,results23,1,2026-04-20_09h59.32.952,mogelijke versie adaptive staircase builder,,2026.1.3,60.01439145,2026-04-20 09h59.33.698788 +0200
12.5,ecc0,mid,52,0,52,f,1,1.9818952,None,0,1,1,1,52,0,52,0,2149.279404,,,,,,,,,,,,,,,2149.268186,2149.279404,2150.180626,2149.279404,2149.279404,2151.264485,f,1,1.9818952,None,left,19,"[20, 19, 20, 18, 19, 18, 19, 18, 19, 18, 19, 18, 19, 18, 20, 18, 19, 18, 19, 18, 19, 17, 19, 17, 18, 17, 18, 16, 17, 16, 20]",31,gaze_L_19.png,f,1,2,results23,1,2026-04-20_09h59.32.952,mogelijke versie adaptive staircase builder,,2026.1.3,60.01439145,2026-04-20 09h59.33.698788 +0200
12.5,ecc0,mid,53,0,53,j,0,1.9494379,None,0,1,1,1,53,0,53,0,2151.359867,,,,,,,,,,,,,,,2151.349272,2151.359867,2152.264016,2151.359867,2151.359867,2153.314416,j,0,1.9494379,None,left,18,"[20, 19, 20, 18, 19, 18, 19, 18, 19, 18, 19, 18, 19, 18, 20, 18, 19, 18, 19, 18, 19, 17, 19, 17, 18, 17, 18, 16, 17, 16, 20, 18]",32,gaze_L_18.png,j,0,2,results23,1,2026-04-20_09h59.32.952,mogelijke versie adaptive staircase builder,,2026.1.3,60.01439145,2026-04-20 09h59.33.698788 +0200
12.5,ecc0,mid,54,0,54,j,0,2.7155337,None,0,1,1,1,54,0,54,0,2153.417788,,,,,,,,,,,,,,,2153.406872,2153.417788,2154.31418,2153.417788,2153.417788,2156.147852,j,0,2.7155337,None,right,19,"[20, 19, 20, 18, 19, 18, 19, 18, 19, 18, 19, 18, 19, 18, 20, 18, 19, 18, 19, 18, 19, 17, 19, 17, 18, 17, 18, 16, 17, 16, 20, 18]",32,gaze_R_19.png,j,0,2,results23,1,2026-04-20_09h59.32.952,mogelijke versie adaptive staircase builder,,2026.1.3,60.01439145,2026-04-20 09h59.33.698788 +0200
12.5,ecc0,mid,55,0,55,f,0,3.9229418,None,0,1,1,1,55,0,55,0,2156.250441,,,,,,,,,,,,,,,2156.239758,2156.250441,2157.147405,2156.250441,2156.250441,2160.180959,f,0,3.9229418,None,direct,20,"[20, 19, 20, 18, 19, 18, 19, 18, 19, 18, 19, 18, 19, 18, 20, 18, 19, 18, 19, 18, 19, 17, 19, 17, 18, 17, 18, 16, 17, 16, 20, 18]",32,direct_gaze.png,f,0,2,results23,1,2026-04-20_09h59.32.952,mogelijke versie adaptive staircase builder,,2026.1.3,60.01439145,2026-04-20 09h59.33.698788 +0200
12.5,ecc0,mid,56,0,56,f,1,2.5667952,None,0,1,1,1,56,0,56,0,2160.278496,,,,,,,,,,,,,,,2160.268031,2160.278496,2161.180388,2160.278496,2160.278496,2162.847626,f,1,2.5667952,None,right,20,"[20, 19, 20, 18, 19, 18, 19, 18, 19, 18, 19, 18, 19, 18, 20, 18, 19, 18, 19, 18, 19, 17, 19, 17, 18, 17, 18, 16, 17, 16, 20, 18, 20]",33,gaze_R_20.png,f,1,2,results23,1,2026-04-20_09h59.32.952,mogelijke versie adaptive staircase builder,,2026.1.3,60.01439145,2026-04-20 09h59.33.698788 +0200
12.5,ecc0,mid,57,0,57,f,0,2.0269836,None,0,1,1,1,57,0,57,0,2162.94646,,,,,,,,,,,,,,,2162.934057,2162.94646,2163.847307,2162.94646,2162.94646,2164.980817,f,0,2.0269836,None,direct,19,"[20, 19, 20, 18, 19, 18, 19, 18, 19, 18, 19, 18, 19, 18, 20, 18, 19, 18, 19, 18, 19, 17, 19, 17, 18, 17, 18, 16, 17, 16, 20, 18, 20, 19]",34,direct_gaze.png,f,0,2,results23,1,2026-04-20_09h59.32.952,mogelijke versie adaptive staircase builder,,2026.1.3,60.01439145,2026-04-20 09h59.33.698788 +0200
12.5,ecc0,mid,58,0,58,f,1,2.7067797,None,0,1,1,1,58,0,58,0,2165.075001,,,,,,,,,,,,,,,2165.064598,2165.075001,2165.980507,2165.075001,2165.075001,2167.7971,f,1,2.7067797,None,right,20,"[20, 19, 20, 18, 19, 18, 19, 18, 19, 18, 19, 18, 19, 18, 20, 18, 19, 18, 19, 18, 19, 17, 19, 17, 18, 17, 18, 16, 17, 16, 20, 18, 20, 19, 20]",35,gaze_R_20.png,f,1,2,results23,1,2026-04-20_09h59.32.952,mogelijke versie adaptive staircase builder,,2026.1.3,60.01439145,2026-04-20 09h59.33.698788 +0200
12.5,ecc0,mid,59,0,59,j,1,1.8167356,None,0,1,1,1,59,0,59,0,2167.892557,,,,,,,,,,,,,,,2167.881948,2167.892557,2168.797046,2167.892557,2167.892557,2169.71428,j,1,1.8167356,None,direct,19,"[20, 19, 20, 18, 19, 18, 19, 18, 19, 18, 19, 18, 19, 18, 20, 18, 19, 18, 19, 18, 19, 17, 19, 17, 18, 17, 18, 16, 17, 16, 20, 18, 20, 19, 20]",35,direct_gaze.png,j,1,2,results23,1,2026-04-20_09h59.32.952,mogelijke versie adaptive staircase builder,,2026.1.3,60.01439145,2026-04-20 09h59.33.698788 +0200
12.5,ecc0,mid,1,1,0,,,,,0,1,1,1,,,,,,,,,,,,,,,,,,,,,,,,,,,,,,,,,,,,,,results23,1,2026-04-20_09h59.32.952,mogelijke versie adaptive staircase builder,,2026.1.3,60.01439145,2026-04-20 09h59.33.698788 +0200
20.5,ecc10neg,right,0,0,0,j,0,2.5601422,None,0,2,2,2,0,0,0,0,2170.253169,,,,,,,,,,,,,2169.717203,2169.717239,2170.241173,2170.253169,2170.253169,2170.730376,2170.253169,2172.814354,j,0,2.5601422,None,right,20,[],0,shiftedgaze_R_20.png,j,0,3,results23,1,2026-04-20_09h59.32.952,mogelijke versie adaptive staircase builder,,2026.1.3,60.01439145,2026-04-20 09h59.33.698788 +0200
20.5,ecc10neg,right,1,0,1,j,0,3.2747847,None,0,2,2,2,1,0,1,0,2173.050551,,,,,,,,,,,,,,,2173.039372,2173.050551,2173.050551,2173.813754,2173.050551,2176.331178,j,0,3.2747847,None,left,20,[],0,shiftedgaze_L_20.png,j,0,3,results23,1,2026-04-20_09h59.32.952,mogelijke versie adaptive staircase builder,,2026.1.3,60.01439145,2026-04-20 09h59.33.698788 +0200
20.5,ecc10neg,right,2,0,2,f,1,2.2178354,None,0,2,2,2,2,0,2,0,2176.459639,,,,,,,,,,,,,,,2176.447728,2176.459639,2176.459639,2177.346899,2176.459639,2178.68044,f,1,2.2178354,None,right,20,[20],1,shiftedgaze_R_20.png,f,1,3,results23,1,2026-04-20_09h59.32.952,mogelijke versie adaptive staircase builder,,2026.1.3,60.01439145,2026-04-20 09h59.33.698788 +0200
20.5,ecc10neg,right,3,0,3,j,0,2.0408487,None,0,2,2,2,3,0,3,0,2178.916518,,,,,,,,,,,,,,,2178.905324,2178.916518,2178.916518,2179.680098,2178.916518,2180.964378,j,0,2.0408487,None,right,19,"[20, 19]",2,shiftedgaze_R_19.png,j,0,3,results23,1,2026-04-20_09h59.32.952,mogelijke versie adaptive staircase builder,,2026.1.3,60.01439145,2026-04-20 09h59.33.698788 +0200
20.5,ecc10neg,right,4,0,4,j,1,1.873559,None,0,2,2,2,4,0,4,0,2181.091731,,,,,,,,,,,,,,,2181.080842,2181.091731,2181.091731,2181.963926,2181.091731,2182.980474,j,1,1.873559,None,direct,20,"[20, 19, 20]",3,shifteddirectgaze.png,j,1,3,results23,1,2026-04-20_09h59.32.952,mogelijke versie adaptive staircase builder,,2026.1.3,60.01439145,2026-04-20 09h59.33.698788 +0200
20.5,ecc10neg,right,5,0,5,j,1,2.3526548,None,0,2,2,2,5,0,5,0,2183.076628,,,,,,,,,,,,,,,2183.065338,2183.076628,2183.076628,2183.980104,2183.076628,2185.431159,j,1,2.3526548,None,direct,19,"[20, 19, 20]",3,shifteddirectgaze.png,j,1,3,results23,1,2026-04-20_09h59.32.952,mogelijke versie adaptive staircase builder,,2026.1.3,60.01439145,2026-04-20 09h59.33.698788 +0200
20.5,ecc10neg,right,6,0,6,j,1,2.2149594,None,0,2,2,2,6,0,6,0,2185.526359,,,,,,,,,,,,,,,2185.516125,2185.526359,2185.526359,2186.447171,2185.526359,2187.747446,j,1,2.2149594,None,direct,18,"[20, 19, 20]",3,shifteddirectgaze.png,j,1,3,results23,1,2026-04-20_09h59.32.952,mogelijke versie adaptive staircase builder,,2026.1.3,60.01439145,2026-04-20 09h59.33.698788 +0200
20.5,ecc10neg,right,7,0,7,f,1,1.7807974,None,0,2,2,2,7,0,7,0,2187.968525,,,,,,,,,,,,,,,2187.957727,2187.968525,2187.968525,2188.763651,2187.968525,2189.763942,f,1,1.7807974,None,left,17,"[20, 19, 20]",3,shiftedgaze_L_17.png,f,1,3,results23,1,2026-04-20_09h59.32.952,mogelijke versie adaptive staircase builder,,2026.1.3,60.01439145,2026-04-20 09h59.33.698788 +0200
20.5,ecc10neg,right,8,0,8,f,0,2.1574998,None,0,2,2,2,8,0,8,0,2189.863746,,,,,,,,,,,,,,,2189.853007,2189.863746,2189.863746,2190.763913,2189.863746,2192.030406,f,0,2.1574998,None,direct,16,"[20, 19, 20, 16]",4,shifteddirectgaze.png,f,0,3,results23,1,2026-04-20_09h59.32.952,mogelijke versie adaptive staircase builder,,2026.1.3,60.01439145,2026-04-20 09h59.33.698788 +0200
20.5,ecc10neg,right,9,0,9,f,1,4.1029175,None,0,2,2,2,9,0,9,0,2192.270496,,,,,,,,,,,,,,,2192.259277,2192.270496,2192.270496,2193.030138,2192.270496,2196.380972,f,1,4.1029175,None,right,17,"[20, 19, 20, 16, 17]",5,shiftedgaze_R_17.png,f,1,3,results23,1,2026-04-20_09h59.32.952,mogelijke versie adaptive staircase builder,,2026.1.3,60.01439145,2026-04-20 09h59.33.698788 +0200
20.5,ecc10neg,right,10,0,10,j,0,3.9224103,None,0,2,2,2,10,0,10,0,2196.611021,,,,,,,,,,,,,,,2196.60011,2196.611021,2196.611021,2197.38011,2196.611021,2200.546905,j,0,3.9224103,None,left,16,"[20, 19, 20, 16, 17, 16]",6,shiftedgaze_L_16.png,j,0,3,results23,1,2026-04-20_09h59.32.952,mogelijke versie adaptive staircase builder,,2026.1.3,60.01439145,2026-04-20 09h59.33.698788 +0200
20.5,ecc10neg,right,11,0,11,j,0,1.8021065,None,0,2,2,2,11,0,11,0,2200.643339,,,,,,,,,,,,,,,2200.632507,2200.643339,2200.643339,2201.546739,2200.643339,2202.447266,j,0,1.8021065,None,left,17,"[20, 19, 20, 16, 17, 16]",6,shiftedgaze_L_17.png,j,0,3,results23,1,2026-04-20_09h59.32.952,mogelijke versie adaptive staircase builder,,2026.1.3,60.01439145,2026-04-20 09h59.33.698788 +0200
20.5,ecc10neg,right,12,0,12,f,0,1.9247372,None,0,2,2,2,12,0,12,0,2202.545649,,,,,,,,,,,,,,,2202.534848,2202.545649,2202.545649,2203.446648,2202.545649,2204.480539,f,0,1.9247372,None,direct,18,"[20, 19, 20, 16, 17, 16]",6,shifteddirectgaze.png,f,0,3,results23,1,2026-04-20_09h59.32.952,mogelijke versie adaptive staircase builder,,2026.1.3,60.01439145,2026-04-20 09h59.33.698788 +0200
20.5,ecc10neg,right,13,0,13,j,1,2.8248663,None,0,2,2,2,13,0,13,0,2204.572765,,,,,,,,,,,,,,,2204.561843,2204.572765,2204.572765,2205.479994,2204.572765,2207.413513,j,1,2.8248663,None,direct,19,"[20, 19, 20, 16, 17, 16, 19]",7,shifteddirectgaze.png,j,1,3,results23,1,2026-04-20_09h59.32.952,mogelijke versie adaptive staircase builder,,2026.1.3,60.01439145,2026-04-20 09h59.33.698788 +0200
20.5,ecc10neg,right,14,0,14,f,1,1.9345928,None,0,2,2,2,14,0,14,0,2207.519342,,,,,,,,,,,,,,,2207.507931,2207.519342,2207.519342,2208.41341,2207.519342,2209.463424,f,1,1.9345928,None,left,18,"[20, 19, 20, 16, 17, 16, 19]",7,shiftedgaze_L_18.png,f,1,3,results23,1,2026-04-20_09h59.32.952,mogelijke versie adaptive staircase builder,,2026.1.3,60.01439145,2026-04-20 09h59.33.698788 +0200
20.5,ecc10neg,right,15,0,15,f,1,3.6745302,None,0,2,2,2,15,0,15,0,2209.579063,,,,,,,,,,,,,,,2209.566977,2209.579063,2209.579063,2210.463186,2209.579063,2213.263464,f,1,3.6745302,None,right,17,"[20, 19, 20, 16, 17, 16, 19]",7,shiftedgaze_R_17.png,f,1,3,results23,1,2026-04-20_09h59.32.952,mogelijke versie adaptive staircase builder,,2026.1.3,60.01439145,2026-04-20 09h59.33.698788 +0200
20.5,ecc10neg,right,16,0,16,j,1,1.6172159,None,0,2,2,2,16,0,16,0,2213.372273,,,,,,,,,,,,,,,2213.360682,2213.372273,2213.372273,2214.263151,2213.372273,2214.996674,j,1,1.6172159,None,direct,16,"[20, 19, 20, 16, 17, 16, 19]",7,shifteddirectgaze.png,j,1,3,results23,1,2026-04-20_09h59.32.952,mogelijke versie adaptive staircase builder,,2026.1.3,60.01439145,2026-04-20 09h59.33.698788 +0200
20.5,ecc10neg,right,17,0,17,f,0,2.9989968,None,0,2,2,2,17,0,17,0,2215.086508,,,,,,,,,,,,,,,2215.076073,2215.086508,2215.086508,2215.996589,2215.086508,2218.096971,f,0,2.9989968,None,direct,15,"[20, 19, 20, 16, 17, 16, 19, 15]",8,shifteddirectgaze.png,f,0,3,results23,1,2026-04-20_09h59.32.952,mogelijke versie adaptive staircase builder,,2026.1.3,60.01439145,2026-04-20 09h59.33.698788 +0200
20.5,ecc10neg,right,18,0,18,j,1,2.3588414,None,0,2,2,2,18,0,18,0,2218.190655,,,,,,,,,,,,,,,2218.178759,2218.190655,2218.190655,2219.096564,2218.190655,2220.56315,j,1,2.3588414,None,direct,16,"[20, 19, 20, 16, 17, 16, 19, 15, 16]",9,shifteddirectgaze.png,j,1,3,results23,1,2026-04-20_09h59.32.952,mogelijke versie adaptive staircase builder,,2026.1.3,60.01439145,2026-04-20 09h59.33.698788 +0200
20.5,ecc10neg,right,19,0,19,j,1,3.6775093,None,0,2,2,2,19,0,19,0,2220.655882,,,,,,,,,,,,,,,2220.645344,2220.655882,2220.655882,2221.563052,2220.655882,2224.346841,j,1,3.6775093,None,direct,15,"[20, 19, 20, 16, 17, 16, 19, 15, 16]",9,shifteddirectgaze.png,j,1,3,results23,1,2026-04-20_09h59.32.952,mogelijke versie adaptive staircase builder,,2026.1.3,60.01439145,2026-04-20 09h59.33.698788 +0200
20.5,ecc10neg,right,20,0,20,f,0,4.097828,None,0,2,2,2,20,0,20,0,2224.443677,,,,,,,,,,,,,,,2224.432704,2224.443677,2224.443677,2225.346358,2224.443677,2228.546811,f,0,4.097828,None,direct,14,"[20, 19, 20, 16, 17, 16, 19, 15, 16, 14]",10,shifteddirectgaze.png,f,0,3,results23,1,2026-04-20_09h59.32.952,mogelijke versie adaptive staircase builder,,2026.1.3,60.01439145,2026-04-20 09h59.33.698788 +0200
20.5,ecc10neg,right,21,0,21,j,0,1.4083071,None,0,2,2,2,21,0,21,0,2229.013128,,,,,,,,,,,,,,,2229.002563,2229.013128,2229.013128,2229.546362,2229.013128,2230.430193,j,0,1.4083071,None,left,15,"[20, 19, 20, 16, 17, 16, 19, 15, 16, 14]",10,shiftedgaze_L_15.png,j,0,3,results23,1,2026-04-20_09h59.32.952,mogelijke versie adaptive staircase builder,,2026.1.3,60.01439145,2026-04-20 09h59.33.698788 +0200
20.5,ecc10neg,right,22,0,22,j,0,1.7122871,None,0,2,2,2,22,0,22,0,2230.525135,,,,,,,,,,,,,,,2230.514377,2230.525135,2230.525135,2231.446363,2230.525135,2232.246705,j,0,1.7122871,None,left,16,"[20, 19, 20, 16, 17, 16, 19, 15, 16, 14]",10,shiftedgaze_L_16.png,j,0,3,results23,1,2026-04-20_09h59.32.952,mogelijke versie adaptive staircase builder,,2026.1.3,60.01439145,2026-04-20 09h59.33.698788 +0200
20.5,ecc10neg,right,23,0,23,j,0,2.0465473,None,0,2,2,2,23,0,23,0,2232.366899,,,,,,,,,,,,,,,2232.3549,2232.366899,2232.366899,2233.246058,2232.366899,2234.430403,j,0,2.0465473,None,right,17,"[20, 19, 20, 16, 17, 16, 19, 15, 16, 14]",10,shiftedgaze_R_17.png,j,0,3,results23,1,2026-04-20_09h59.32.952,mogelijke versie adaptive staircase builder,,2026.1.3,60.01439145,2026-04-20 09h59.33.698788 +0200
20.5,ecc10neg,right,24,0,24,f,0,2.3016681,None,0,2,2,2,24,0,24,0,2234.543646,,,,,,,,,,,,,,,2234.532462,2234.543646,2234.543646,2235.446265,2234.543646,2236.846521,f,0,2.3016681,None,direct,18,"[20, 19, 20, 16, 17, 16, 19, 15, 16, 14]",10,shifteddirectgaze.png,f,0,3,results23,1,2026-04-20_09h59.32.952,mogelijke versie adaptive staircase builder,,2026.1.3,60.01439145,2026-04-20 09h59.33.698788 +0200
20.5,ecc10neg,right,25,0,25,j,1,1.7351868,None,0,2,2,2,25,0,25,0,2236.942251,,,,,,,,,,,,,,,2236.931773,2236.942251,2236.942251,2237.846094,2236.942251,2238.680021,j,1,1.7351868,None,direct,19,"[20, 19, 20, 16, 17, 16, 19, 15, 16, 14, 19]",11,shifteddirectgaze.png,j,1,3,results23,1,2026-04-20_09h59.32.952,mogelijke versie adaptive staircase builder,,2026.1.3,60.01439145,2026-04-20 09h59.33.698788 +0200
20.5,ecc10neg,right,26,0,26,f,1,3.0693972,None,0,2,2,2,26,0,26,0,2238.776371,,,,,,,,,,,,,,,2238.765657,2238.776371,2238.776371,2239.679879,2238.776371,2241.846621,f,1,3.0693972,None,left,18,"[20, 19, 20, 16, 17, 16, 19, 15, 16, 14, 19]",11,shiftedgaze_L_18.png,f,1,3,results23,1,2026-04-20_09h59.32.952,mogelijke versie adaptive staircase builder,,2026.1.3,60.01439145,2026-04-20 09h59.33.698788 +0200
20.5,ecc10neg,right,27,0,27,j,0,2.4436629,None,0,2,2,2,27,0,27,0,2241.969664,,,,,,,,,,,,,,,2241.957555,2241.969664,2241.969664,2242.846159,2241.969664,2244.429905,j,0,2.4436629,None,right,17,"[20, 19, 20, 16, 17, 16, 19, 15, 16, 14, 19, 17]",12,shiftedgaze_R_17.png,j,0,3,results23,1,2026-04-20_09h59.32.952,mogelijke versie adaptive staircase builder,,2026.1.3,60.01439145,2026-04-20 09h59.33.698788 +0200
20.5,ecc10neg,right,28,0,28,j,1,2.2374847,None,0,2,2,2,28,0,28,0,2244.543866,,,,,,,,,,,,,,,2244.532549,2244.543866,2244.543866,2245.429497,2244.543866,2246.796495,j,1,2.2374847,None,direct,18,"[20, 19, 20, 16, 17, 16, 19, 15, 16, 14, 19, 17, 18]",13,shifteddirectgaze.png,j,1,3,results23,1,2026-04-20_09h59.32.952,mogelijke versie adaptive staircase builder,,2026.1.3,60.01439145,2026-04-20 09h59.33.698788 +0200
20.5,ecc10neg,right,29,0,29,j,0,2.183904,None,0,2,2,2,29,0,29,0,2246.893435,,,,,,,,,,,,,,,2246.88339,2246.893435,2246.893435,2247.79665,2246.893435,2249.079522,j,0,2.183904,None,left,17,"[20, 19, 20, 16, 17, 16, 19, 15, 16, 14, 19, 17, 18, 17]",14,shiftedgaze_L_17.png,j,0,3,results23,1,2026-04-20_09h59.32.952,mogelijke versie adaptive staircase builder,,2026.1.3,60.01439145,2026-04-20 09h59.33.698788 +0200
20.5,ecc10neg,right,30,0,30,f,1,1.5541805,None,0,2,2,2,30,0,30,0,2249.579161,,,,,,,,,,,,,,,2249.567784,2249.579161,2249.579161,2250.07916,2249.579161,2251.146318,f,1,1.5541805,None,right,18,"[20, 19, 20, 16, 17, 16, 19, 15, 16, 14, 19, 17, 18, 17, 18]",15,shiftedgaze_R_18.png,f,1,3,results23,1,2026-04-20_09h59.32.952,mogelijke versie adaptive staircase builder,,2026.1.3,60.01439145,2026-04-20 09h59.33.698788 +0200
20.5,ecc10neg,right,31,0,31,j,0,2.4846369,None,0,2,2,2,31,0,31,0,2251.264782,,,,,,,,,,,,,,,2251.253481,2251.264782,2251.264782,2252.145921,2251.264782,2253.763129,j,0,2.4846369,None,left,17,"[20, 19, 20, 16, 17, 16, 19, 15, 16, 14, 19, 17, 18, 17, 18, 17]",16,shiftedgaze_L_17.png,j,0,3,results23,1,2026-04-20_09h59.32.952,mogelijke versie adaptive staircase builder,,2026.1.3,60.01439145,2026-04-20 09h59.33.698788 +0200
20.5,ecc10neg,right,32,0,32,f,1,2.4034869,None,0,2,2,2,32,0,32,0,2253.858086,,,,,,,,,,,,,,,2253.847314,2253.858086,2253.858086,2254.762556,2253.858086,2256.263127,f,1,2.4034869,None,left,18,"[20, 19, 20, 16, 17, 16, 19, 15, 16, 14, 19, 17, 18, 17, 18, 17, 18]",17,shiftedgaze_L_18.png,f,1,3,results23,1,2026-04-20_09h59.32.952,mogelijke versie adaptive staircase builder,,2026.1.3,60.01439145,2026-04-20 09h59.33.698788 +0200
20.5,ecc10neg,right,33,0,33,f,0,3.1729357,None,0,2,2,2,33,0,33,0,2256.360474,,,,,,,,,,,,,,,2256.349302,2256.360474,2256.360474,2257.262442,2256.360474,2259.546294,f,0,3.1729357,None,direct,17,"[20, 19, 20, 16, 17, 16, 19, 15, 16, 14, 19, 17, 18, 17, 18, 17, 18, 17]",18,shifteddirectgaze.png,f,0,3,results23,1,2026-04-20_09h59.32.952,mogelijke versie adaptive staircase builder,,2026.1.3,60.01439145,2026-04-20 09h59.33.698788 +0200
20.5,ecc10neg,right,34,0,34,f,1,1.9382851,None,0,2,2,2,34,0,34,0,2259.643098,,,,,,,,,,,,,,,2259.632878,2259.643098,2259.643098,2260.545697,2259.643098,2261.595991,f,1,1.9382851,None,left,18,"[20, 19, 20, 16, 17, 16, 19, 15, 16, 14, 19, 17, 18, 17, 18, 17, 18, 17, 18]",19,shiftedgaze_L_18.png,f,1,3,results23,1,2026-04-20_09h59.32.952,mogelijke versie adaptive staircase builder,,2026.1.3,60.01439145,2026-04-20 09h59.33.698788 +0200
20.5,ecc10neg,right,35,0,35,j,1,2.3273547,None,0,2,2,2,35,0,35,0,2261.694012,,,,,,,,,,,,,,,2261.680698,2261.694012,2261.694012,2262.596496,2261.694012,2264.119656,j,1,2.3273547,None,direct,17,"[20, 19, 20, 16, 17, 16, 19, 15, 16, 14, 19, 17, 18, 17, 18, 17, 18, 17, 18]",19,shifteddirectgaze.png,j,1,3,results23,1,2026-04-20_09h59.32.952,mogelijke versie adaptive staircase builder,,2026.1.3,60.01439145,2026-04-20 09h59.33.698788 +0200
20.5,ecc10neg,right,36,0,36,f,1,2.1280833,None,0,2,2,2,36,0,36,0,2264.613239,,,,,,,,,,,,,,,2264.602275,2264.613239,2264.613239,2265.129275,2264.613239,2266.746152,f,1,2.1280833,None,right,16,"[20, 19, 20, 16, 17, 16, 19, 15, 16, 14, 19, 17, 18, 17, 18, 17, 18, 17, 18]",19,shiftedgaze_R_16.png,f,1,3,results23,1,2026-04-20_09h59.32.952,mogelijke versie adaptive staircase builder,,2026.1.3,60.01439145,2026-04-20 09h59.33.698788 +0200
20.5,ecc10neg,right,37,0,37,f,1,1.8074733,None,0,2,2,2,37,0,37,0,2267.022167,,,,,,,,,,,,,,,2267.011832,2267.022167,2267.022167,2267.74566,2267.022167,2268.847115,f,1,1.8074733,None,right,15,"[20, 19, 20, 16, 17, 16, 19, 15, 16, 14, 19, 17, 18, 17, 18, 17, 18, 17, 18]",19,shiftedgaze_R_15.png,f,1,3,results23,1,2026-04-20_09h59.32.952,mogelijke versie adaptive staircase builder,,2026.1.3,60.01439145,2026-04-20 09h59.33.698788 +0200
20.5,ecc10neg,right,38,0,38,f,1,1.8678222,None,0,2,2,2,38,0,38,0,2269.073669,,,,,,,,,,,,,,,2269.062949,2269.073669,2269.073669,2269.862551,2269.073669,2270.946225,f,1,1.8678222,None,right,14,"[20, 19, 20, 16, 17, 16, 19, 15, 16, 14, 19, 17, 18, 17, 18, 17, 18, 17, 18]",19,shiftedgaze_R_14.png,f,1,3,results23,1,2026-04-20_09h59.32.952,mogelijke versie adaptive staircase builder,,2026.1.3,60.01439145,2026-04-20 09h59.33.698788 +0200
20.5,ecc10neg,right,39,0,39,f,1,1.8979272,None,0,2,2,2,39,0,39,0,2271.163444,,,,,,,,,,,,,,,2271.151687,2271.163444,2271.163444,2271.945556,2271.163444,2273.063045,f,1,1.8979272,None,left,13,"[20, 19, 20, 16, 17, 16, 19, 15, 16, 14, 19, 17, 18, 17, 18, 17, 18, 17, 18]",19,shiftedgaze_L_13.png,f,1,3,results23,1,2026-04-20_09h59.32.952,mogelijke versie adaptive staircase builder,,2026.1.3,60.01439145,2026-04-20 09h59.33.698788 +0200
20.5,ecc10neg,right,40,0,40,f,0,2.710803,None,0,2,2,2,40,0,40,0,2273.158555,,,,,,,,,,,,,,,2273.147878,2273.158555,2273.158555,2274.0789,2273.158555,2275.879519,f,0,2.710803,None,direct,12,"[20, 19, 20, 16, 17, 16, 19, 15, 16, 14, 19, 17, 18, 17, 18, 17, 18, 17, 18, 12]",20,shifteddirectgaze.png,f,0,3,results23,1,2026-04-20_09h59.32.952,mogelijke versie adaptive staircase builder,,2026.1.3,60.01439145,2026-04-20 09h59.33.698788 +0200
20.5,ecc10neg,right,41,0,41,f,1,3.7403107,None,0,2,2,2,41,0,41,0,2275.977087,,,,,,,,,,,,,,,2275.966622,2275.977087,2275.977087,2276.878967,2275.977087,2279.729365,f,1,3.7403107,None,left,13,"[20, 19, 20, 16, 17, 16, 19, 15, 16, 14, 19, 17, 18, 17, 18, 17, 18, 17, 18, 12, 13]",21,shiftedgaze_L_13.png,f,1,3,results23,1,2026-04-20_09h59.32.952,mogelijke versie adaptive staircase builder,,2026.1.3,60.01439145,2026-04-20 09h59.33.698788 +0200
20.5,ecc10neg,right,42,0,42,f,1,2.0807704,None,0,2,2,2,42,0,42,0,2279.964792,,,,,,,,,,,,,,,2279.954592,2279.964792,2279.964792,2280.728896,2279.964792,2282.06241,f,1,2.0807704,None,right,12,"[20, 19, 20, 16, 17, 16, 19, 15, 16, 14, 19, 17, 18, 17, 18, 17, 18, 17, 18, 12, 13]",21,shiftedgaze_R_12.png,f,1,3,results23,1,2026-04-20_09h59.32.952,mogelijke versie adaptive staircase builder,,2026.1.3,60.01439145,2026-04-20 09h59.33.698788 +0200
20.5,ecc10neg,right,43,0,43,f,1,1.8389969,None,0,2,2,2,43,0,43,0,2282.294652,,,,,,,,,,,,,,,2282.284183,2282.294652,2282.294652,2283.062322,2282.294652,2284.14592,f,1,1.8389969,None,right,11,"[20, 19, 20, 16, 17, 16, 19, 15, 16, 14, 19, 17, 18, 17, 18, 17, 18, 17, 18, 12, 13]",21,shiftedgaze_R_11.png,f,1,3,results23,1,2026-04-20_09h59.32.952,mogelijke versie adaptive staircase builder,,2026.1.3,60.01439145,2026-04-20 09h59.33.698788 +0200
20.5,ecc10neg,right,44,0,44,f,1,1.9618646,None,0,2,2,2,44,0,44,0,2284.347626,,,,,,,,,,,,,,,2284.336969,2284.347626,2284.347626,2285.145458,2284.347626,2286.312764,f,1,1.9618646,None,right,10,"[20, 19, 20, 16, 17, 16, 19, 15, 16, 14, 19, 17, 18, 17, 18, 17, 18, 17, 18, 12, 13]",21,shiftedgaze_R_10.png,f,1,3,results23,1,2026-04-20_09h59.32.952,mogelijke versie adaptive staircase builder,,2026.1.3,60.01439145,2026-04-20 09h59.33.698788 +0200
20.5,ecc10neg,right,45,0,45,f,0,3.4317822,None,0,2,2,2,45,0,45,0,2286.414036,,,,,,,,,,,,,,,2286.403337,2286.414036,2286.414036,2287.31244,2286.414036,2289.862436,f,0,3.4317822,None,direct,9,"[20, 19, 20, 16, 17, 16, 19, 15, 16, 14, 19, 17, 18, 17, 18, 17, 18, 17, 18, 12, 13, 9]",22,shifteddirectgaze.png,f,0,3,results23,1,2026-04-20_09h59.32.952,mogelijke versie adaptive staircase builder,,2026.1.3,60.01439145,2026-04-20 09h59.33.698788 +0200
20.5,ecc10neg,right,46,0,46,f,1,1.6928493,None,0,2,2,2,46,0,46,0,2289.960524,,,,,,,,,,,,,,,2289.949556,2289.960524,2289.960524,2290.862052,2289.960524,2291.662455,f,1,1.6928493,None,right,10,"[20, 19, 20, 16, 17, 16, 19, 15, 16, 14, 19, 17, 18, 17, 18, 17, 18, 17, 18, 12, 13, 9, 10]",23,shiftedgaze_R_10.png,f,1,3,results23,1,2026-04-20_09h59.32.952,mogelijke versie adaptive staircase builder,,2026.1.3,60.01439145,2026-04-20 09h59.33.698788 +0200
20.5,ecc10neg,right,47,0,47,f,0,1.9820977,None,0,2,2,2,47,0,47,0,2291.759337,,,,,,,,,,,,,,,2291.749297,2291.759337,2291.759337,2292.662243,2291.759337,2293.745598,f,0,1.9820977,None,direct,9,"[20, 19, 20, 16, 17, 16, 19, 15, 16, 14, 19, 17, 18, 17, 18, 17, 18, 17, 18, 12, 13, 9, 10, 9]",24,shifteddirectgaze.png,f,0,3,results23,1,2026-04-20_09h59.32.952,mogelijke versie adaptive staircase builder,,2026.1.3,60.01439145,2026-04-20 09h59.33.698788 +0200
20.5,ecc10neg,right,48,0,48,f,1,2.2983135,None,0,2,2,2,48,0,48,0,2293.843095,,,,,,,,,,,,,,,2293.830381,2293.843095,2293.843095,2294.745461,2293.843095,2296.145774,f,1,2.2983135,None,right,10,"[20, 19, 20, 16, 17, 16, 19, 15, 16, 14, 19, 17, 18, 17, 18, 17, 18, 17, 18, 12, 13, 9, 10, 9, 10]",25,shiftedgaze_R_10.png,f,1,3,results23,1,2026-04-20_09h59.32.952,mogelijke versie adaptive staircase builder,,2026.1.3,60.01439145,2026-04-20 09h59.33.698788 +0200
20.5,ecc10neg,right,49,0,49,f,1,1.8916151,None,0,2,2,2,49,0,49,0,2296.601741,,,,,,,,,,,,,,,2296.589598,2296.601741,2296.601741,2297.145288,2296.601741,2298.495683,f,1,1.8916151,None,right,9,"[20, 19, 20, 16, 17, 16, 19, 15, 16, 14, 19, 17, 18, 17, 18, 17, 18, 17, 18, 12, 13, 9, 10, 9, 10]",25,shiftedgaze_R_9.png,f,1,3,results23,1,2026-04-20_09h59.32.952,mogelijke versie adaptive staircase builder,,2026.1.3,60.01439145,2026-04-20 09h59.33.698788 +0200
20.5,ecc10neg,right,50,0,50,f,0,4.9158931,None,0,2,2,2,50,0,50,0,2298.593516,,,,,,,,,,,,,,,2298.583406,2298.593516,2298.593516,2299.495146,2298.593516,2303.512245,f,0,4.9158931,None,direct,8,"[20, 19, 20, 16, 17, 16, 19, 15, 16, 14, 19, 17, 18, 17, 18, 17, 18, 17, 18, 12, 13, 9, 10, 9, 10, 8]",26,shifteddirectgaze.png,f,0,3,results23,1,2026-04-20_09h59.32.952,mogelijke versie adaptive staircase builder,,2026.1.3,60.01439145,2026-04-20 09h59.33.698788 +0200
20.5,ecc10neg,right,51,0,51,f,1,2.5807645,None,0,2,2,2,51,0,51,0,2303.608615,,,,,,,,,,,,,,,2303.597361,2303.608615,2303.608615,2304.511998,2303.608615,2306.195844,f,1,2.5807645,None,right,9,"[20, 19, 20, 16, 17, 16, 19, 15, 16, 14, 19, 17, 18, 17, 18, 17, 18, 17, 18, 12, 13, 9, 10, 9, 10, 8, 9]",27,shiftedgaze_R_9.png,f,1,3,results23,1,2026-04-20_09h59.32.952,mogelijke versie adaptive staircase builder,,2026.1.3,60.01439145,2026-04-20 09h59.33.698788 +0200
20.5,ecc10neg,right,52,0,52,f,0,2.3626279,None,0,2,2,2,52,0,52,0,2306.290779,,,,,,,,,,,,,,,2306.280208,2306.290779,2306.290779,2307.195325,2306.290779,2308.662202,f,0,2.3626279,None,direct,8,"[20, 19, 20, 16, 17, 16, 19, 15, 16, 14, 19, 17, 18, 17, 18, 17, 18, 17, 18, 12, 13, 9, 10, 9, 10, 8, 9, 8]",28,shifteddirectgaze.png,f,0,3,results23,1,2026-04-20_09h59.32.952,mogelijke versie adaptive staircase builder,,2026.1.3,60.01439145,2026-04-20 09h59.33.698788 +0200
20.5,ecc10neg,right,53,0,53,f,1,1.3632364,None,0,2,2,2,53,0,53,0,2309.122137,,,,,,,,,,,,,,,2309.110681,2309.122137,2309.122137,2309.661757,2309.122137,2310.495396,f,1,1.3632364,None,left,9,"[20, 19, 20, 16, 17, 16, 19, 15, 16, 14, 19, 17, 18, 17, 18, 17, 18, 17, 18, 12, 13, 9, 10, 9, 10, 8, 9, 8, 9]",29,shiftedgaze_L_9.png,f,1,3,results23,1,2026-04-20_09h59.32.952,mogelijke versie adaptive staircase builder,,2026.1.3,60.01439145,2026-04-20 09h59.33.698788 +0200
20.5,ecc10neg,right,54,0,54,j,0,2.6817049,None,0,2,2,2,54,0,54,0,2310.707764,,,,,,,,,,,,,,,2310.696823,2310.707764,2310.707764,2311.494927,2310.707764,2313.39554,j,0,2.6817049,None,right,8,"[20, 19, 20, 16, 17, 16, 19, 15, 16, 14, 19, 17, 18, 17, 18, 17, 18, 17, 18, 12, 13, 9, 10, 9, 10, 8, 9, 8, 9, 8]",30,shiftedgaze_R_8.png,j,0,3,results23,1,2026-04-20_09h59.32.952,mogelijke versie adaptive staircase builder,,2026.1.3,60.01439145,2026-04-20 09h59.33.698788 +0200
20.5,ecc10neg,right,55,0,55,f,0,1.7140912,None,0,2,2,2,55,0,55,0,2313.491321,,,,,,,,,,,,,,,2313.481031,2313.491321,2313.491321,2314.394957,2313.491321,2315.212268,f,0,1.7140912,None,direct,9,"[20, 19, 20, 16, 17, 16, 19, 15, 16, 14, 19, 17, 18, 17, 18, 17, 18, 17, 18, 12, 13, 9, 10, 9, 10, 8, 9, 8, 9, 8]",30,shifteddirectgaze.png,f,0,3,results23,1,2026-04-20_09h59.32.952,mogelijke versie adaptive staircase builder,,2026.1.3,60.01439145,2026-04-20 09h59.33.698788 +0200
20.5,ecc10neg,right,56,0,56,f,0,2.6146449,None,0,2,2,2,56,0,56,0,2315.310735,,,,,,,,,,,,,,,2315.300271,2315.310735,2315.310735,2316.211661,2315.310735,2317.928788,f,0,2.6146449,None,direct,10,"[20, 19, 20, 16, 17, 16, 19, 15, 16, 14, 19, 17, 18, 17, 18, 17, 18, 17, 18, 12, 13, 9, 10, 9, 10, 8, 9, 8, 9, 8]",30,shifteddirectgaze.png,f,0,3,results23,1,2026-04-20_09h59.32.952,mogelijke versie adaptive staircase builder,,2026.1.3,60.01439145,2026-04-20 09h59.33.698788 +0200
20.5,ecc10neg,right,57,0,57,j,1,1.5829583,None,0,2,2,2,57,0,57,0,2318.038491,,,,,,,,,,,,,,,2318.027626,2318.038491,2318.038491,2318.928454,2318.038491,2319.628865,j,1,1.5829583,None,direct,11,"[20, 19, 20, 16, 17, 16, 19, 15, 16, 14, 19, 17, 18, 17, 18, 17, 18, 17, 18, 12, 13, 9, 10, 9, 10, 8, 9, 8, 9, 8, 11]",31,shifteddirectgaze.png,j,1,3,results23,1,2026-04-20_09h59.32.952,mogelijke versie adaptive staircase builder,,2026.1.3,60.01439145,2026-04-20 09h59.33.698788 +0200
20.5,ecc10neg,right,58,0,58,j,0,1.6008498,None,0,2,2,2,58,0,58,0,2319.852539,,,,,,,,,,,,,,,2319.841888,2319.852539,2319.852539,2320.628437,2319.852539,2321.462185,j,0,1.6008498,None,left,10,"[20, 19, 20, 16, 17, 16, 19, 15, 16, 14, 19, 17, 18, 17, 18, 17, 18, 17, 18, 12, 13, 9, 10, 9, 10, 8, 9, 8, 9, 8, 11, 10]",32,shiftedgaze_L_10.png,j,0,3,results23,1,2026-04-20_09h59.32.952,mogelijke versie adaptive staircase builder,,2026.1.3,60.01439145,2026-04-20 09h59.33.698788 +0200
20.5,ecc10neg,right,59,0,59,j,0,1.4167485,None,0,2,2,2,59,0,59,0,2321.572757,,,,,,,,,,,,,,,2321.561369,2321.572757,2321.572757,2322.461718,2321.572757,2322.995618,j,0,1.4167485,None,left,11,"[20, 19, 20, 16, 17, 16, 19, 15, 16, 14, 19, 17, 18, 17, 18, 17, 18, 17, 18, 12, 13, 9, 10, 9, 10, 8, 9, 8, 9, 8, 11, 10]",32,shiftedgaze_L_11.png,j,0,3,results23,1,2026-04-20_09h59.32.952,mogelijke versie adaptive staircase builder,,2026.1.3,60.01439145,2026-04-20 09h59.33.698788 +0200
20.5,ecc10neg,right,2,2,0,,,,,0,2,2,2,,,,,,,,,,,,,,,,,,,,,,,,,,,,,,,,,,,,,,results23,1,2026-04-20_09h59.32.952,mogelijke versie adaptive staircase builder,,2026.1.3,60.01439145,2026-04-20 09h59.33.698788 +0200
