xPos,stimulusSet,whichImage,thisN,thisTrialN,thisRepN,key_resp.keys,key_resp.corr,key_resp.rt,key_resp.duration,blocks.thisRepN,blocks.thisTrialN,blocks.thisN,blocks.thisIndex,trials.thisRepN,trials.thisTrialN,trials.thisN,trials.thisIndex,thisRow.t,notes,piloting,intro.started,introinstructions.started,intro_key.started,demo_image_left.started,demo_image_middle.started,demo_image_right.started,intro.stopped,intro_key.keys,intro_key.rt,intro_key.duration,block_start.started,block_start.stopped,trial.started,key_resp.started,middle_image.started,right_image.started,left_image.started,trial.stopped,trials.key_resp.keys,trials.key_resp.corr,trials.key_resp.rt,trials.key_resp.duration,direction,angle,reversal_intensities,number_reversals,stimulus,response,correct,blockNumber,participant,session,date,expName,expVersion,psychopyVersion,frameRate,expStart,
,,,,,,,,,,,,,,,,,,,,False,0.05117659999996249,0.06306680000125198,0.06306680000125198,0.06306680000125198,0.06306680000125198,0.06306680000125198,877.2792343000001,space,877.0434762000004,0.1600560000006226,,,,,,,,,,,,,,,,,,,,,results5,001,2026-04-13_12h26.24.146,mogelijke versie adaptive staircase builder,,2026.1.3,59.89361695719326,2026-04-13 12h26.24.479363 +0200,
4.5,ecc10pos,left,0,0,0,j,0,9.005118400000356,None,0,0,0,0,0,0,0,0,877.6454540000013,,,,,,,,,,,,,877.5209878000005,877.5210397999999,877.6348303000013,877.6454540000013,877.6454540000013,877.6454540000013,878.5289525000007,886.662707200001,j,0,9.005118400000356,None,left,20,[],0,shiftedgaze_L_20.png,j,0,1,results5,001,2026-04-13_12h26.24.146,mogelijke versie adaptive staircase builder,,2026.1.3,59.89361695719326,2026-04-13 12h26.24.479363 +0200,
4.5,ecc10pos,left,1,0,1,f,1,3.297449300000153,None,0,0,0,0,1,0,1,0,886.7611440000001,,,,,,,,,,,,,,,886.7505139000004,886.7611440000001,886.7611440000001,886.7611440000001,887.6623283000008,890.0624568000003,f,1,3.297449300000153,None,left,20,[20],1,shiftedgaze_L_20.png,f,1,1,results5,001,2026-04-13_12h26.24.146,mogelijke versie adaptive staircase builder,,2026.1.3,59.89361695719326,2026-04-13 12h26.24.479363 +0200,
4.5,ecc10pos,left,2,0,2,f,0,2.7093893000001117,None,0,0,0,0,2,0,2,0,890.1812250000003,,,,,,,,,,,,,,,890.1696373000013,890.1812250000003,890.1812250000003,890.1812250000003,891.0622271000011,892.8957025,f,0,2.7093893000001117,None,direct,19,"[20, 19]",2,shifteddirectgaze.png,f,0,1,results5,001,2026-04-13_12h26.24.146,mogelijke versie adaptive staircase builder,,2026.1.3,59.89361695719326,2026-04-13 12h26.24.479363 +0200,
4.5,ecc10pos,left,3,0,3,f,0,5.277117600000565,None,0,0,0,0,3,0,3,0,892.9894851999998,,,,,,,,,,,,,,,892.9787786000015,892.9894851999998,892.9894851999998,892.9894851999998,893.895387300001,898.2790898000003,f,0,5.277117600000565,None,direct,20,"[20, 19]",2,shifteddirectgaze.png,f,0,1,results5,001,2026-04-13_12h26.24.146,mogelijke versie adaptive staircase builder,,2026.1.3,59.89361695719326,2026-04-13 12h26.24.479363 +0200,
4.5,ecc10pos,left,4,0,4,j,0,4.46160620000046,None,0,0,0,0,4,0,4,0,898.3971004000014,,,,,,,,,,,,,,,898.3854826000006,898.3971004000014,898.3971004000014,898.3971004000014,899.2788446000013,902.8621250000015,j,0,4.46160620000046,None,left,20,"[20, 19]",2,shiftedgaze_L_20.png,j,0,1,results5,001,2026-04-13_12h26.24.146,mogelijke versie adaptive staircase builder,,2026.1.3,59.89361695719326,2026-04-13 12h26.24.479363 +0200,
4.5,ecc10pos,left,5,0,5,j,0,3.1049184999992576,None,0,0,0,0,5,0,5,0,902.961646400001,,,,,,,,,,,,,,,902.9504117000015,902.961646400001,902.961646400001,902.961646400001,903.8620154,906.0788346000008,j,0,3.1049184999992576,None,left,20,"[20, 19]",2,shiftedgaze_L_20.png,j,0,1,results5,001,2026-04-13_12h26.24.146,mogelijke versie adaptive staircase builder,,2026.1.3,59.89361695719326,2026-04-13 12h26.24.479363 +0200,
4.5,ecc10pos,left,6,0,6,j,0,3.7933241999999154,None,0,0,0,0,6,0,6,0,906.2012620000005,,,,,,,,,,,,,,,906.1896205000012,906.2012620000005,906.2012620000005,906.2012620000005,907.0785709000011,909.9954298000011,j,0,3.7933241999999154,None,right,20,"[20, 19]",2,shiftedgaze_R_20.png,j,0,1,results5,001,2026-04-13_12h26.24.146,mogelijke versie adaptive staircase builder,,2026.1.3,59.89361695719326,2026-04-13 12h26.24.479363 +0200,
4.5,ecc10pos,left,7,0,7,f,1,3.625373799999579,None,0,0,0,0,7,0,7,0,910.0892964000013,,,,,,,,,,,,,,,910.0774994000003,910.0892964000013,910.0892964000013,910.0892964000013,910.9952415000007,913.728861900001,f,1,3.625373799999579,None,right,20,"[20, 19, 20]",3,shiftedgaze_R_20.png,f,1,1,results5,001,2026-04-13_12h26.24.146,mogelijke versie adaptive staircase builder,,2026.1.3,59.89361695719326,2026-04-13 12h26.24.479363 +0200,
4.5,ecc10pos,left,8,0,8,f,0,2.8455288000004657,None,0,0,0,0,8,0,8,0,913.8210001000007,,,,,,,,,,,,,,,913.8109091000006,913.8210001000007,913.8210001000007,913.8210001000007,914.7285129000011,916.6786073000003,f,0,2.8455288000004657,None,direct,19,"[20, 19, 20, 19]",4,shifteddirectgaze.png,f,0,1,results5,001,2026-04-13_12h26.24.146,mogelijke versie adaptive staircase builder,,2026.1.3,59.89361695719326,2026-04-13 12h26.24.479363 +0200,
4.5,ecc10pos,left,9,0,9,j,0,3.4804108000007545,None,0,0,0,0,9,0,9,0,916.7711436000009,,,,,,,,,,,,,,,916.7603373000002,916.7711436000009,916.7711436000009,916.7711436000009,917.6785326999998,920.2620799000015,j,0,3.4804108000007545,None,right,20,"[20, 19, 20, 19]",4,shiftedgaze_R_20.png,j,0,1,results5,001,2026-04-13_12h26.24.146,mogelijke versie adaptive staircase builder,,2026.1.3,59.89361695719326,2026-04-13 12h26.24.479363 +0200,
4.5,ecc10pos,left,10,0,10,f,0,6.085396000000401,None,0,0,0,0,10,0,10,0,920.3571526000014,,,,,,,,,,,,,,,920.346481300001,920.3571526000014,920.3571526000014,920.3571526000014,921.2616049000007,926.4452219000013,f,0,6.085396000000401,None,direct,20,"[20, 19, 20, 19]",4,shifteddirectgaze.png,f,0,1,results5,001,2026-04-13_12h26.24.146,mogelijke versie adaptive staircase builder,,2026.1.3,59.89361695719326,2026-04-13 12h26.24.479363 +0200,
4.5,ecc10pos,left,11,0,11,j,0,2.342603200000667,None,0,0,0,0,11,0,11,0,926.5402449000012,,,,,,,,,,,,,,,926.5273836000015,926.5402449000012,926.5402449000012,926.5402449000012,927.4449576000006,928.8953437,j,0,2.342603200000667,None,right,20,"[20, 19, 20, 19]",4,shiftedgaze_R_20.png,j,0,1,results5,001,2026-04-13_12h26.24.146,mogelijke versie adaptive staircase builder,,2026.1.3,59.89361695719326,2026-04-13 12h26.24.479363 +0200,
4.5,ecc10pos,left,12,0,12,f,1,5.437380999999732,None,0,0,0,0,12,0,12,0,928.9891628000005,,,,,,,,,,,,,,,928.9780592000006,928.9891628000005,928.9891628000005,928.9891628000005,929.8948510999999,934.4286346999997,f,1,5.437380999999732,None,right,20,"[20, 19, 20, 19, 20]",5,shiftedgaze_R_20.png,f,1,1,results5,001,2026-04-13_12h26.24.146,mogelijke versie adaptive staircase builder,,2026.1.3,59.89361695719326,2026-04-13 12h26.24.479363 +0200,
4.5,ecc10pos,left,13,0,13,j,0,2.190501700000823,None,0,0,0,0,13,0,13,0,934.5560793000004,,,,,,,,,,,,,,,934.5449193000004,934.5560793000004,934.5560793000004,934.5560793000004,935.4283266000002,936.7618988000013,j,0,2.190501700000823,None,left,19,"[20, 19, 20, 19, 20, 19]",6,shiftedgaze_L_19.png,j,0,1,results5,001,2026-04-13_12h26.24.146,mogelijke versie adaptive staircase builder,,2026.1.3,59.89361695719326,2026-04-13 12h26.24.479363 +0200,
4.5,ecc10pos,left,14,0,14,j,0,2.7678114999998797,None,0,0,0,0,14,0,14,0,936.8747456000001,,,,,,,,,,,,,,,936.8632444000013,936.8747456000001,936.8747456000001,936.8747456000001,937.7614942,939.6452282999999,j,0,2.7678114999998797,None,right,20,"[20, 19, 20, 19, 20, 19]",6,shiftedgaze_R_20.png,j,0,1,results5,001,2026-04-13_12h26.24.146,mogelijke versie adaptive staircase builder,,2026.1.3,59.89361695719326,2026-04-13 12h26.24.479363 +0200,
4.5,ecc10pos,left,15,0,15,f,1,3.378353699999934,None,0,0,0,0,15,0,15,0,939.7601844000001,,,,,,,,,,,,,,,939.7486833000003,939.7601844000001,939.7601844000001,939.7601844000001,940.6449302000001,943.1451904000005,f,1,3.378353699999934,None,left,20,"[20, 19, 20, 19, 20, 19, 20]",7,shiftedgaze_L_20.png,f,1,1,results5,001,2026-04-13_12h26.24.146,mogelijke versie adaptive staircase builder,,2026.1.3,59.89361695719326,2026-04-13 12h26.24.479363 +0200,
4.5,ecc10pos,left,16,0,16,j,1,3.0720153999991453,None,0,0,0,0,16,0,16,0,943.2585125000005,,,,,,,,,,,,,,,943.2473919000004,943.2585125000005,943.2585125000005,943.2585125000005,944.1446092000006,946.3449402000006,j,1,3.0720153999991453,None,direct,19,"[20, 19, 20, 19, 20, 19, 20]",7,shifteddirectgaze.png,j,1,1,results5,001,2026-04-13_12h26.24.146,mogelijke versie adaptive staircase builder,,2026.1.3,59.89361695719326,2026-04-13 12h26.24.479363 +0200,
4.5,ecc10pos,left,17,0,17,f,1,3.9806482999993023,None,0,0,0,0,17,0,17,0,946.4698829000008,,,,,,,,,,,,,,,946.4583743000003,946.4698829000008,946.4698829000008,946.4698829000008,947.3446435000005,950.4614382,f,1,3.9806482999993023,None,left,18,"[20, 19, 20, 19, 20, 19, 20]",7,shiftedgaze_L_18.png,f,1,1,results5,001,2026-04-13_12h26.24.146,mogelijke versie adaptive staircase builder,,2026.1.3,59.89361695719326,2026-04-13 12h26.24.479363 +0200,
4.5,ecc10pos,left,18,0,18,j,0,5.405859099999361,None,0,0,0,0,18,0,18,0,950.5807272000002,,,,,,,,,,,,,,,950.5686580000001,950.5807272000002,950.5807272000002,950.5807272000002,951.4612838000012,955.9949575999999,j,0,5.405859099999361,None,right,17,"[20, 19, 20, 19, 20, 19, 20, 17]",8,shiftedgaze_R_17.png,j,0,1,results5,001,2026-04-13_12h26.24.146,mogelijke versie adaptive staircase builder,,2026.1.3,59.89361695719326,2026-04-13 12h26.24.479363 +0200,
4.5,ecc10pos,left,19,0,19,f,1,3.2117758999993384,None,0,0,0,0,19,0,19,0,956.0947100000012,,,,,,,,,,,,,,,956.0843365000001,956.0947100000012,956.0947100000012,956.0947100000012,956.9946544000013,959.3115413000014,f,1,3.2117758999993384,None,right,18,"[20, 19, 20, 19, 20, 19, 20, 17, 18]",9,shiftedgaze_R_18.png,f,1,1,results5,001,2026-04-13_12h26.24.146,mogelijke versie adaptive staircase builder,,2026.1.3,59.89361695719326,2026-04-13 12h26.24.479363 +0200,
4.5,ecc10pos,left,20,0,20,f,1,2.7668420000009064,None,0,0,0,0,20,0,20,0,959.4517422000008,,,,,,,,,,,,,,,959.4399580000008,959.4517422000008,959.4517422000008,959.4517422000008,960.3111512000014,962.2279993000011,f,1,2.7668420000009064,None,left,17,"[20, 19, 20, 19, 20, 19, 20, 17, 18]",9,shiftedgaze_L_17.png,f,1,1,results5,001,2026-04-13_12h26.24.146,mogelijke versie adaptive staircase builder,,2026.1.3,59.89361695719326,2026-04-13 12h26.24.479363 +0200,
4.5,ecc10pos,left,21,0,21,j,1,2.71983690000161,None,0,0,0,0,21,0,21,0,962.3388112000011,,,,,,,,,,,,,,,962.3271550000009,962.3388112000011,962.3388112000011,962.3388112000011,963.2278064000002,965.0614700000006,j,1,2.71983690000161,None,direct,16,"[20, 19, 20, 19, 20, 19, 20, 17, 18]",9,shifteddirectgaze.png,j,1,1,results5,001,2026-04-13_12h26.24.146,mogelijke versie adaptive staircase builder,,2026.1.3,59.89361695719326,2026-04-13 12h26.24.479363 +0200,
4.5,ecc10pos,left,22,0,22,j,0,2.063099900000452,None,0,0,0,0,22,0,22,0,965.1635146000008,,,,,,,,,,,,,,,965.1525878000011,965.1635146000008,965.1635146000008,965.1635146000008,966.0612431999998,967.2279963000001,j,0,2.063099900000452,None,right,15,"[20, 19, 20, 19, 20, 19, 20, 17, 18, 15]",10,shiftedgaze_R_15.png,j,0,1,results5,001,2026-04-13_12h26.24.146,mogelijke versie adaptive staircase builder,,2026.1.3,59.89361695719326,2026-04-13 12h26.24.479363 +0200,
4.5,ecc10pos,left,23,0,23,j,1,5.264481999998679,None,0,0,0,0,23,0,23,0,967.3221256000015,,,,,,,,,,,,,,,967.3109777999998,967.3221256000015,967.3221256000015,967.3221256000015,968.2278751000013,972.5946008999999,j,1,5.264481999998679,None,direct,16,"[20, 19, 20, 19, 20, 19, 20, 17, 18, 15, 16]",11,shifteddirectgaze.png,j,1,1,results5,001,2026-04-13_12h26.24.146,mogelijke versie adaptive staircase builder,,2026.1.3,59.89361695719326,2026-04-13 12h26.24.479363 +0200,
4.5,ecc10pos,left,24,0,24,f,0,2.0904614999999467,None,0,0,0,0,24,0,24,0,972.6881764999998,,,,,,,,,,,,,,,972.6771982999999,972.6881764999998,972.6881764999998,972.6881764999998,973.5943311999999,974.7946689,f,0,2.0904614999999467,None,direct,15,"[20, 19, 20, 19, 20, 19, 20, 17, 18, 15, 16, 15]",12,shifteddirectgaze.png,f,0,1,results5,001,2026-04-13_12h26.24.146,mogelijke versie adaptive staircase builder,,2026.1.3,59.89361695719326,2026-04-13 12h26.24.479363 +0200,
4.5,ecc10pos,left,25,0,25,f,1,3.3724591999998665,None,0,0,0,0,25,0,25,0,974.9181763000015,,,,,,,,,,,,,,,974.9059195000009,974.9181763000015,974.9181763000015,974.9181763000015,975.7944462000014,978.294537400001,f,1,3.3724591999998665,None,left,16,"[20, 19, 20, 19, 20, 19, 20, 17, 18, 15, 16, 15, 16]",13,shiftedgaze_L_16.png,f,1,1,results5,001,2026-04-13_12h26.24.146,mogelijke versie adaptive staircase builder,,2026.1.3,59.89361695719326,2026-04-13 12h26.24.479363 +0200,
4.5,ecc10pos,left,26,0,26,f,0,2.5896434000005684,None,0,0,0,0,26,0,26,0,978.4050736999998,,,,,,,,,,,,,,,978.3940159000012,978.4050736999998,978.4050736999998,978.4050736999998,979.2943888999998,981.0113043000001,f,0,2.5896434000005684,None,direct,15,"[20, 19, 20, 19, 20, 19, 20, 17, 18, 15, 16, 15, 16, 15]",14,shifteddirectgaze.png,f,0,1,results5,001,2026-04-13_12h26.24.146,mogelijke versie adaptive staircase builder,,2026.1.3,59.89361695719326,2026-04-13 12h26.24.479363 +0200,
4.5,ecc10pos,left,27,0,27,j,0,2.547133899999608,None,0,0,0,0,27,0,27,0,981.1115098000009,,,,,,,,,,,,,,,981.1009793000012,981.1115098000009,981.1115098000009,981.1115098000009,982.0110428000007,983.6614038000007,j,0,2.547133899999608,None,right,16,"[20, 19, 20, 19, 20, 19, 20, 17, 18, 15, 16, 15, 16, 15]",14,shiftedgaze_R_16.png,j,0,1,results5,001,2026-04-13_12h26.24.146,mogelijke versie adaptive staircase builder,,2026.1.3,59.89361695719326,2026-04-13 12h26.24.479363 +0200,
4.5,ecc10pos,left,28,0,28,f,0,2.246300400000109,None,0,0,0,0,28,0,28,0,983.7563291000006,,,,,,,,,,,,,,,983.7455828000002,983.7563291000006,983.7563291000006,983.7563291000006,984.6609036999998,986.0111906000002,f,0,2.246300400000109,None,direct,17,"[20, 19, 20, 19, 20, 19, 20, 17, 18, 15, 16, 15, 16, 15]",14,shifteddirectgaze.png,f,0,1,results5,001,2026-04-13_12h26.24.146,mogelijke versie adaptive staircase builder,,2026.1.3,59.89361695719326,2026-04-13 12h26.24.479363 +0200,
4.5,ecc10pos,left,29,0,29,f,1,2.455770399999892,None,0,0,0,0,29,0,29,0,986.1068253000012,,,,,,,,,,,,,,,986.0946828000015,986.1068253000012,986.1068253000012,986.1068253000012,987.0110455000013,988.5777955000012,f,1,2.455770399999892,None,right,18,"[20, 19, 20, 19, 20, 19, 20, 17, 18, 15, 16, 15, 16, 15, 18]",15,shiftedgaze_R_18.png,f,1,1,results5,001,2026-04-13_12h26.24.146,mogelijke versie adaptive staircase builder,,2026.1.3,59.89361695719326,2026-04-13 12h26.24.479363 +0200,
4.5,ecc10pos,left,30,0,30,j,1,3.873779999999897,None,0,0,0,0,30,0,30,0,988.6727335000014,,,,,,,,,,,,,,,988.6624454000012,988.6727335000014,988.6727335000014,988.6727335000014,989.5775920000015,992.5610391000009,j,1,3.873779999999897,None,direct,17,"[20, 19, 20, 19, 20, 19, 20, 17, 18, 15, 16, 15, 16, 15, 18]",15,shifteddirectgaze.png,j,1,1,results5,001,2026-04-13_12h26.24.146,mogelijke versie adaptive staircase builder,,2026.1.3,59.89361695719326,2026-04-13 12h26.24.479363 +0200,
4.5,ecc10pos,left,31,0,31,j,0,2.110101599999325,None,0,0,0,0,31,0,31,0,992.6764038000001,,,,,,,,,,,,,,,992.6649676000015,992.6764038000001,992.6764038000001,992.6764038000001,993.5608815000014,994.7944512000013,j,0,2.110101599999325,None,left,16,"[20, 19, 20, 19, 20, 19, 20, 17, 18, 15, 16, 15, 16, 15, 18, 16]",16,shiftedgaze_L_16.png,j,0,1,results5,001,2026-04-13_12h26.24.146,mogelijke versie adaptive staircase builder,,2026.1.3,59.89361695719326,2026-04-13 12h26.24.479363 +0200,
4.5,ecc10pos,left,32,0,32,j,0,3.361363199999687,None,0,0,0,0,32,0,32,0,994.9059327000014,,,,,,,,,,,,,,,994.8942525000002,994.9059327000014,994.9059327000014,994.9059327000014,995.7942116000013,998.2777154000014,j,0,3.361363199999687,None,right,17,"[20, 19, 20, 19, 20, 19, 20, 17, 18, 15, 16, 15, 16, 15, 18, 16]",16,shiftedgaze_R_17.png,j,0,1,results5,001,2026-04-13_12h26.24.146,mogelijke versie adaptive staircase builder,,2026.1.3,59.89361695719326,2026-04-13 12h26.24.479363 +0200,
4.5,ecc10pos,left,33,0,33,f,1,2.3907957000010356,None,0,0,0,0,33,0,33,0,998.3956875000003,,,,,,,,,,,,,,,998.3845199000007,998.3956875000003,998.3956875000003,998.3956875000003,999.2772502000007,1000.7943558000006,f,1,2.3907957000010356,None,left,18,"[20, 19, 20, 19, 20, 19, 20, 17, 18, 15, 16, 15, 16, 15, 18, 16, 18]",17,shiftedgaze_L_18.png,f,1,1,results5,001,2026-04-13_12h26.24.146,mogelijke versie adaptive staircase builder,,2026.1.3,59.89361695719326,2026-04-13 12h26.24.479363 +0200,
4.5,ecc10pos,left,34,0,34,j,1,6.071382899999662,None,0,0,0,0,34,0,34,0,1000.9071190000013,,,,,,,,,,,,,,,1000.8951605000002,1000.9071190000013,1000.9071190000013,1000.9071190000013,1001.7941048000012,1006.9941274000012,j,1,6.071382899999662,None,direct,17,"[20, 19, 20, 19, 20, 19, 20, 17, 18, 15, 16, 15, 16, 15, 18, 16, 18]",17,shifteddirectgaze.png,j,1,1,results5,001,2026-04-13_12h26.24.146,mogelijke versie adaptive staircase builder,,2026.1.3,59.89361695719326,2026-04-13 12h26.24.479363 +0200,
4.5,ecc10pos,left,35,0,35,f,1,5.354481899999882,None,0,0,0,0,35,0,35,0,1007.0880456000014,,,,,,,,,,,,,,,1007.077214500001,1007.0880456000014,1007.0880456000014,1007.0880456000014,1007.9939052000009,1012.4441822999997,f,1,5.354481899999882,None,right,16,"[20, 19, 20, 19, 20, 19, 20, 17, 18, 15, 16, 15, 16, 15, 18, 16, 18]",17,shiftedgaze_R_16.png,f,1,1,results5,001,2026-04-13_12h26.24.146,mogelijke versie adaptive staircase builder,,2026.1.3,59.89361695719326,2026-04-13 12h26.24.479363 +0200,
4.5,ecc10pos,left,36,0,36,j,1,4.031623099999706,None,0,0,0,0,36,0,36,0,1012.5389813000002,,,,,,,,,,,,,,,1012.5277428000009,1012.5389813000002,1012.5389813000002,1012.5389813000002,1013.4437495000002,1016.5772985000003,j,1,4.031623099999706,None,direct,15,"[20, 19, 20, 19, 20, 19, 20, 17, 18, 15, 16, 15, 16, 15, 18, 16, 18]",17,shifteddirectgaze.png,j,1,1,results5,001,2026-04-13_12h26.24.146,mogelijke versie adaptive staircase builder,,2026.1.3,59.89361695719326,2026-04-13 12h26.24.479363 +0200,
4.5,ecc10pos,left,37,0,37,f,0,4.579148400000122,None,0,0,0,0,37,0,37,0,1016.6713599000013,,,,,,,,,,,,,,,1016.6606663000002,1016.6713599000013,1016.6713599000013,1016.6713599000013,1017.5772527999998,1021.2607069000005,f,0,4.579148400000122,None,direct,14,"[20, 19, 20, 19, 20, 19, 20, 17, 18, 15, 16, 15, 16, 15, 18, 16, 18, 14]",18,shifteddirectgaze.png,f,0,1,results5,001,2026-04-13_12h26.24.146,mogelijke versie adaptive staircase builder,,2026.1.3,59.89361695719326,2026-04-13 12h26.24.479363 +0200,
4.5,ecc10pos,left,38,0,38,f,1,2.480623800000103,None,0,0,0,0,38,0,38,0,1021.3540198999999,,,,,,,,,,,,,,,1021.3427502000013,1021.3540198999999,1021.3540198999999,1021.3540198999999,1022.2603223000006,1023.8439353000012,f,1,2.480623800000103,None,right,15,"[20, 19, 20, 19, 20, 19, 20, 17, 18, 15, 16, 15, 16, 15, 18, 16, 18, 14, 15]",19,shiftedgaze_R_15.png,f,1,1,results5,001,2026-04-13_12h26.24.146,mogelijke versie adaptive staircase builder,,2026.1.3,59.89361695719326,2026-04-13 12h26.24.479363 +0200,
4.5,ecc10pos,left,39,0,39,j,0,3.495573300000615,None,0,0,0,0,39,0,39,0,1023.9468750000015,,,,,,,,,,,,,,,1023.9362787999999,1023.9468750000015,1023.9468750000015,1023.9468750000015,1024.8437857999998,1027.4440048000015,j,0,3.495573300000615,None,right,14,"[20, 19, 20, 19, 20, 19, 20, 17, 18, 15, 16, 15, 16, 15, 18, 16, 18, 14, 15, 14]",20,shiftedgaze_R_14.png,j,0,1,results5,001,2026-04-13_12h26.24.146,mogelijke versie adaptive staircase builder,,2026.1.3,59.89361695719326,2026-04-13 12h26.24.479363 +0200,
4.5,ecc10pos,left,40,0,40,j,1,4.897380799999155,None,0,0,0,0,40,0,40,0,1027.5371587000009,,,,,,,,,,,,,,,1027.5264535000006,1027.5371587000009,1027.5371587000009,1027.5371587000009,1028.4437357000006,1032.4437878000008,j,1,4.897380799999155,None,direct,15,"[20, 19, 20, 19, 20, 19, 20, 17, 18, 15, 16, 15, 16, 15, 18, 16, 18, 14, 15, 14, 15]",21,shifteddirectgaze.png,j,1,1,results5,001,2026-04-13_12h26.24.146,mogelijke versie adaptive staircase builder,,2026.1.3,59.89361695719326,2026-04-13 12h26.24.479363 +0200,
4.5,ecc10pos,left,41,0,41,f,0,6.50497870000072,None,0,0,0,0,41,0,41,0,1032.5377411000009,,,,,,,,,,,,,,,1032.5263152000007,1032.5377411000009,1032.5377411000009,1032.5377411000009,1033.4434895000013,1039.0439129000006,f,0,6.50497870000072,None,direct,14,"[20, 19, 20, 19, 20, 19, 20, 17, 18, 15, 16, 15, 16, 15, 18, 16, 18, 14, 15, 14, 15, 14]",22,shifteddirectgaze.png,f,0,1,results5,001,2026-04-13_12h26.24.146,mogelijke versie adaptive staircase builder,,2026.1.3,59.89361695719326,2026-04-13 12h26.24.479363 +0200,
4.5,ecc10pos,left,42,0,42,f,1,2.368084600000657,None,0,0,0,0,42,0,42,0,1039.1544203000012,,,,,,,,,,,,,,,1039.1445459000006,1039.1544203000012,1039.1544203000012,1039.1544203000012,1040.043563000001,1041.5269960000005,f,1,2.368084600000657,None,left,15,"[20, 19, 20, 19, 20, 19, 20, 17, 18, 15, 16, 15, 16, 15, 18, 16, 18, 14, 15, 14, 15, 14, 15]",23,shiftedgaze_L_15.png,f,1,1,results5,001,2026-04-13_12h26.24.146,mogelijke versie adaptive staircase builder,,2026.1.3,59.89361695719326,2026-04-13 12h26.24.479363 +0200,
4.5,ecc10pos,left,43,0,43,f,1,2.319473100000323,None,0,0,0,0,43,0,43,0,1041.6270471000007,,,,,,,,,,,,,,,1041.6171114000008,1041.6270471000007,1041.6270471000007,1041.6270471000007,1042.526871,1043.9605213000013,f,1,2.319473100000323,None,right,14,"[20, 19, 20, 19, 20, 19, 20, 17, 18, 15, 16, 15, 16, 15, 18, 16, 18, 14, 15, 14, 15, 14, 15]",23,shiftedgaze_R_14.png,f,1,1,results5,001,2026-04-13_12h26.24.146,mogelijke versie adaptive staircase builder,,2026.1.3,59.89361695719326,2026-04-13 12h26.24.479363 +0200,
4.5,ecc10pos,left,44,0,44,j,1,5.062162899999748,None,0,0,0,0,44,0,44,0,1044.0524163999999,,,,,,,,,,,,,,,1044.0420619000015,1044.0524163999999,1044.0524163999999,1044.0524163999999,1044.960107500001,1049.1269098000012,j,1,5.062162899999748,None,direct,13,"[20, 19, 20, 19, 20, 19, 20, 17, 18, 15, 16, 15, 16, 15, 18, 16, 18, 14, 15, 14, 15, 14, 15]",23,shifteddirectgaze.png,j,1,1,results5,001,2026-04-13_12h26.24.146,mogelijke versie adaptive staircase builder,,2026.1.3,59.89361695719326,2026-04-13 12h26.24.479363 +0200,
4.5,ecc10pos,left,45,0,45,f,1,5.304711799999495,None,0,0,0,0,45,0,45,0,1049.2260998000002,,,,,,,,,,,,,,,1049.2152643000009,1049.2260998000002,1049.2260998000002,1049.2260998000002,1050.1266603000004,1054.5435469000004,f,1,5.304711799999495,None,right,12,"[20, 19, 20, 19, 20, 19, 20, 17, 18, 15, 16, 15, 16, 15, 18, 16, 18, 14, 15, 14, 15, 14, 15]",23,shiftedgaze_R_12.png,f,1,1,results5,001,2026-04-13_12h26.24.146,mogelijke versie adaptive staircase builder,,2026.1.3,59.89361695719326,2026-04-13 12h26.24.479363 +0200,
4.5,ecc10pos,left,46,0,46,f,0,2.6047400000006746,None,0,0,0,0,46,0,46,0,1054.6457238000003,,,,,,,,,,,,,,,1054.6349748000011,1054.6457238000003,1054.6457238000003,1054.6457238000003,1055.543214700001,1057.2600155,f,0,2.6047400000006746,None,direct,11,"[20, 19, 20, 19, 20, 19, 20, 17, 18, 15, 16, 15, 16, 15, 18, 16, 18, 14, 15, 14, 15, 14, 15, 11]",24,shifteddirectgaze.png,f,0,1,results5,001,2026-04-13_12h26.24.146,mogelijke versie adaptive staircase builder,,2026.1.3,59.89361695719326,2026-04-13 12h26.24.479363 +0200,
4.5,ecc10pos,left,47,0,47,f,1,2.786360000000059,None,0,0,0,0,47,0,47,0,1057.360197,,,,,,,,,,,,,,,1057.3500688000004,1057.360197,1057.360197,1057.360197,1058.2598600000001,1060.1600577000008,f,1,2.786360000000059,None,left,12,"[20, 19, 20, 19, 20, 19, 20, 17, 18, 15, 16, 15, 16, 15, 18, 16, 18, 14, 15, 14, 15, 14, 15, 11, 12]",25,shiftedgaze_L_12.png,f,1,1,results5,001,2026-04-13_12h26.24.146,mogelijke versie adaptive staircase builder,,2026.1.3,59.89361695719326,2026-04-13 12h26.24.479363 +0200,
4.5,ecc10pos,left,48,0,48,f,1,3.1581045999992057,None,0,0,0,0,48,0,48,0,1060.2764101000012,,,,,,,,,,,,,,,1060.2662419000008,1060.2764101000012,1060.2764101000012,1060.2764101000012,1061.1598718000005,1063.4436205000002,f,1,3.1581045999992057,None,left,11,"[20, 19, 20, 19, 20, 19, 20, 17, 18, 15, 16, 15, 16, 15, 18, 16, 18, 14, 15, 14, 15, 14, 15, 11, 12]",25,shiftedgaze_L_11.png,f,1,1,results5,001,2026-04-13_12h26.24.146,mogelijke versie adaptive staircase builder,,2026.1.3,59.89361695719326,2026-04-13 12h26.24.479363 +0200,
4.5,ecc10pos,left,49,0,49,j,0,3.49616369999967,None,0,0,0,0,49,0,49,0,1063.5624712999997,,,,,,,,,,,,,,,1063.5523881000008,1063.5624712999997,1063.5624712999997,1063.5624712999997,1064.4432751000004,1067.0601987999999,j,0,3.49616369999967,None,right,10,"[20, 19, 20, 19, 20, 19, 20, 17, 18, 15, 16, 15, 16, 15, 18, 16, 18, 14, 15, 14, 15, 14, 15, 11, 12, 10]",26,shiftedgaze_R_10.png,j,0,1,results5,001,2026-04-13_12h26.24.146,mogelijke versie adaptive staircase builder,,2026.1.3,59.89361695719326,2026-04-13 12h26.24.479363 +0200,
4.5,ecc10pos,left,50,0,50,j,0,5.427074100000027,None,0,0,0,0,50,0,50,0,1067.1595209000006,,,,,,,,,,,,,,,1067.1486980000009,1067.1595209000006,1067.1595209000006,1067.1595209000006,1068.0599693000004,1072.5931520000013,j,0,5.427074100000027,None,right,11,"[20, 19, 20, 19, 20, 19, 20, 17, 18, 15, 16, 15, 16, 15, 18, 16, 18, 14, 15, 14, 15, 14, 15, 11, 12, 10]",26,shiftedgaze_R_11.png,j,0,1,results5,001,2026-04-13_12h26.24.146,mogelijke versie adaptive staircase builder,,2026.1.3,59.89361695719326,2026-04-13 12h26.24.479363 +0200,
4.5,ecc10pos,left,51,0,51,f,1,3.244824499999595,None,0,0,0,0,51,0,51,0,1072.685593100001,,,,,,,,,,,,,,,1072.6750592000008,1072.685593100001,1072.685593100001,1072.685593100001,1073.592936000001,1075.943319,f,1,3.244824499999595,None,right,12,"[20, 19, 20, 19, 20, 19, 20, 17, 18, 15, 16, 15, 16, 15, 18, 16, 18, 14, 15, 14, 15, 14, 15, 11, 12, 10, 12]",27,shiftedgaze_R_12.png,f,1,1,results5,001,2026-04-13_12h26.24.146,mogelijke versie adaptive staircase builder,,2026.1.3,59.89361695719326,2026-04-13 12h26.24.479363 +0200,
4.5,ecc10pos,left,52,0,52,f,0,4.853292800000418,None,0,0,0,0,52,0,52,0,1076.0373088000015,,,,,,,,,,,,,,,1076.0266069000008,1076.0373088000015,1076.0373088000015,1076.0373088000015,1076.943207100001,1080.893205800001,f,0,4.853292800000418,None,direct,11,"[20, 19, 20, 19, 20, 19, 20, 17, 18, 15, 16, 15, 16, 15, 18, 16, 18, 14, 15, 14, 15, 14, 15, 11, 12, 10, 12, 11]",28,shifteddirectgaze.png,f,0,1,results5,001,2026-04-13_12h26.24.146,mogelijke versie adaptive staircase builder,,2026.1.3,59.89361695719326,2026-04-13 12h26.24.479363 +0200,
4.5,ecc10pos,left,53,0,53,f,1,3.844323900000745,None,0,0,0,0,53,0,53,0,1080.9902403000015,,,,,,,,,,,,,,,1080.9787283000005,1080.9902403000015,1080.9902403000015,1080.9902403000015,1081.8929915000008,1084.8430722000012,f,1,3.844323900000745,None,left,12,"[20, 19, 20, 19, 20, 19, 20, 17, 18, 15, 16, 15, 16, 15, 18, 16, 18, 14, 15, 14, 15, 14, 15, 11, 12, 10, 12, 11, 12]",29,shiftedgaze_L_12.png,f,1,1,results5,001,2026-04-13_12h26.24.146,mogelijke versie adaptive staircase builder,,2026.1.3,59.89361695719326,2026-04-13 12h26.24.479363 +0200,
4.5,ecc10pos,left,54,0,54,f,1,2.385347699999329,None,0,0,0,0,54,0,54,0,1084.9532756000008,,,,,,,,,,,,,,,1084.9427111000005,1084.9532756000008,1084.9532756000008,1084.9532756000008,1085.8428797000015,1087.3431076000015,f,1,2.385347699999329,None,left,11,"[20, 19, 20, 19, 20, 19, 20, 17, 18, 15, 16, 15, 16, 15, 18, 16, 18, 14, 15, 14, 15, 14, 15, 11, 12, 10, 12, 11, 12]",29,shiftedgaze_L_11.png,f,1,1,results5,001,2026-04-13_12h26.24.146,mogelijke versie adaptive staircase builder,,2026.1.3,59.89361695719326,2026-04-13 12h26.24.479363 +0200,
4.5,ecc10pos,left,55,0,55,j,1,2.2665346000012505,None,0,0,0,0,55,0,55,0,1087.4481174000011,,,,,,,,,,,,,,,1087.437889500001,1087.4481174000011,1087.4481174000011,1087.4481174000011,1088.3428902000014,1089.726252800001,j,1,2.2665346000012505,None,direct,10,"[20, 19, 20, 19, 20, 19, 20, 17, 18, 15, 16, 15, 16, 15, 18, 16, 18, 14, 15, 14, 15, 14, 15, 11, 12, 10, 12, 11, 12]",29,shifteddirectgaze.png,j,1,1,results5,001,2026-04-13_12h26.24.146,mogelijke versie adaptive staircase builder,,2026.1.3,59.89361695719326,2026-04-13 12h26.24.479363 +0200,
4.5,ecc10pos,left,56,0,56,j,0,4.256100900000092,None,0,0,0,0,56,0,56,0,1089.827534600001,,,,,,,,,,,,,,,1089.817146700001,1089.827534600001,1089.827534600001,1089.827534600001,1090.7261530000014,1094.0930344000008,j,0,4.256100900000092,None,right,9,"[20, 19, 20, 19, 20, 19, 20, 17, 18, 15, 16, 15, 16, 15, 18, 16, 18, 14, 15, 14, 15, 14, 15, 11, 12, 10, 12, 11, 12, 9]",30,shiftedgaze_R_9.png,j,0,1,results5,001,2026-04-13_12h26.24.146,mogelijke versie adaptive staircase builder,,2026.1.3,59.89361695719326,2026-04-13 12h26.24.479363 +0200,
4.5,ecc10pos,left,57,0,57,j,1,5.567961200000354,None,0,0,0,0,57,0,57,0,1094.1866414000015,,,,,,,,,,,,,,,1094.1750307000002,1094.1866414000015,1094.1866414000015,1094.1866414000015,1095.0927931000006,1099.7597400000013,j,1,5.567961200000354,None,direct,10,"[20, 19, 20, 19, 20, 19, 20, 17, 18, 15, 16, 15, 16, 15, 18, 16, 18, 14, 15, 14, 15, 14, 15, 11, 12, 10, 12, 11, 12, 9, 10]",31,shifteddirectgaze.png,j,1,1,results5,001,2026-04-13_12h26.24.146,mogelijke versie adaptive staircase builder,,2026.1.3,59.89361695719326,2026-04-13 12h26.24.479363 +0200,
4.5,ecc10pos,left,58,0,58,j,1,3.1246991000007256,None,0,0,0,0,58,0,58,0,1099.8538610000014,,,,,,,,,,,,,,,1099.8425341000002,1099.8538610000014,1099.8538610000014,1099.8538610000014,1100.7594273000013,1102.9929045000008,j,1,3.1246991000007256,None,direct,9,"[20, 19, 20, 19, 20, 19, 20, 17, 18, 15, 16, 15, 16, 15, 18, 16, 18, 14, 15, 14, 15, 14, 15, 11, 12, 10, 12, 11, 12, 9, 10]",31,shifteddirectgaze.png,j,1,1,results5,001,2026-04-13_12h26.24.146,mogelijke versie adaptive staircase builder,,2026.1.3,59.89361695719326,2026-04-13 12h26.24.479363 +0200,
4.5,ecc10pos,left,59,0,59,f,1,3.3486339999999473,None,0,0,0,0,59,0,59,0,1103.0940563000004,,,,,,,,,,,,,,,1103.0834770000001,1103.0940563000004,1103.0940563000004,1103.0940563000004,1103.9924788000008,1106.4429612000004,f,1,3.3486339999999473,None,left,8,"[20, 19, 20, 19, 20, 19, 20, 17, 18, 15, 16, 15, 16, 15, 18, 16, 18, 14, 15, 14, 15, 14, 15, 11, 12, 10, 12, 11, 12, 9, 10]",31,shiftedgaze_L_8.png,f,1,1,results5,001,2026-04-13_12h26.24.146,mogelijke versie adaptive staircase builder,,2026.1.3,59.89361695719326,2026-04-13 12h26.24.479363 +0200,
4.5,ecc10pos,left,0,0,0,,,,,0,0,0,0,,,,,,,,,,,,,,,,,,,,,,,,,,,,,,,,,,,,,,results5,001,2026-04-13_12h26.24.146,mogelijke versie adaptive staircase builder,,2026.1.3,59.89361695719326,2026-04-13 12h26.24.479363 +0200,
12.5,ecc0,mid,0,0,0,j,0,3.7178818000011233,None,0,1,1,1,0,0,0,0,1106.5487818000001,,,,,,,,,,,,,1106.4455706000008,1106.4456101000014,1106.5368385000002,1106.5487818000001,1107.4593126,1106.5487818000001,1106.5487818000001,1110.2760134,j,0,3.7178818000011233,None,right,20,[],0,gaze_R_20.png,j,0,2,results5,001,2026-04-13_12h26.24.146,mogelijke versie adaptive staircase builder,,2026.1.3,59.89361695719326,2026-04-13 12h26.24.479363 +0200,
12.5,ecc0,mid,1,0,1,j,0,2.2027660999992804,None,0,1,1,1,1,0,1,0,1110.367911700001,,,,,,,,,,,,,,,1110.3575443999998,1110.367911700001,1111.2757533000004,1110.367911700001,1110.367911700001,1112.5762087000003,j,0,2.2027660999992804,None,right,20,[],0,gaze_R_20.png,j,0,2,results5,001,2026-04-13_12h26.24.146,mogelijke versie adaptive staircase builder,,2026.1.3,59.89361695719326,2026-04-13 12h26.24.479363 +0200,
12.5,ecc0,mid,2,0,2,f,1,2.3087469000001875,None,0,1,1,1,2,0,2,0,1112.6698292,,,,,,,,,,,,,,,1112.6591310000003,1112.6698292,1113.5756547,1112.6698292,1112.6698292,1114.9926799000004,f,1,2.3087469000001875,None,right,20,[20],1,gaze_R_20.png,f,1,2,results5,001,2026-04-13_12h26.24.146,mogelijke versie adaptive staircase builder,,2026.1.3,59.89361695719326,2026-04-13 12h26.24.479363 +0200,
12.5,ecc0,mid,3,0,3,f,1,3.4751228999994055,None,0,1,1,1,3,0,3,0,1115.0954472000012,,,,,,,,,,,,,,,1115.0850336000003,1115.0954472000012,1115.9923550000003,1115.0954472000012,1115.0954472000012,1118.5760320000009,f,1,3.4751228999994055,None,left,19,[20],1,gaze_L_19.png,f,1,2,results5,001,2026-04-13_12h26.24.146,mogelijke versie adaptive staircase builder,,2026.1.3,59.89361695719326,2026-04-13 12h26.24.479363 +0200,
12.5,ecc0,mid,4,0,4,f,0,4.44493379999949,None,0,1,1,1,4,0,4,0,1118.6776082000015,,,,,,,,,,,,,,,1118.6668977999998,1118.6776082000015,1119.5758673,1118.6776082000015,1118.6776082000015,1123.1259209,f,0,4.44493379999949,None,direct,18,"[20, 18]",2,direct_gaze.png,f,0,2,results5,001,2026-04-13_12h26.24.146,mogelijke versie adaptive staircase builder,,2026.1.3,59.89361695719326,2026-04-13 12h26.24.479363 +0200,
12.5,ecc0,mid,5,0,5,f,0,2.127620499999466,None,0,1,1,1,5,0,5,0,1123.2188563,,,,,,,,,,,,,,,1123.2075311000008,1123.2188563,1124.1256271000002,1123.2188563,1123.2188563,1125.3592401000005,f,0,2.127620499999466,None,direct,19,"[20, 18]",2,direct_gaze.png,f,0,2,results5,001,2026-04-13_12h26.24.146,mogelijke versie adaptive staircase builder,,2026.1.3,59.89361695719326,2026-04-13 12h26.24.479363 +0200,
12.5,ecc0,mid,6,0,6,j,0,5.300909100000354,None,0,1,1,1,6,0,6,0,1125.4536344000007,,,,,,,,,,,,,,,1125.4435720000001,1125.4536344000007,1126.3589882000015,1125.4536344000007,1125.4536344000007,1130.7591154000002,j,0,5.300909100000354,None,right,20,"[20, 18]",2,gaze_R_20.png,j,0,2,results5,001,2026-04-13_12h26.24.146,mogelijke versie adaptive staircase builder,,2026.1.3,59.89361695719326,2026-04-13 12h26.24.479363 +0200,
12.5,ecc0,mid,7,0,7,j,0,2.3003896999998688,None,0,1,1,1,7,0,7,0,1130.8541083,,,,,,,,,,,,,,,1130.8430325999998,1130.8541083,1131.7588827,1130.8541083,1130.8541083,1133.1591319,j,0,2.3003896999998688,None,right,20,"[20, 18]",2,gaze_R_20.png,j,0,2,results5,001,2026-04-13_12h26.24.146,mogelijke versie adaptive staircase builder,,2026.1.3,59.89361695719326,2026-04-13 12h26.24.479363 +0200,
12.5,ecc0,mid,8,0,8,f,0,3.83490090000123,None,0,1,1,1,8,0,8,0,1133.2555971000002,,,,,,,,,,,,,,,1133.2440744000014,1133.2555971000002,1134.1588252000001,1133.2555971000002,1133.2555971000002,1137.0922818,f,0,3.83490090000123,None,direct,20,"[20, 18]",2,direct_gaze.png,f,0,2,results5,001,2026-04-13_12h26.24.146,mogelijke versie adaptive staircase builder,,2026.1.3,59.89361695719326,2026-04-13 12h26.24.479363 +0200,
12.5,ecc0,mid,9,0,9,f,1,4.2809526000000915,None,0,1,1,1,9,0,9,0,1137.1857507000004,,,,,,,,,,,,,,,1137.175358800001,1137.1857507000004,1138.0923339,1137.1857507000004,1137.1857507000004,1141.4755805000004,f,1,4.2809526000000915,None,right,20,"[20, 18, 20]",3,gaze_R_20.png,f,1,2,results5,001,2026-04-13_12h26.24.146,mogelijke versie adaptive staircase builder,,2026.1.3,59.89361695719326,2026-04-13 12h26.24.479363 +0200,
12.5,ecc0,mid,10,0,10,j,1,3.752295599999343,None,0,1,1,1,10,0,10,0,1141.5702032000008,,,,,,,,,,,,,,,1141.5590817000011,1141.5702032000008,1142.4753602,1141.5702032000008,1141.5702032000008,1145.325627600001,j,1,3.752295599999343,None,direct,19,"[20, 18, 20]",3,direct_gaze.png,j,1,2,results5,001,2026-04-13_12h26.24.146,mogelijke versie adaptive staircase builder,,2026.1.3,59.89361695719326,2026-04-13 12h26.24.479363 +0200,
12.5,ecc0,mid,11,0,11,j,0,3.8098711999991792,None,0,1,1,1,11,0,11,0,1145.432636900001,,,,,,,,,,,,,,,1145.4221275,1145.432636900001,1146.3254597000014,1145.432636900001,1145.432636900001,1149.2587070000009,j,0,3.8098711999991792,None,left,18,"[20, 18, 20, 18]",4,gaze_L_18.png,j,0,2,results5,001,2026-04-13_12h26.24.146,mogelijke versie adaptive staircase builder,,2026.1.3,59.89361695719326,2026-04-13 12h26.24.479363 +0200,
12.5,ecc0,mid,12,0,12,j,0,2.112855400000626,None,0,1,1,1,12,0,12,0,1149.3539888000014,,,,,,,,,,,,,,,1149.3436520000014,1149.3539888000014,1150.2584991000003,1149.3539888000014,1149.3539888000014,1151.475959700001,j,0,2.112855400000626,None,left,19,"[20, 18, 20, 18]",4,gaze_L_19.png,j,0,2,results5,001,2026-04-13_12h26.24.146,mogelijke versie adaptive staircase builder,,2026.1.3,59.89361695719326,2026-04-13 12h26.24.479363 +0200,
12.5,ecc0,mid,13,0,13,j,1,3.6955230999992636,None,0,1,1,1,13,0,13,0,1151.5712417000013,,,,,,,,,,,,,,,1151.5603768,1151.5712417000013,1152.4751173000004,1151.5712417000013,1151.5712417000013,1155.275447600001,j,1,3.6955230999992636,None,direct,20,"[20, 18, 20, 18, 20]",5,direct_gaze.png,j,1,2,results5,001,2026-04-13_12h26.24.146,mogelijke versie adaptive staircase builder,,2026.1.3,59.89361695719326,2026-04-13 12h26.24.479363 +0200,
12.5,ecc0,mid,14,0,14,f,1,3.6697807000000466,None,0,1,1,1,14,0,14,0,1155.372737400001,,,,,,,,,,,,,,,1155.3623005000009,1155.372737400001,1156.2750635000011,1155.372737400001,1155.372737400001,1159.0587450000003,f,1,3.6697807000000466,None,left,19,"[20, 18, 20, 18, 20]",5,gaze_L_19.png,f,1,2,results5,001,2026-04-13_12h26.24.146,mogelijke versie adaptive staircase builder,,2026.1.3,59.89361695719326,2026-04-13 12h26.24.479363 +0200,
12.5,ecc0,mid,15,0,15,j,1,2.071029400000043,None,0,1,1,1,15,0,15,0,1159.1555106000014,,,,,,,,,,,,,,,1159.144747800001,1159.1555106000014,1160.0583887000012,1159.1555106000014,1159.1555106000014,1161.2422465,j,1,2.071029400000043,None,direct,18,"[20, 18, 20, 18, 20]",5,direct_gaze.png,j,1,2,results5,001,2026-04-13_12h26.24.146,mogelijke versie adaptive staircase builder,,2026.1.3,59.89361695719326,2026-04-13 12h26.24.479363 +0200,
12.5,ecc0,mid,16,0,16,j,0,3.568321900000228,None,0,1,1,1,16,0,16,0,1161.3483526,,,,,,,,,,,,,,,1161.3367849000006,1161.3483526,1162.2418161000005,1161.3483526,1161.3483526,1164.9254321000008,j,0,3.568321900000228,None,right,17,"[20, 18, 20, 18, 20, 17]",6,gaze_R_17.png,j,0,2,results5,001,2026-04-13_12h26.24.146,mogelijke versie adaptive staircase builder,,2026.1.3,59.89361695719326,2026-04-13 12h26.24.479363 +0200,
12.5,ecc0,mid,17,0,17,j,1,6.233903899999859,None,0,1,1,1,17,0,17,0,1165.016529800001,,,,,,,,,,,,,,,1165.0065744000003,1165.016529800001,1165.925029600001,1165.016529800001,1165.016529800001,1171.2584779999997,j,1,6.233903899999859,None,direct,18,"[20, 18, 20, 18, 20, 17, 18]",7,direct_gaze.png,j,1,2,results5,001,2026-04-13_12h26.24.146,mogelijke versie adaptive staircase builder,,2026.1.3,59.89361695719326,2026-04-13 12h26.24.479363 +0200,
12.5,ecc0,mid,18,0,18,f,0,4.489949799999522,None,0,1,1,1,18,0,18,0,1171.3525926000002,,,,,,,,,,,,,,,1171.3418349000003,1171.3525926000002,1172.258253,1171.3525926000002,1171.3525926000002,1175.8584003000014,f,0,4.489949799999522,None,direct,17,"[20, 18, 20, 18, 20, 17, 18, 17]",8,direct_gaze.png,f,0,2,results5,001,2026-04-13_12h26.24.146,mogelijke versie adaptive staircase builder,,2026.1.3,59.89361695719326,2026-04-13 12h26.24.479363 +0200,
12.5,ecc0,mid,19,0,19,f,0,1.8733984000009514,None,0,1,1,1,19,0,19,0,1175.9530134000015,,,,,,,,,,,,,,,1175.9426045,1175.9530134000015,1176.858128400001,1175.9530134000015,1175.9530134000015,1177.841811100001,f,0,1.8733984000009514,None,direct,18,"[20, 18, 20, 18, 20, 17, 18, 17]",8,direct_gaze.png,f,0,2,results5,001,2026-04-13_12h26.24.146,mogelijke versie adaptive staircase builder,,2026.1.3,59.89361695719326,2026-04-13 12h26.24.479363 +0200,
12.5,ecc0,mid,20,0,20,j,0,2.9469613999990543,None,0,1,1,1,20,0,20,0,1177.9364265000004,,,,,,,,,,,,,,,1177.9258461999998,1177.9364265000004,1178.8414798000013,1177.9364265000004,1177.9364265000004,1180.8918349000014,j,0,2.9469613999990543,None,left,19,"[20, 18, 20, 18, 20, 17, 18, 17]",8,gaze_L_19.png,j,0,2,results5,001,2026-04-13_12h26.24.146,mogelijke versie adaptive staircase builder,,2026.1.3,59.89361695719326,2026-04-13 12h26.24.479363 +0200,
12.5,ecc0,mid,21,0,21,j,0,2.136987700001555,None,0,1,1,1,21,0,21,0,1180.9855129000007,,,,,,,,,,,,,,,1180.9740868999997,1180.9855129000007,1181.8914616000002,1180.9855129000007,1180.9855129000007,1183.1252025000013,j,0,2.136987700001555,None,right,20,"[20, 18, 20, 18, 20, 17, 18, 17]",8,gaze_R_20.png,j,0,2,results5,001,2026-04-13_12h26.24.146,mogelijke versie adaptive staircase builder,,2026.1.3,59.89361695719326,2026-04-13 12h26.24.479363 +0200,
12.5,ecc0,mid,22,0,22,f,1,2.2004686999989644,None,0,1,1,1,22,0,22,0,1183.2260467000015,,,,,,,,,,,,,,,1183.215638900001,1183.2260467000015,1184.1248691,1183.2260467000015,1183.2260467000015,1185.441746300001,f,1,2.2004686999989644,None,left,20,"[20, 18, 20, 18, 20, 17, 18, 17, 20]",9,gaze_L_20.png,f,1,2,results5,001,2026-04-13_12h26.24.146,mogelijke versie adaptive staircase builder,,2026.1.3,59.89361695719326,2026-04-13 12h26.24.479363 +0200,
12.5,ecc0,mid,23,0,23,f,1,2.2149987000011606,None,0,1,1,1,23,0,23,0,1185.5395665000015,,,,,,,,,,,,,,,1185.5283849000007,1185.5395665000015,1186.4412745999998,1185.5395665000015,1185.5395665000015,1187.758249800001,f,1,2.2149987000011606,None,right,19,"[20, 18, 20, 18, 20, 17, 18, 17, 20]",9,gaze_R_19.png,f,1,2,results5,001,2026-04-13_12h26.24.146,mogelijke versie adaptive staircase builder,,2026.1.3,59.89361695719326,2026-04-13 12h26.24.479363 +0200,
12.5,ecc0,mid,24,0,24,j,0,3.1586809000000358,None,0,1,1,1,24,0,24,0,1187.851775000001,,,,,,,,,,,,,,,1187.8382951000003,1187.851775000001,1188.7581901000012,1187.851775000001,1187.851775000001,1191.0249201000006,j,0,3.1586809000000358,None,left,18,"[20, 18, 20, 18, 20, 17, 18, 17, 20, 18]",10,gaze_L_18.png,j,0,2,results5,001,2026-04-13_12h26.24.146,mogelijke versie adaptive staircase builder,,2026.1.3,59.89361695719326,2026-04-13 12h26.24.479363 +0200,
12.5,ecc0,mid,25,0,25,j,0,6.685003999999026,None,0,1,1,1,25,0,25,0,1191.117477400001,,,,,,,,,,,,,,,1191.1066135,1191.117477400001,1192.0245743000014,1191.117477400001,1191.117477400001,1197.8081393000011,j,0,6.685003999999026,None,right,19,"[20, 18, 20, 18, 20, 17, 18, 17, 20, 18]",10,gaze_R_19.png,j,0,2,results5,001,2026-04-13_12h26.24.146,mogelijke versie adaptive staircase builder,,2026.1.3,59.89361695719326,2026-04-13 12h26.24.479363 +0200,
12.5,ecc0,mid,26,0,26,f,1,2.0525994999989052,None,0,1,1,1,26,0,26,0,1197.901965500001,,,,,,,,,,,,,,,1197.8906462000014,1197.901965500001,1198.8080573000007,1197.901965500001,1197.901965500001,1199.9582246999998,f,1,2.0525994999989052,None,right,20,"[20, 18, 20, 18, 20, 17, 18, 17, 20, 18, 20]",11,gaze_R_20.png,f,1,2,results5,001,2026-04-13_12h26.24.146,mogelijke versie adaptive staircase builder,,2026.1.3,59.89361695719326,2026-04-13 12h26.24.479363 +0200,
12.5,ecc0,mid,27,0,27,f,0,3.6500691000001098,None,0,1,1,1,27,0,27,0,1200.0498024000008,,,,,,,,,,,,,,,1200.039096300001,1200.0498024000008,1200.9580606,1200.0498024000008,1200.0498024000008,1203.7082704000004,f,0,3.6500691000001098,None,direct,19,"[20, 18, 20, 18, 20, 17, 18, 17, 20, 18, 20, 19]",12,direct_gaze.png,f,0,2,results5,001,2026-04-13_12h26.24.146,mogelijke versie adaptive staircase builder,,2026.1.3,59.89361695719326,2026-04-13 12h26.24.479363 +0200,
12.5,ecc0,mid,28,0,28,j,1,3.959340900000825,None,0,1,1,1,28,0,28,0,1203.8032026,,,,,,,,,,,,,,,1203.7920771999998,1203.8032026,1204.7085758000012,1203.8032026,1203.8032026,1207.7747962000012,j,1,3.959340900000825,None,direct,20,"[20, 18, 20, 18, 20, 17, 18, 17, 20, 18, 20, 19, 20]",13,direct_gaze.png,j,1,2,results5,001,2026-04-13_12h26.24.146,mogelijke versie adaptive staircase builder,,2026.1.3,59.89361695719326,2026-04-13 12h26.24.479363 +0200,
12.5,ecc0,mid,29,0,29,f,0,7.512916800000312,None,0,1,1,1,29,0,29,0,1207.8655611000013,,,,,,,,,,,,,,,1207.8547350999997,1207.8655611000013,1208.7744140000013,1207.8655611000013,1207.8655611000013,1215.3912340000006,f,0,7.512916800000312,None,direct,19,"[20, 18, 20, 18, 20, 17, 18, 17, 20, 18, 20, 19, 20, 19]",14,direct_gaze.png,f,0,2,results5,001,2026-04-13_12h26.24.146,mogelijke versie adaptive staircase builder,,2026.1.3,59.89361695719326,2026-04-13 12h26.24.479363 +0200,
12.5,ecc0,mid,30,0,30,j,1,3.215665599998829,None,0,1,1,1,30,0,30,0,1215.4837599000002,,,,,,,,,,,,,,,1215.4732928000012,1215.4837599000002,1216.3911181000003,1215.4837599000002,1215.4837599000002,1218.7082050999998,j,1,3.215665599998829,None,direct,20,"[20, 18, 20, 18, 20, 17, 18, 17, 20, 18, 20, 19, 20, 19, 20]",15,direct_gaze.png,j,1,2,results5,001,2026-04-13_12h26.24.146,mogelijke versie adaptive staircase builder,,2026.1.3,59.89361695719326,2026-04-13 12h26.24.479363 +0200,
12.5,ecc0,mid,31,0,31,j,0,2.771710899998652,None,0,1,1,1,31,0,31,0,1218.7988623,,,,,,,,,,,,,,,1218.7883323000005,1218.7988623,1219.707804400001,1218.7988623,1218.7988623,1221.5748285000009,j,0,2.771710899998652,None,right,19,"[20, 18, 20, 18, 20, 17, 18, 17, 20, 18, 20, 19, 20, 19, 20, 19]",16,gaze_R_19.png,j,0,2,results5,001,2026-04-13_12h26.24.146,mogelijke versie adaptive staircase builder,,2026.1.3,59.89361695719326,2026-04-13 12h26.24.479363 +0200,
12.5,ecc0,mid,32,0,32,f,1,2.3178042999988975,None,0,1,1,1,32,0,32,0,1221.668675500001,,,,,,,,,,,,,,,1221.6575057999999,1221.668675500001,1222.5742293000003,1221.668675500001,1221.668675500001,1223.991265300001,f,1,2.3178042999988975,None,left,20,"[20, 18, 20, 18, 20, 17, 18, 17, 20, 18, 20, 19, 20, 19, 20, 19, 20]",17,gaze_L_20.png,f,1,2,results5,001,2026-04-13_12h26.24.146,mogelijke versie adaptive staircase builder,,2026.1.3,59.89361695719326,2026-04-13 12h26.24.479363 +0200,
12.5,ecc0,mid,33,0,33,j,0,3.897282500000074,None,0,1,1,1,33,0,33,0,1224.0811899,,,,,,,,,,,,,,,1224.0706570000002,1224.0811899,1224.9911221000002,1224.0811899,1224.0811899,1227.9911938000005,j,0,3.897282500000074,None,right,19,"[20, 18, 20, 18, 20, 17, 18, 17, 20, 18, 20, 19, 20, 19, 20, 19, 20, 19]",18,gaze_R_19.png,j,0,2,results5,001,2026-04-13_12h26.24.146,mogelijke versie adaptive staircase builder,,2026.1.3,59.89361695719326,2026-04-13 12h26.24.479363 +0200,
12.5,ecc0,mid,34,0,34,f,1,3.18560830000024,None,0,1,1,1,34,0,34,0,1228.0808290000004,,,,,,,,,,,,,,,1228.0696733000004,1228.0808290000004,1228.9908775000004,1228.0808290000004,1228.0808290000004,1231.2745591000003,f,1,3.18560830000024,None,right,20,"[20, 18, 20, 18, 20, 17, 18, 17, 20, 18, 20, 19, 20, 19, 20, 19, 20, 19, 20]",19,gaze_R_20.png,f,1,2,results5,001,2026-04-13_12h26.24.146,mogelijke versie adaptive staircase builder,,2026.1.3,59.89361695719326,2026-04-13 12h26.24.479363 +0200,
12.5,ecc0,mid,35,0,35,f,1,3.2901051999997435,None,0,1,1,1,35,0,35,0,1231.368460400001,,,,,,,,,,,,,,,1231.3567383000009,1231.368460400001,1232.2742717,1231.368460400001,1231.368460400001,1234.674708800001,f,1,3.2901051999997435,None,right,19,"[20, 18, 20, 18, 20, 17, 18, 17, 20, 18, 20, 19, 20, 19, 20, 19, 20, 19, 20]",19,gaze_R_19.png,f,1,2,results5,001,2026-04-13_12h26.24.146,mogelijke versie adaptive staircase builder,,2026.1.3,59.89361695719326,2026-04-13 12h26.24.479363 +0200,
12.5,ecc0,mid,36,0,36,f,1,2.4217853999998624,None,0,1,1,1,36,0,36,0,1234.7727372000008,,,,,,,,,,,,,,,1234.7623829000004,1234.7727372000008,1235.6740606000003,1234.7727372000008,1234.7727372000008,1237.2078429000012,f,1,2.4217853999998624,None,right,18,"[20, 18, 20, 18, 20, 17, 18, 17, 20, 18, 20, 19, 20, 19, 20, 19, 20, 19, 20]",19,gaze_R_18.png,f,1,2,results5,001,2026-04-13_12h26.24.146,mogelijke versie adaptive staircase builder,,2026.1.3,59.89361695719326,2026-04-13 12h26.24.479363 +0200,
12.5,ecc0,mid,37,0,37,f,1,6.799951599999986,None,0,1,1,1,37,0,37,0,1237.2992634000002,,,,,,,,,,,,,,,1237.2884072000015,1237.2992634000002,1238.2074000000011,1237.2992634000002,1237.2992634000002,1244.1077956000008,f,1,6.799951599999986,None,right,17,"[20, 18, 20, 18, 20, 17, 18, 17, 20, 18, 20, 19, 20, 19, 20, 19, 20, 19, 20]",19,gaze_R_17.png,f,1,2,results5,001,2026-04-13_12h26.24.146,mogelijke versie adaptive staircase builder,,2026.1.3,59.89361695719326,2026-04-13 12h26.24.479363 +0200,
12.5,ecc0,mid,38,0,38,j,0,3.020273799998904,None,0,1,1,1,38,0,38,0,1244.2062339000004,,,,,,,,,,,,,,,1244.1960755,1244.2062339000004,1245.1071962000005,1244.2062339000004,1244.2062339000004,1247.2412206000008,j,0,3.020273799998904,None,left,16,"[20, 18, 20, 18, 20, 17, 18, 17, 20, 18, 20, 19, 20, 19, 20, 19, 20, 19, 20, 16]",20,gaze_L_16.png,j,0,2,results5,001,2026-04-13_12h26.24.146,mogelijke versie adaptive staircase builder,,2026.1.3,59.89361695719326,2026-04-13 12h26.24.479363 +0200,
12.5,ecc0,mid,39,0,39,j,0,2.8226596000004065,None,0,1,1,1,39,0,39,0,1247.3397462000012,,,,,,,,,,,,,,,1247.3294864,1247.3397462000012,1248.2405306,1247.3397462000012,1247.3397462000012,1250.1746203000002,j,0,2.8226596000004065,None,left,17,"[20, 18, 20, 18, 20, 17, 18, 17, 20, 18, 20, 19, 20, 19, 20, 19, 20, 19, 20, 16]",20,gaze_L_17.png,j,0,2,results5,001,2026-04-13_12h26.24.146,mogelijke versie adaptive staircase builder,,2026.1.3,59.89361695719326,2026-04-13 12h26.24.479363 +0200,
12.5,ecc0,mid,40,0,40,f,1,4.864735999999539,None,0,1,1,1,40,0,40,0,1250.2666528000009,,,,,,,,,,,,,,,1250.2556313000005,1250.2666528000009,1251.174052100001,1250.2666528000009,1250.2666528000009,1255.1408969000004,f,1,4.864735999999539,None,left,18,"[20, 18, 20, 18, 20, 17, 18, 17, 20, 18, 20, 19, 20, 19, 20, 19, 20, 19, 20, 16, 18]",21,gaze_L_18.png,f,1,2,results5,001,2026-04-13_12h26.24.146,mogelijke versie adaptive staircase builder,,2026.1.3,59.89361695719326,2026-04-13 12h26.24.479363 +0200,
12.5,ecc0,mid,41,0,41,f,1,8.10115770000084,None,0,1,1,1,41,0,41,0,1255.2463733000004,,,,,,,,,,,,,,,1255.2356154000008,1255.2463733000004,1256.1404046000007,1255.2463733000004,1255.2463733000004,1263.3575495000005,f,1,8.10115770000084,None,right,17,"[20, 18, 20, 18, 20, 17, 18, 17, 20, 18, 20, 19, 20, 19, 20, 19, 20, 19, 20, 16, 18]",21,gaze_R_17.png,f,1,2,results5,001,2026-04-13_12h26.24.146,mogelijke versie adaptive staircase builder,,2026.1.3,59.89361695719326,2026-04-13 12h26.24.479363 +0200,
12.5,ecc0,mid,42,0,42,f,0,2.1610404000002745,None,0,1,1,1,42,0,42,0,1263.4493958000003,,,,,,,,,,,,,,,1263.4381028000007,1263.4493958000003,1264.3568665000003,1263.4493958000003,1263.4493958000003,1265.6243398000006,f,0,2.1610404000002745,None,direct,16,"[20, 18, 20, 18, 20, 17, 18, 17, 20, 18, 20, 19, 20, 19, 20, 19, 20, 19, 20, 16, 18, 16]",22,direct_gaze.png,f,0,2,results5,001,2026-04-13_12h26.24.146,mogelijke versie adaptive staircase builder,,2026.1.3,59.89361695719326,2026-04-13 12h26.24.479363 +0200,
12.5,ecc0,mid,43,0,43,f,1,1.8128777999991144,None,0,1,1,1,43,0,43,0,1265.7181943000014,,,,,,,,,,,,,,,1265.7065722000007,1265.7181943000014,1266.6236262000002,1265.7181943000014,1265.7181943000014,1267.5403176,f,1,1.8128777999991144,None,right,17,"[20, 18, 20, 18, 20, 17, 18, 17, 20, 18, 20, 19, 20, 19, 20, 19, 20, 19, 20, 16, 18, 16, 17]",23,gaze_R_17.png,f,1,2,results5,001,2026-04-13_12h26.24.146,mogelijke versie adaptive staircase builder,,2026.1.3,59.89361695719326,2026-04-13 12h26.24.479363 +0200,
12.5,ecc0,mid,44,0,44,j,1,4.378313100000014,None,0,1,1,1,44,0,44,0,1267.6320872000015,,,,,,,,,,,,,,,1267.6214885000009,1267.6320872000015,1268.5401882000006,1267.6320872000015,1267.6320872000015,1272.0238688000009,j,1,4.378313100000014,None,direct,16,"[20, 18, 20, 18, 20, 17, 18, 17, 20, 18, 20, 19, 20, 19, 20, 19, 20, 19, 20, 16, 18, 16, 17]",23,direct_gaze.png,j,1,2,results5,001,2026-04-13_12h26.24.146,mogelijke versie adaptive staircase builder,,2026.1.3,59.89361695719326,2026-04-13 12h26.24.479363 +0200,
12.5,ecc0,mid,45,0,45,j,1,2.40496869999879,None,0,1,1,1,45,0,45,0,1272.1177981,,,,,,,,,,,,,,,1272.1062507000006,1272.1177981,1273.0236411000005,1272.1177981,1272.1177981,1274.5241502000008,j,1,2.40496869999879,None,direct,15,"[20, 18, 20, 18, 20, 17, 18, 17, 20, 18, 20, 19, 20, 19, 20, 19, 20, 19, 20, 16, 18, 16, 17]",23,direct_gaze.png,j,1,2,results5,001,2026-04-13_12h26.24.146,mogelijke versie adaptive staircase builder,,2026.1.3,59.89361695719326,2026-04-13 12h26.24.479363 +0200,
12.5,ecc0,mid,46,0,46,j,0,5.06801059999998,None,0,1,1,1,46,0,46,0,1274.622521700001,,,,,,,,,,,,,,,1274.6120561000007,1274.622521700001,1275.5234759000014,1274.622521700001,1274.622521700001,1279.7072797,j,0,5.06801059999998,None,right,14,"[20, 18, 20, 18, 20, 17, 18, 17, 20, 18, 20, 19, 20, 19, 20, 19, 20, 19, 20, 16, 18, 16, 17, 14]",24,gaze_R_14.png,j,0,2,results5,001,2026-04-13_12h26.24.146,mogelijke versie adaptive staircase builder,,2026.1.3,59.89361695719326,2026-04-13 12h26.24.479363 +0200,
12.5,ecc0,mid,47,0,47,f,1,6.004294299998946,None,0,1,1,1,47,0,47,0,1279.8061309000004,,,,,,,,,,,,,,,1279.795413400001,1279.8061309000004,1280.7068588000002,1279.8061309000004,1279.8061309000004,1285.8240139999998,f,1,6.004294299998946,None,right,15,"[20, 18, 20, 18, 20, 17, 18, 17, 20, 18, 20, 19, 20, 19, 20, 19, 20, 19, 20, 16, 18, 16, 17, 14, 15]",25,gaze_R_15.png,f,1,2,results5,001,2026-04-13_12h26.24.146,mogelijke versie adaptive staircase builder,,2026.1.3,59.89361695719326,2026-04-13 12h26.24.479363 +0200,
12.5,ecc0,mid,48,0,48,f,0,3.535018599999603,None,0,1,1,1,48,0,48,0,1285.915387500001,,,,,,,,,,,,,,,1285.9041834,1285.915387500001,1286.8235107,1285.915387500001,1285.915387500001,1289.4572481000014,f,0,3.535018599999603,None,direct,14,"[20, 18, 20, 18, 20, 17, 18, 17, 20, 18, 20, 19, 20, 19, 20, 19, 20, 19, 20, 16, 18, 16, 17, 14, 15, 14]",26,direct_gaze.png,f,0,2,results5,001,2026-04-13_12h26.24.146,mogelijke versie adaptive staircase builder,,2026.1.3,59.89361695719326,2026-04-13 12h26.24.479363 +0200,
12.5,ecc0,mid,49,0,49,f,1,4.062362500000745,None,0,1,1,1,49,0,49,0,1289.556115700001,,,,,,,,,,,,,,,1289.5461711000007,1289.556115700001,1290.4566797000007,1289.556115700001,1289.556115700001,1293.6238998999997,f,1,4.062362500000745,None,left,15,"[20, 18, 20, 18, 20, 17, 18, 17, 20, 18, 20, 19, 20, 19, 20, 19, 20, 19, 20, 16, 18, 16, 17, 14, 15, 14, 15]",27,gaze_L_15.png,f,1,2,results5,001,2026-04-13_12h26.24.146,mogelijke versie adaptive staircase builder,,2026.1.3,59.89361695719326,2026-04-13 12h26.24.479363 +0200,
12.5,ecc0,mid,50,0,50,f,1,1.9358811000001879,None,0,1,1,1,50,0,50,0,1293.7225932000001,,,,,,,,,,,,,,,1293.7114492,1293.7225932000001,1294.6234037000013,1293.7225932000001,1293.7225932000001,1295.6738920000007,f,1,1.9358811000001879,None,left,14,"[20, 18, 20, 18, 20, 17, 18, 17, 20, 18, 20, 19, 20, 19, 20, 19, 20, 19, 20, 16, 18, 16, 17, 14, 15, 14, 15]",27,gaze_L_14.png,f,1,2,results5,001,2026-04-13_12h26.24.146,mogelijke versie adaptive staircase builder,,2026.1.3,59.89361695719326,2026-04-13 12h26.24.479363 +0200,
12.5,ecc0,mid,51,0,51,j,0,2.222524399998292,None,0,1,1,1,51,0,51,0,1295.7718915000005,,,,,,,,,,,,,,,1295.7611827,1295.7718915000005,1296.6730690000004,1295.7718915000005,1295.7718915000005,1298.0071309000014,j,0,2.222524399998292,None,right,13,"[20, 18, 20, 18, 20, 17, 18, 17, 20, 18, 20, 19, 20, 19, 20, 19, 20, 19, 20, 16, 18, 16, 17, 14, 15, 14, 15, 13]",28,gaze_R_13.png,j,0,2,results5,001,2026-04-13_12h26.24.146,mogelijke versie adaptive staircase builder,,2026.1.3,59.89361695719326,2026-04-13 12h26.24.479363 +0200,
12.5,ecc0,mid,52,0,52,j,1,2.7420342000004894,None,0,1,1,1,52,0,52,0,1298.1004278,,,,,,,,,,,,,,,1298.0894530000005,1298.1004278,1299.006476800001,1298.1004278,1298.1004278,1300.8569358000004,j,1,2.7420342000004894,None,direct,14,"[20, 18, 20, 18, 20, 17, 18, 17, 20, 18, 20, 19, 20, 19, 20, 19, 20, 19, 20, 16, 18, 16, 17, 14, 15, 14, 15, 13, 14]",29,direct_gaze.png,j,1,2,results5,001,2026-04-13_12h26.24.146,mogelijke versie adaptive staircase builder,,2026.1.3,59.89361695719326,2026-04-13 12h26.24.479363 +0200,
12.5,ecc0,mid,53,0,53,j,1,1.7966718999996374,None,0,1,1,1,53,0,53,0,1300.9504694000007,,,,,,,,,,,,,,,1300.9395784000008,1300.9504694000007,1301.8566242000015,1300.9504694000007,1300.9504694000007,1302.756887200001,j,1,1.7966718999996374,None,direct,13,"[20, 18, 20, 18, 20, 17, 18, 17, 20, 18, 20, 19, 20, 19, 20, 19, 20, 19, 20, 16, 18, 16, 17, 14, 15, 14, 15, 13, 14]",29,direct_gaze.png,j,1,2,results5,001,2026-04-13_12h26.24.146,mogelijke versie adaptive staircase builder,,2026.1.3,59.89361695719326,2026-04-13 12h26.24.479363 +0200,
12.5,ecc0,mid,54,0,54,f,1,1.9807252999999037,None,0,1,1,1,54,0,54,0,1302.8537591000004,,,,,,,,,,,,,,,1302.8433674000007,1302.8537591000004,1303.7563687000002,1302.8537591000004,1302.8537591000004,1304.8402592000002,f,1,1.9807252999999037,None,right,12,"[20, 18, 20, 18, 20, 17, 18, 17, 20, 18, 20, 19, 20, 19, 20, 19, 20, 19, 20, 16, 18, 16, 17, 14, 15, 14, 15, 13, 14]",29,gaze_R_12.png,f,1,2,results5,001,2026-04-13_12h26.24.146,mogelijke versie adaptive staircase builder,,2026.1.3,59.89361695719326,2026-04-13 12h26.24.479363 +0200,
12.5,ecc0,mid,55,0,55,f,1,2.1909593000000314,None,0,1,1,1,55,0,55,0,1304.9396288000007,,,,,,,,,,,,,,,1304.928936100001,1304.9396288000007,1305.8396704000006,1304.9396288000007,1304.9396288000007,1307.1400040000008,f,1,2.1909593000000314,None,left,11,"[20, 18, 20, 18, 20, 17, 18, 17, 20, 18, 20, 19, 20, 19, 20, 19, 20, 19, 20, 16, 18, 16, 17, 14, 15, 14, 15, 13, 14]",29,gaze_L_11.png,f,1,2,results5,001,2026-04-13_12h26.24.146,mogelijke versie adaptive staircase builder,,2026.1.3,59.89361695719326,2026-04-13 12h26.24.479363 +0200,
12.5,ecc0,mid,56,0,56,f,1,2.2912309000003006,None,0,1,1,1,56,0,56,0,1307.2391597000005,,,,,,,,,,,,,,,1307.2285185,1307.2391597000005,1308.1397966000004,1307.2391597000005,1307.2391597000005,1309.5405060000012,f,1,2.2912309000003006,None,right,10,"[20, 18, 20, 18, 20, 17, 18, 17, 20, 18, 20, 19, 20, 19, 20, 19, 20, 19, 20, 16, 18, 16, 17, 14, 15, 14, 15, 13, 14]",29,gaze_R_10.png,f,1,2,results5,001,2026-04-13_12h26.24.146,mogelijke versie adaptive staircase builder,,2026.1.3,59.89361695719326,2026-04-13 12h26.24.479363 +0200,
12.5,ecc0,mid,57,0,57,f,1,2.1806582999997772,None,0,1,1,1,57,0,57,0,1309.6378243,,,,,,,,,,,,,,,1309.6273945000012,1309.6378243,1310.5397028000007,1309.6378243,1309.6378243,1311.8232961000012,f,1,2.1806582999997772,None,left,9,"[20, 18, 20, 18, 20, 17, 18, 17, 20, 18, 20, 19, 20, 19, 20, 19, 20, 19, 20, 16, 18, 16, 17, 14, 15, 14, 15, 13, 14]",29,gaze_L_9.png,f,1,2,results5,001,2026-04-13_12h26.24.146,mogelijke versie adaptive staircase builder,,2026.1.3,59.89361695719326,2026-04-13 12h26.24.479363 +0200,
12.5,ecc0,mid,58,0,58,j,0,3.3205821000010474,None,0,1,1,1,58,0,58,0,1311.9217493000015,,,,,,,,,,,,,,,1311.9110375,1311.9217493000015,1312.8228961000004,1311.9217493000015,1311.9217493000015,1315.2566455000015,j,0,3.3205821000010474,None,right,8,"[20, 18, 20, 18, 20, 17, 18, 17, 20, 18, 20, 19, 20, 19, 20, 19, 20, 19, 20, 16, 18, 16, 17, 14, 15, 14, 15, 13, 14, 8]",30,gaze_R_8.png,j,0,2,results5,001,2026-04-13_12h26.24.146,mogelijke versie adaptive staircase builder,,2026.1.3,59.89361695719326,2026-04-13 12h26.24.479363 +0200,
12.5,ecc0,mid,59,0,59,j,1,2.5114097999994556,None,0,1,1,1,59,0,59,0,1315.3470525000012,,,,,,,,,,,,,,,1315.3370951000015,1315.3470525000012,1316.2562130000006,1315.3470525000012,1315.3470525000012,1317.8736763000015,j,1,2.5114097999994556,None,direct,9,"[20, 18, 20, 18, 20, 17, 18, 17, 20, 18, 20, 19, 20, 19, 20, 19, 20, 19, 20, 16, 18, 16, 17, 14, 15, 14, 15, 13, 14, 8, 9]",31,direct_gaze.png,j,1,2,results5,001,2026-04-13_12h26.24.146,mogelijke versie adaptive staircase builder,,2026.1.3,59.89361695719326,2026-04-13 12h26.24.479363 +0200,
12.5,ecc0,mid,1,1,0,,,,,0,1,1,1,,,,,,,,,,,,,,,,,,,,,,,,,,,,,,,,,,,,,,results5,001,2026-04-13_12h26.24.146,mogelijke versie adaptive staircase builder,,2026.1.3,59.89361695719326,2026-04-13 12h26.24.479363 +0200,
20.5,ecc10neg,right,0,0,0,f,0,8.194082100000742,None,0,2,2,2,0,0,0,0,1317.9764590000013,,,,,,,,,,,,,1317.8764713,1317.8765096000006,1317.9654964000001,1317.9764590000013,1317.9764590000013,1318.8897132000002,1317.9764590000013,1326.173629500001,f,0,8.194082100000742,None,direct,20,[],0,shifteddirectgaze.png,f,0,3,results5,001,2026-04-13_12h26.24.146,mogelijke versie adaptive staircase builder,,2026.1.3,59.89361695719326,2026-04-13 12h26.24.479363 +0200,
20.5,ecc10neg,right,1,0,1,j,1,4.807626199999504,None,0,2,2,2,1,0,1,0,1326.2749623,,,,,,,,,,,,,,,1326.2636884000003,1326.2749623,1326.2749623,1327.189676,1326.2749623,1331.0901402,j,1,4.807626199999504,None,direct,20,[20],1,shifteddirectgaze.png,j,1,3,results5,001,2026-04-13_12h26.24.146,mogelijke versie adaptive staircase builder,,2026.1.3,59.89361695719326,2026-04-13 12h26.24.479363 +0200,
20.5,ecc10neg,right,2,0,2,f,1,3.4070162999996683,None,0,2,2,2,2,0,2,0,1331.235541600001,,,,,,,,,,,,,,,1331.2238205000012,1331.235541600001,1331.235541600001,1332.1061962000003,1331.235541600001,1334.6563244000008,f,1,3.4070162999996683,None,right,19,[20],1,shiftedgaze_R_19.png,f,1,3,results5,001,2026-04-13_12h26.24.146,mogelijke versie adaptive staircase builder,,2026.1.3,59.89361695719326,2026-04-13 12h26.24.479363 +0200,
20.5,ecc10neg,right,3,0,3,f,0,2.1308650000009948,None,0,2,2,2,3,0,3,0,1334.7757583000002,,,,,,,,,,,,,,,1334.7643380999998,1334.7757583000002,1334.7757583000002,1335.6560102000003,1334.7757583000002,1336.9233015999998,f,0,2.1308650000009948,None,direct,18,"[20, 18]",2,shifteddirectgaze.png,f,0,3,results5,001,2026-04-13_12h26.24.146,mogelijke versie adaptive staircase builder,,2026.1.3,59.89361695719326,2026-04-13 12h26.24.479363 +0200,
20.5,ecc10neg,right,4,0,4,j,1,4.593208099999174,None,0,2,2,2,4,0,4,0,1337.0172879000002,,,,,,,,,,,,,,,1337.0066241000004,1337.0172879000002,1337.0172879000002,1337.922942700001,1337.0172879000002,1341.6231069000005,j,1,4.593208099999174,None,direct,19,"[20, 18, 19]",3,shifteddirectgaze.png,j,1,3,results5,001,2026-04-13_12h26.24.146,mogelijke versie adaptive staircase builder,,2026.1.3,59.89361695719326,2026-04-13 12h26.24.479363 +0200,
20.5,ecc10neg,right,5,0,5,f,1,3.9613890999989962,None,0,2,2,2,5,0,5,0,1341.7531338999997,,,,,,,,,,,,,,,1341.7405924000013,1341.7531338999997,1341.7531338999997,1342.6226445000011,1341.7531338999997,1345.7229196000008,f,1,3.9613890999989962,None,right,18,"[20, 18, 19]",3,shiftedgaze_R_18.png,f,1,3,results5,001,2026-04-13_12h26.24.146,mogelijke versie adaptive staircase builder,,2026.1.3,59.89361695719326,2026-04-13 12h26.24.479363 +0200,
20.5,ecc10neg,right,6,0,6,j,1,4.403363899999022,None,0,2,2,2,6,0,6,0,1345.8391376,,,,,,,,,,,,,,,1345.8261010000006,1345.8391376,1345.8391376,1346.7226303000007,1345.8391376,1350.2565376000002,j,1,4.403363899999022,None,direct,17,"[20, 18, 19]",3,shifteddirectgaze.png,j,1,3,results5,001,2026-04-13_12h26.24.146,mogelijke versie adaptive staircase builder,,2026.1.3,59.89361695719326,2026-04-13 12h26.24.479363 +0200,
20.5,ecc10neg,right,7,0,7,f,1,2.1768730000003416,None,0,2,2,2,7,0,7,0,1350.3860368000005,,,,,,,,,,,,,,,1350.3739416000008,1350.3860368000005,1350.3860368000005,1351.2558088000005,1350.3860368000005,1352.5729484000003,f,1,2.1768730000003416,None,right,16,"[20, 18, 19]",3,shiftedgaze_R_16.png,f,1,3,results5,001,2026-04-13_12h26.24.146,mogelijke versie adaptive staircase builder,,2026.1.3,59.89361695719326,2026-04-13 12h26.24.479363 +0200,
20.5,ecc10neg,right,8,0,8,j,1,3.9399692000006326,None,0,2,2,2,8,0,8,0,1352.686517,,,,,,,,,,,,,,,1352.6756658000013,1352.686517,1352.686517,1353.5726986000009,1352.686517,1356.6396634000012,j,1,3.9399692000006326,None,direct,15,"[20, 18, 19]",3,shifteddirectgaze.png,j,1,3,results5,001,2026-04-13_12h26.24.146,mogelijke versie adaptive staircase builder,,2026.1.3,59.89361695719326,2026-04-13 12h26.24.479363 +0200,
20.5,ecc10neg,right,9,0,9,f,1,4.697851799999626,None,0,2,2,2,9,0,9,0,1356.7446075000007,,,,,,,,,,,,,,,1356.7329415000004,1356.7446075000007,1356.7446075000007,1357.6391866000013,1356.7446075000007,1361.4561318000015,f,1,4.697851799999626,None,left,14,"[20, 18, 19]",3,shiftedgaze_L_14.png,f,1,3,results5,001,2026-04-13_12h26.24.146,mogelijke versie adaptive staircase builder,,2026.1.3,59.89361695719326,2026-04-13 12h26.24.479363 +0200,
20.5,ecc10neg,right,10,0,10,f,1,3.06450120000045,None,0,2,2,2,10,0,10,0,1361.5619484,,,,,,,,,,,,,,,1361.5517435000002,1361.5619484,1361.5619484,1362.4557290000012,1361.5619484,1364.6394383000006,f,1,3.06450120000045,None,left,13,"[20, 18, 19]",3,shiftedgaze_L_13.png,f,1,3,results5,001,2026-04-13_12h26.24.146,mogelijke versie adaptive staircase builder,,2026.1.3,59.89361695719326,2026-04-13 12h26.24.479363 +0200,
20.5,ecc10neg,right,11,0,11,f,0,3.351694699998916,None,0,2,2,2,11,0,11,0,1364.7387782000005,,,,,,,,,,,,,,,1364.7280425999998,1364.7387782000005,1364.7387782000005,1365.6392046,1364.7387782000005,1368.1059655999998,f,0,3.351694699998916,None,direct,12,"[20, 18, 19, 12]",4,shifteddirectgaze.png,f,0,3,results5,001,2026-04-13_12h26.24.146,mogelijke versie adaptive staircase builder,,2026.1.3,59.89361695719326,2026-04-13 12h26.24.479363 +0200,
20.5,ecc10neg,right,12,0,12,j,0,4.8606935999996495,None,0,2,2,2,12,0,12,0,1368.2136521000011,,,,,,,,,,,,,,,1368.2028164000003,1368.2136521000011,1368.2136521000011,1369.1055875000002,1368.2136521000011,1373.0892502000006,j,0,4.8606935999996495,None,right,13,"[20, 18, 19, 12]",4,shiftedgaze_R_13.png,j,0,3,results5,001,2026-04-13_12h26.24.146,mogelijke versie adaptive staircase builder,,2026.1.3,59.89361695719326,2026-04-13 12h26.24.479363 +0200,
20.5,ecc10neg,right,13,0,13,j,0,1.9925112000000809,None,0,2,2,2,13,0,13,0,1373.18678,,,,,,,,,,,,,,,1373.1767698000003,1373.18678,1373.18678,1374.088851300001,1373.18678,1375.1892911000014,j,0,1.9925112000000809,None,left,14,"[20, 18, 19, 12]",4,shiftedgaze_L_14.png,j,0,3,results5,001,2026-04-13_12h26.24.146,mogelijke versie adaptive staircase builder,,2026.1.3,59.89361695719326,2026-04-13 12h26.24.479363 +0200,
20.5,ecc10neg,right,14,0,14,j,1,4.595284299999548,None,0,2,2,2,14,0,14,0,1375.2870898,,,,,,,,,,,,,,,1375.2765274000012,1375.2870898,1375.2870898,1376.188858900001,1375.2870898,1379.8892950000009,j,1,4.595284299999548,None,direct,15,"[20, 18, 19, 12, 15]",5,shifteddirectgaze.png,j,1,3,results5,001,2026-04-13_12h26.24.146,mogelijke versie adaptive staircase builder,,2026.1.3,59.89361695719326,2026-04-13 12h26.24.479363 +0200,
20.5,ecc10neg,right,15,0,15,j,1,3.6902855999996973,None,0,2,2,2,15,0,15,0,1380.0002089000009,,,,,,,,,,,,,,,1379.9898580999998,1380.0002089000009,1380.0002089000009,1380.8887161000002,1380.0002089000009,1383.7056868,j,1,3.6902855999996973,None,direct,14,"[20, 18, 19, 12, 15]",5,shifteddirectgaze.png,j,1,3,results5,001,2026-04-13_12h26.24.146,mogelijke versie adaptive staircase builder,,2026.1.3,59.89361695719326,2026-04-13 12h26.24.479363 +0200,
20.5,ecc10neg,right,16,0,16,f,1,1.8148606000013388,None,0,2,2,2,16,0,16,0,1383.8035608999999,,,,,,,,,,,,,,,1383.7928651000002,1383.8035608999999,1383.8035608999999,1384.7055013000008,1383.8035608999999,1385.6225787000003,f,1,1.8148606000013388,None,left,13,"[20, 18, 19, 12, 15]",5,shiftedgaze_L_13.png,f,1,3,results5,001,2026-04-13_12h26.24.146,mogelijke versie adaptive staircase builder,,2026.1.3,59.89361695719326,2026-04-13 12h26.24.479363 +0200,
20.5,ecc10neg,right,17,0,17,f,1,3.046015500000067,None,0,2,2,2,17,0,17,0,1385.7329796000013,,,,,,,,,,,,,,,1385.7207777000003,1385.7329796000013,1385.7329796000013,1386.6221769000003,1385.7329796000013,1388.7892284999998,f,1,3.046015500000067,None,left,12,"[20, 18, 19, 12, 15]",5,shiftedgaze_L_12.png,f,1,3,results5,001,2026-04-13_12h26.24.146,mogelijke versie adaptive staircase builder,,2026.1.3,59.89361695719326,2026-04-13 12h26.24.479363 +0200,
20.5,ecc10neg,right,18,0,18,f,0,2.5321684000009554,None,0,2,2,2,18,0,18,0,1388.886228700001,,,,,,,,,,,,,,,1388.8758972000014,1388.886228700001,1388.886228700001,1389.7887717000012,1388.886228700001,1391.422263800001,f,0,2.5321684000009554,None,direct,11,"[20, 18, 19, 12, 15, 11]",6,shifteddirectgaze.png,f,0,3,results5,001,2026-04-13_12h26.24.146,mogelijke versie adaptive staircase builder,,2026.1.3,59.89361695719326,2026-04-13 12h26.24.479363 +0200,
20.5,ecc10neg,right,19,0,19,f,1,5.446992099999989,None,0,2,2,2,19,0,19,0,1391.5475201000008,,,,,,,,,,,,,,,1391.5357972000002,1391.5475201000008,1391.5475201000008,1392.4221008000004,1391.5475201000008,1397.0057381000006,f,1,5.446992099999989,None,right,12,"[20, 18, 19, 12, 15, 11, 12]",7,shiftedgaze_R_12.png,f,1,3,results5,001,2026-04-13_12h26.24.146,mogelijke versie adaptive staircase builder,,2026.1.3,59.89361695719326,2026-04-13 12h26.24.479363 +0200,
20.5,ecc10neg,right,20,0,20,j,1,2.6018778000016027,None,0,2,2,2,20,0,20,0,1397.1205969000002,,,,,,,,,,,,,,,1397.1108682000013,1397.1205969000002,1397.1205969000002,1398.0054809000012,1397.1205969000002,1399.7389515000013,j,1,2.6018778000016027,None,direct,11,"[20, 18, 19, 12, 15, 11, 12]",7,shifteddirectgaze.png,j,1,3,results5,001,2026-04-13_12h26.24.146,mogelijke versie adaptive staircase builder,,2026.1.3,59.89361695719326,2026-04-13 12h26.24.479363 +0200,
20.5,ecc10neg,right,21,0,21,f,0,3.4962897000004887,None,0,2,2,2,21,0,21,0,1399.8340688000008,,,,,,,,,,,,,,,1399.8235522000014,1399.8340688000008,1399.8340688000008,1400.7383825000015,1399.8340688000008,1403.3387760000005,f,0,3.4962897000004887,None,direct,10,"[20, 18, 19, 12, 15, 11, 12, 10]",8,shifteddirectgaze.png,f,0,3,results5,001,2026-04-13_12h26.24.146,mogelijke versie adaptive staircase builder,,2026.1.3,59.89361695719326,2026-04-13 12h26.24.479363 +0200,
20.5,ecc10neg,right,22,0,22,f,0,2.350432600000204,None,0,2,2,2,22,0,22,0,1403.4360256,,,,,,,,,,,,,,,1403.4253840000001,1403.4360256,1403.4360256,1404.3385444000014,1403.4360256,1405.7890036999997,f,0,2.350432600000204,None,direct,11,"[20, 18, 19, 12, 15, 11, 12, 10]",8,shifteddirectgaze.png,f,0,3,results5,001,2026-04-13_12h26.24.146,mogelijke versie adaptive staircase builder,,2026.1.3,59.89361695719326,2026-04-13 12h26.24.479363 +0200,
20.5,ecc10neg,right,23,0,23,j,0,2.9329486999995424,None,0,2,2,2,23,0,23,0,1405.8856289000014,,,,,,,,,,,,,,,1405.8753187000002,1405.8856289000014,1405.8856289000014,1406.7884251000014,1405.8856289000014,1408.8224631000012,j,0,2.9329486999995424,None,left,12,"[20, 18, 19, 12, 15, 11, 12, 10]",8,shiftedgaze_L_12.png,j,0,3,results5,001,2026-04-13_12h26.24.146,mogelijke versie adaptive staircase builder,,2026.1.3,59.89361695719326,2026-04-13 12h26.24.479363 +0200,
20.5,ecc10neg,right,24,0,24,f,0,3.4836654999999155,None,0,2,2,2,24,0,24,0,1408.9188434000007,,,,,,,,,,,,,,,1408.9079029000004,1408.9188434000007,1408.9188434000007,1409.8384274,1408.9188434000007,1412.4055914,f,0,3.4836654999999155,None,direct,13,"[20, 18, 19, 12, 15, 11, 12, 10]",8,shifteddirectgaze.png,f,0,3,results5,001,2026-04-13_12h26.24.146,mogelijke versie adaptive staircase builder,,2026.1.3,59.89361695719326,2026-04-13 12h26.24.479363 +0200,
20.5,ecc10neg,right,25,0,25,j,1,5.038003899999239,None,0,2,2,2,25,0,25,0,1412.5006594000006,,,,,,,,,,,,,,,1412.4903768000004,1412.5006594000006,1412.5006594000006,1413.4051940999998,1412.5006594000006,1417.5555099000012,j,1,5.038003899999239,None,direct,14,"[20, 18, 19, 12, 15, 11, 12, 10, 14]",9,shifteddirectgaze.png,j,1,3,results5,001,2026-04-13_12h26.24.146,mogelijke versie adaptive staircase builder,,2026.1.3,59.89361695719326,2026-04-13 12h26.24.479363 +0200,
20.5,ecc10neg,right,26,0,26,f,1,3.2883454999991955,None,0,2,2,2,26,0,26,0,1417.6504332000004,,,,,,,,,,,,,,,1417.639894,1417.6504332000004,1417.6504332000004,1418.5550782999999,1417.6504332000004,1420.955353700001,f,1,3.2883454999991955,None,right,13,"[20, 18, 19, 12, 15, 11, 12, 10, 14]",9,shiftedgaze_R_13.png,f,1,3,results5,001,2026-04-13_12h26.24.146,mogelijke versie adaptive staircase builder,,2026.1.3,59.89361695719326,2026-04-13 12h26.24.479363 +0200,
20.5,ecc10neg,right,27,0,27,f,1,5.574261100000513,None,0,2,2,2,27,0,27,0,1421.0522044000008,,,,,,,,,,,,,,,1421.0413356999998,1421.0522044000008,1421.0522044000008,1421.9549201999998,1421.0522044000008,1426.638695900001,f,1,5.574261100000513,None,left,12,"[20, 18, 19, 12, 15, 11, 12, 10, 14]",9,shiftedgaze_L_12.png,f,1,3,results5,001,2026-04-13_12h26.24.146,mogelijke versie adaptive staircase builder,,2026.1.3,59.89361695719326,2026-04-13 12h26.24.479363 +0200,
20.5,ecc10neg,right,28,0,28,f,0,2.218678799999907,None,0,2,2,2,28,0,28,0,1426.7356767,,,,,,,,,,,,,,,1426.7256486000006,1426.7356767,1426.7356767,1427.6391518,1426.7356767,1428.9552901000006,f,0,2.218678799999907,None,direct,11,"[20, 18, 19, 12, 15, 11, 12, 10, 14, 11]",10,shifteddirectgaze.png,f,0,3,results5,001,2026-04-13_12h26.24.146,mogelijke versie adaptive staircase builder,,2026.1.3,59.89361695719326,2026-04-13 12h26.24.479363 +0200,
20.5,ecc10neg,right,29,0,29,f,1,2.6759099999999307,None,0,2,2,2,29,0,29,0,1429.0705820000003,,,,,,,,,,,,,,,1429.060039,1429.0705820000003,1429.0705820000003,1429.954834600001,1429.0705820000003,1431.7550561000007,f,1,2.6759099999999307,None,right,12,"[20, 18, 19, 12, 15, 11, 12, 10, 14, 11, 12]",11,shiftedgaze_R_12.png,f,1,3,results5,001,2026-04-13_12h26.24.146,mogelijke versie adaptive staircase builder,,2026.1.3,59.89361695719326,2026-04-13 12h26.24.479363 +0200,
20.5,ecc10neg,right,30,0,30,j,0,3.3385891000016272,None,0,2,2,2,30,0,30,0,1431.8797478000015,,,,,,,,,,,,,,,1431.8697240000001,1431.8797478000015,1431.8797478000015,1432.754834700001,1431.8797478000015,1435.2217227,j,0,3.3385891000016272,None,left,11,"[20, 18, 19, 12, 15, 11, 12, 10, 14, 11, 12, 11]",12,shiftedgaze_L_11.png,j,0,3,results5,001,2026-04-13_12h26.24.146,mogelijke versie adaptive staircase builder,,2026.1.3,59.89361695719326,2026-04-13 12h26.24.479363 +0200,
20.5,ecc10neg,right,31,0,31,j,1,3.168951700001344,None,0,2,2,2,31,0,31,0,1435.3214945,,,,,,,,,,,,,,,1435.3109901000007,1435.3214945,1435.3214945,1436.2213013,1435.3214945,1438.5050401000008,j,1,3.168951700001344,None,direct,12,"[20, 18, 19, 12, 15, 11, 12, 10, 14, 11, 12, 11, 12]",13,shifteddirectgaze.png,j,1,3,results5,001,2026-04-13_12h26.24.146,mogelijke versie adaptive staircase builder,,2026.1.3,59.89361695719326,2026-04-13 12h26.24.479363 +0200,
20.5,ecc10neg,right,32,0,32,f,1,3.9681526999993366,None,0,2,2,2,32,0,32,0,1438.6102859000002,,,,,,,,,,,,,,,1438.5997661000001,1438.6102859000002,1438.6102859000002,1439.5049459000002,1438.6102859000002,1442.5883668000006,f,1,3.9681526999993366,None,right,11,"[20, 18, 19, 12, 15, 11, 12, 10, 14, 11, 12, 11, 12]",13,shiftedgaze_R_11.png,f,1,3,results5,001,2026-04-13_12h26.24.146,mogelijke versie adaptive staircase builder,,2026.1.3,59.89361695719326,2026-04-13 12h26.24.479363 +0200,
20.5,ecc10neg,right,33,0,33,f,1,2.611043000000791,None,0,2,2,2,33,0,33,0,1442.6954294000006,,,,,,,,,,,,,,,1442.6850641,1442.6954294000006,1442.6954294000006,1443.5880001000005,1442.6954294000006,1445.3216861,f,1,2.611043000000791,None,left,10,"[20, 18, 19, 12, 15, 11, 12, 10, 14, 11, 12, 11, 12]",13,shiftedgaze_L_10.png,f,1,3,results5,001,2026-04-13_12h26.24.146,mogelijke versie adaptive staircase builder,,2026.1.3,59.89361695719326,2026-04-13 12h26.24.479363 +0200,
20.5,ecc10neg,right,34,0,34,j,0,3.2769810000008874,None,0,2,2,2,34,0,34,0,1445.4294877000011,,,,,,,,,,,,,,,1445.4183357000002,1445.4294877000011,1445.4294877000011,1446.3212944000006,1445.4294877000011,1448.7217335000005,j,0,3.2769810000008874,None,right,9,"[20, 18, 19, 12, 15, 11, 12, 10, 14, 11, 12, 11, 12, 9]",14,shiftedgaze_R_9.png,j,0,3,results5,001,2026-04-13_12h26.24.146,mogelijke versie adaptive staircase builder,,2026.1.3,59.89361695719326,2026-04-13 12h26.24.479363 +0200,
20.5,ecc10neg,right,35,0,35,f,1,4.222765299999082,None,0,2,2,2,35,0,35,0,1448.8277261000003,,,,,,,,,,,,,,,1448.8175867999998,1448.8277261000003,1448.8277261000003,1449.7211646000014,1448.8277261000003,1453.0549210999998,f,1,4.222765299999082,None,right,10,"[20, 18, 19, 12, 15, 11, 12, 10, 14, 11, 12, 11, 12, 9, 10]",15,shiftedgaze_R_10.png,f,1,3,results5,001,2026-04-13_12h26.24.146,mogelijke versie adaptive staircase builder,,2026.1.3,59.89361695719326,2026-04-13 12h26.24.479363 +0200,
20.5,ecc10neg,right,36,0,36,f,1,6.122146300000168,None,0,2,2,2,36,0,36,0,1453.1604002000004,,,,,,,,,,,,,,,1453.1497744000008,1453.1604002000004,1453.1604002000004,1454.0543656999998,1453.1604002000004,1459.2882461999998,f,1,6.122146300000168,None,left,9,"[20, 18, 19, 12, 15, 11, 12, 10, 14, 11, 12, 11, 12, 9, 10]",15,shiftedgaze_L_9.png,f,1,3,results5,001,2026-04-13_12h26.24.146,mogelijke versie adaptive staircase builder,,2026.1.3,59.89361695719326,2026-04-13 12h26.24.479363 +0200,
20.5,ecc10neg,right,37,0,37,j,0,5.224301599999308,None,0,2,2,2,37,0,37,0,1459.3942458000001,,,,,,,,,,,,,,,1459.3831479,1459.3942458000001,1459.3942458000001,1460.2877642000003,1459.3942458000001,1464.6213853000008,j,0,5.224301599999308,None,left,8,"[20, 18, 19, 12, 15, 11, 12, 10, 14, 11, 12, 11, 12, 9, 10, 8]",16,shiftedgaze_L_8.png,j,0,3,results5,001,2026-04-13_12h26.24.146,mogelijke versie adaptive staircase builder,,2026.1.3,59.89361695719326,2026-04-13 12h26.24.479363 +0200,
20.5,ecc10neg,right,38,0,38,f,1,4.1880440000004455,None,0,2,2,2,38,0,38,0,1464.7183925999998,,,,,,,,,,,,,,,1464.7079857000008,1464.7183925999998,1464.7183925999998,1465.6209469000005,1464.7183925999998,1468.9210389,f,1,4.1880440000004455,None,right,9,"[20, 18, 19, 12, 15, 11, 12, 10, 14, 11, 12, 11, 12, 9, 10, 8, 9]",17,shiftedgaze_R_9.png,f,1,3,results5,001,2026-04-13_12h26.24.146,mogelijke versie adaptive staircase builder,,2026.1.3,59.89361695719326,2026-04-13 12h26.24.479363 +0200,
20.5,ecc10neg,right,39,0,39,f,0,7.347168899999815,None,0,2,2,2,39,0,39,0,1469.0152537000013,,,,,,,,,,,,,,,1469.0047492000012,1469.0152537000013,1469.0152537000013,1469.9209342000013,1469.0152537000013,1476.3713060999999,f,0,7.347168899999815,None,direct,8,"[20, 18, 19, 12, 15, 11, 12, 10, 14, 11, 12, 11, 12, 9, 10, 8, 9, 8]",18,shifteddirectgaze.png,f,0,3,results5,001,2026-04-13_12h26.24.146,mogelijke versie adaptive staircase builder,,2026.1.3,59.89361695719326,2026-04-13 12h26.24.479363 +0200,
20.5,ecc10neg,right,40,0,40,f,1,3.813580699999875,None,0,2,2,2,40,0,40,0,1476.4689108000002,,,,,,,,,,,,,,,1476.4583902000013,1476.4689108000002,1476.4689108000002,1477.3706612000005,1476.4689108000002,1480.2877523000006,f,1,3.813580699999875,None,left,9,"[20, 18, 19, 12, 15, 11, 12, 10, 14, 11, 12, 11, 12, 9, 10, 8, 9, 8, 9]",19,shiftedgaze_L_9.png,f,1,3,results5,001,2026-04-13_12h26.24.146,mogelijke versie adaptive staircase builder,,2026.1.3,59.89361695719326,2026-04-13 12h26.24.479363 +0200,
20.5,ecc10neg,right,41,0,41,j,1,3.428995700000087,None,0,2,2,2,41,0,41,0,1480.382318,,,,,,,,,,,,,,,1480.3714500000006,1480.382318,1480.382318,1481.287534000001,1480.382318,1483.8212593000007,j,1,3.428995700000087,None,direct,8,"[20, 18, 19, 12, 15, 11, 12, 10, 14, 11, 12, 11, 12, 9, 10, 8, 9, 8, 9]",19,shifteddirectgaze.png,j,1,3,results5,001,2026-04-13_12h26.24.146,mogelijke versie adaptive staircase builder,,2026.1.3,59.89361695719326,2026-04-13 12h26.24.479363 +0200,
20.5,ecc10neg,right,42,0,42,j,1,7.752381899999818,None,0,2,2,2,42,0,42,0,1483.9540331000007,,,,,,,,,,,,,,,1483.9061374000012,1483.9540331000007,1483.9540331000007,1484.8207983000011,1483.9540331000007,1491.7209023000014,j,1,7.752381899999818,None,direct,7,"[20, 18, 19, 12, 15, 11, 12, 10, 14, 11, 12, 11, 12, 9, 10, 8, 9, 8, 9]",19,shifteddirectgaze.png,j,1,3,results5,001,2026-04-13_12h26.24.146,mogelijke versie adaptive staircase builder,,2026.1.3,59.89361695719326,2026-04-13 12h26.24.479363 +0200,
20.5,ecc10neg,right,43,0,43,j,1,5.523060000001351,None,0,2,2,2,43,0,43,0,1491.815385400001,,,,,,,,,,,,,,,1491.8053262000012,1491.815385400001,1491.815385400001,1492.720639700001,1491.815385400001,1497.354447400001,j,1,5.523060000001351,None,direct,6,"[20, 18, 19, 12, 15, 11, 12, 10, 14, 11, 12, 11, 12, 9, 10, 8, 9, 8, 9]",19,shifteddirectgaze.png,j,1,3,results5,001,2026-04-13_12h26.24.146,mogelijke versie adaptive staircase builder,,2026.1.3,59.89361695719326,2026-04-13 12h26.24.479363 +0200,
20.5,ecc10neg,right,44,0,44,f,0,5.392199199999595,None,0,2,2,2,44,0,44,0,1497.450272,,,,,,,,,,,,,,,1497.4396505000004,1497.450272,1497.450272,1498.3538551000001,1497.450272,1502.8541904000012,f,0,5.392199199999595,None,direct,5,"[20, 18, 19, 12, 15, 11, 12, 10, 14, 11, 12, 11, 12, 9, 10, 8, 9, 8, 9, 5]",20,shifteddirectgaze.png,f,0,3,results5,001,2026-04-13_12h26.24.146,mogelijke versie adaptive staircase builder,,2026.1.3,59.89361695719326,2026-04-13 12h26.24.479363 +0200,
20.5,ecc10neg,right,45,0,45,f,1,2.9655331000012666,None,0,2,2,2,45,0,45,0,1502.9568927,,,,,,,,,,,,,,,1502.9458181999998,1502.9568927,1502.9568927,1503.8537394000014,1502.9568927,1505.9374183,f,1,2.9655331000012666,None,right,6,"[20, 18, 19, 12, 15, 11, 12, 10, 14, 11, 12, 11, 12, 9, 10, 8, 9, 8, 9, 5, 6]",21,shiftedgaze_R_6.png,f,1,3,results5,001,2026-04-13_12h26.24.146,mogelijke versie adaptive staircase builder,,2026.1.3,59.89361695719326,2026-04-13 12h26.24.479363 +0200,
20.5,ecc10neg,right,46,0,46,f,1,2.736443700001473,None,0,2,2,2,46,0,46,0,1506.0419015000007,,,,,,,,,,,,,,,1506.0315071000005,1506.0419015000007,1506.0419015000007,1506.9371335000014,1506.0419015000007,1508.7874181000007,f,1,2.736443700001473,None,right,5,"[20, 18, 19, 12, 15, 11, 12, 10, 14, 11, 12, 11, 12, 9, 10, 8, 9, 8, 9, 5, 6]",21,shiftedgaze_R_5.png,f,1,3,results5,001,2026-04-13_12h26.24.146,mogelijke versie adaptive staircase builder,,2026.1.3,59.89361695719326,2026-04-13 12h26.24.479363 +0200,
20.5,ecc10neg,right,47,0,47,j,0,4.097049799998786,None,0,2,2,2,47,0,47,0,1508.8895555,,,,,,,,,,,,,,,1508.8790550000012,1508.8895555,1508.8895555,1509.7871105000013,1508.8895555,1512.987418300001,j,0,4.097049799998786,None,right,4,"[20, 18, 19, 12, 15, 11, 12, 10, 14, 11, 12, 11, 12, 9, 10, 8, 9, 8, 9, 5, 6, 4]",22,shiftedgaze_R_4.png,j,0,3,results5,001,2026-04-13_12h26.24.146,mogelijke versie adaptive staircase builder,,2026.1.3,59.89361695719326,2026-04-13 12h26.24.479363 +0200,
20.5,ecc10neg,right,48,0,48,j,1,5.4930809999987105,None,0,2,2,2,48,0,48,0,1513.085372900001,,,,,,,,,,,,,,,1513.0725739999998,1513.085372900001,1513.085372900001,1513.9869525000013,1513.085372900001,1518.5873721000007,j,1,5.4930809999987105,None,direct,5,"[20, 18, 19, 12, 15, 11, 12, 10, 14, 11, 12, 11, 12, 9, 10, 8, 9, 8, 9, 5, 6, 4, 5]",23,shifteddirectgaze.png,j,1,3,results5,001,2026-04-13_12h26.24.146,mogelijke versie adaptive staircase builder,,2026.1.3,59.89361695719326,2026-04-13 12h26.24.479363 +0200,
20.5,ecc10neg,right,49,0,49,f,1,2.8487353999989864,None,0,2,2,2,49,0,49,0,1518.6818731000003,,,,,,,,,,,,,,,1518.6714186000008,1518.6818731000003,1518.6818731000003,1519.5870001000003,1518.6818731000003,1521.537341000001,f,1,2.8487353999989864,None,right,4,"[20, 18, 19, 12, 15, 11, 12, 10, 14, 11, 12, 11, 12, 9, 10, 8, 9, 8, 9, 5, 6, 4, 5]",23,shiftedgaze_R_4.png,f,1,3,results5,001,2026-04-13_12h26.24.146,mogelijke versie adaptive staircase builder,,2026.1.3,59.89361695719326,2026-04-13 12h26.24.479363 +0200,
20.5,ecc10neg,right,50,0,50,j,0,3.064352499999586,None,0,2,2,2,50,0,50,0,1521.6420165,,,,,,,,,,,,,,,1521.6289620000007,1521.6420165,1521.6420165,1522.5369101000015,1521.6420165,1524.7205477000007,j,0,3.064352499999586,None,right,3,"[20, 18, 19, 12, 15, 11, 12, 10, 14, 11, 12, 11, 12, 9, 10, 8, 9, 8, 9, 5, 6, 4, 5, 3]",24,shiftedgaze_R_3.png,j,0,3,results5,001,2026-04-13_12h26.24.146,mogelijke versie adaptive staircase builder,,2026.1.3,59.89361695719326,2026-04-13 12h26.24.479363 +0200,
20.5,ecc10neg,right,51,0,51,f,0,4.386271000001216,None,0,2,2,2,51,0,51,0,1524.8162679000015,,,,,,,,,,,,,,,1524.8060418000005,1524.8162679000015,1524.8162679000015,1525.7202093000014,1524.8162679000015,1529.203913700001,f,0,4.386271000001216,None,direct,4,"[20, 18, 19, 12, 15, 11, 12, 10, 14, 11, 12, 11, 12, 9, 10, 8, 9, 8, 9, 5, 6, 4, 5, 3]",24,shifteddirectgaze.png,f,0,3,results5,001,2026-04-13_12h26.24.146,mogelijke versie adaptive staircase builder,,2026.1.3,59.89361695719326,2026-04-13 12h26.24.479363 +0200,
20.5,ecc10neg,right,52,0,52,f,1,2.391992900000332,None,0,2,2,2,52,0,52,0,1529.2983338000013,,,,,,,,,,,,,,,1529.2873853,1529.2983338000013,1529.2983338000013,1530.203302,1529.2983338000013,1531.703822200001,f,1,2.391992900000332,None,right,5,"[20, 18, 19, 12, 15, 11, 12, 10, 14, 11, 12, 11, 12, 9, 10, 8, 9, 8, 9, 5, 6, 4, 5, 3, 5]",25,shiftedgaze_R_5.png,f,1,3,results5,001,2026-04-13_12h26.24.146,mogelijke versie adaptive staircase builder,,2026.1.3,59.89361695719326,2026-04-13 12h26.24.479363 +0200,
20.5,ecc10neg,right,53,0,53,j,1,5.115175700000691,None,0,2,2,2,53,0,53,0,1531.7992749000005,,,,,,,,,,,,,,,1531.7877899000014,1531.7992749000005,1531.7992749000005,1532.7033853000012,1531.7992749000005,1536.9204264,j,1,5.115175700000691,None,direct,4,"[20, 18, 19, 12, 15, 11, 12, 10, 14, 11, 12, 11, 12, 9, 10, 8, 9, 8, 9, 5, 6, 4, 5, 3, 5]",25,shifteddirectgaze.png,j,1,3,results5,001,2026-04-13_12h26.24.146,mogelijke versie adaptive staircase builder,,2026.1.3,59.89361695719326,2026-04-13 12h26.24.479363 +0200,
20.5,ecc10neg,right,54,0,54,j,0,4.245187499998792,None,0,2,2,2,54,0,54,0,1537.0211397000003,,,,,,,,,,,,,,,1537.0111182,1537.0211397000003,1537.0211397000003,1537.920001800001,1537.0211397000003,1541.2702213000011,j,0,4.245187499998792,None,left,3,"[20, 18, 19, 12, 15, 11, 12, 10, 14, 11, 12, 11, 12, 9, 10, 8, 9, 8, 9, 5, 6, 4, 5, 3, 5, 3]",26,shiftedgaze_L_3.png,j,0,3,results5,001,2026-04-13_12h26.24.146,mogelijke versie adaptive staircase builder,,2026.1.3,59.89361695719326,2026-04-13 12h26.24.479363 +0200,
20.5,ecc10neg,right,55,0,55,j,0,2.6609144000012748,None,0,2,2,2,55,0,55,0,1541.3660940000009,,,,,,,,,,,,,,,1541.3555137000003,1541.3660940000009,1541.3660940000009,1542.2698983999999,1541.3660940000009,1544.036765500001,j,0,2.6609144000012748,None,right,4,"[20, 18, 19, 12, 15, 11, 12, 10, 14, 11, 12, 11, 12, 9, 10, 8, 9, 8, 9, 5, 6, 4, 5, 3, 5, 3]",26,shiftedgaze_R_4.png,j,0,3,results5,001,2026-04-13_12h26.24.146,mogelijke versie adaptive staircase builder,,2026.1.3,59.89361695719326,2026-04-13 12h26.24.479363 +0200,
20.5,ecc10neg,right,56,0,56,j,1,7.361446099999739,None,0,2,2,2,56,0,56,0,1544.1369436000004,,,,,,,,,,,,,,,1544.1258900000012,1544.1369436000004,1544.1369436000004,1545.0366556000008,1544.1369436000004,1551.503547100001,j,1,7.361446099999739,None,direct,5,"[20, 18, 19, 12, 15, 11, 12, 10, 14, 11, 12, 11, 12, 9, 10, 8, 9, 8, 9, 5, 6, 4, 5, 3, 5, 3, 5]",27,shifteddirectgaze.png,j,1,3,results5,001,2026-04-13_12h26.24.146,mogelijke versie adaptive staircase builder,,2026.1.3,59.89361695719326,2026-04-13 12h26.24.479363 +0200,
20.5,ecc10neg,right,57,0,57,j,0,4.013605500000267,None,0,2,2,2,57,0,57,0,1551.6048238000003,,,,,,,,,,,,,,,1551.5940620000001,1551.6048238000003,1551.6048238000003,1552.5031221999998,1551.6048238000003,1555.6200501000003,j,0,4.013605500000267,None,left,4,"[20, 18, 19, 12, 15, 11, 12, 10, 14, 11, 12, 11, 12, 9, 10, 8, 9, 8, 9, 5, 6, 4, 5, 3, 5, 3, 5, 4]",28,shiftedgaze_L_4.png,j,0,3,results5,001,2026-04-13_12h26.24.146,mogelijke versie adaptive staircase builder,,2026.1.3,59.89361695719326,2026-04-13 12h26.24.479363 +0200,
20.5,ecc10neg,right,58,0,58,f,1,2.5348421999988204,None,0,2,2,2,58,0,58,0,1555.7155703000008,,,,,,,,,,,,,,,1555.7038041000014,1555.7155703000008,1555.7155703000008,1556.6197346000008,1555.7155703000008,1558.2534114999999,f,1,2.5348421999988204,None,right,5,"[20, 18, 19, 12, 15, 11, 12, 10, 14, 11, 12, 11, 12, 9, 10, 8, 9, 8, 9, 5, 6, 4, 5, 3, 5, 3, 5, 4, 5]",29,shiftedgaze_R_5.png,f,1,3,results5,001,2026-04-13_12h26.24.146,mogelijke versie adaptive staircase builder,,2026.1.3,59.89361695719326,2026-04-13 12h26.24.479363 +0200,
20.5,ecc10neg,right,59,0,59,f,1,3.758899999998903,None,0,2,2,2,59,0,59,0,1558.3474759,,,,,,,,,,,,,,,1558.3373353000006,1558.3474759,1558.3474759,1559.2530772999999,1558.3474759,1562.1200015000013,f,1,3.758899999998903,None,right,4,"[20, 18, 19, 12, 15, 11, 12, 10, 14, 11, 12, 11, 12, 9, 10, 8, 9, 8, 9, 5, 6, 4, 5, 3, 5, 3, 5, 4, 5]",29,shiftedgaze_R_4.png,f,1,3,results5,001,2026-04-13_12h26.24.146,mogelijke versie adaptive staircase builder,,2026.1.3,59.89361695719326,2026-04-13 12h26.24.479363 +0200,
20.5,ecc10neg,right,2,2,0,,,,,0,2,2,2,,,,,,,,,,,,,,,,,,,,,,,,,,,,,,,,,,,,,,results5,001,2026-04-13_12h26.24.146,mogelijke versie adaptive staircase builder,,2026.1.3,59.89361695719326,2026-04-13 12h26.24.479363 +0200,
