xPos,stimulusSet,whichImage,thisN,thisTrialN,thisRepN,key_resp.keys,key_resp.corr,key_resp.rt,key_resp.duration,blocks.thisRepN,blocks.thisTrialN,blocks.thisN,blocks.thisIndex,trials.thisRepN,trials.thisTrialN,trials.thisN,trials.thisIndex,thisRow.t,notes,piloting,intro.started,introinstructions.started,intro_key.started,demo_image_left.started,demo_image_middle.started,demo_image_right.started,intro.stopped,intro_key.keys,intro_key.rt,intro_key.duration,block_start.started,block_start.stopped,trial.started,key_resp.started,middle_image.started,right_image.started,left_image.started,trial.stopped,trials.key_resp.keys,trials.key_resp.corr,trials.key_resp.rt,trials.key_resp.duration,direction,angle,reversal_intensities,number_reversals,stimulus,response,correct,blockNumber,participant,session,date,expName,expVersion,psychopyVersion,frameRate,expStart,
,,,,,,,,,,,,,,,,,,,,False,0.0035196999997424427,0.006586800000150106,0.006586800000150106,0.006586800000150106,0.006586800000150106,0.006586800000150106,860.5716384000007,space,860.4358805999982,0.1283556000016688,,,,,,,,,,,,,,,,,,,,,results19,001,2026-04-14_14h15.59.219,mogelijke versie adaptive staircase builder,,2026.1.3,59.96393768792599,2026-04-14 14h15.59.495630 +0200,
4.5,ecc10pos,left,0,0,0,f,1,2.0452100000002247,None,0,0,0,0,0,0,0,0,860.8369796000006,,,,,,,,,,,,,860.7427706000017,860.7428199999995,860.8343577000014,860.8369796000006,860.8369796000006,860.8369796000006,861.7543674000008,862.8877510999992,f,1,2.0452100000002247,None,right,20,[],0,shiftedgaze_R_20.png,f,1,1,results19,001,2026-04-14_14h15.59.219,mogelijke versie adaptive staircase builder,,2026.1.3,59.96393768792599,2026-04-14 14h15.59.495630 +0200,
4.5,ecc10pos,left,1,0,1,f,0,2.0656009999984235,None,0,0,0,0,1,0,1,0,862.9765197999986,,,,,,,,,,,,,,,862.9727433000007,862.9765197999986,862.9765197999986,862.9765197999986,863.8875913000011,865.054785100001,f,0,2.0656009999984235,None,direct,19,[19],1,shifteddirectgaze.png,f,0,1,results19,001,2026-04-14_14h15.59.219,mogelijke versie adaptive staircase builder,,2026.1.3,59.96393768792599,2026-04-14 14h15.59.495630 +0200,
4.5,ecc10pos,left,2,0,2,f,0,2.0368694999997388,None,0,0,0,0,2,0,2,0,865.1416692999992,,,,,,,,,,,,,,,865.1377296999999,865.1416692999992,865.1416692999992,865.1416692999992,866.0545329000015,867.1881637000006,f,0,2.0368694999997388,None,direct,20,[19],1,shifteddirectgaze.png,f,0,1,results19,001,2026-04-14_14h15.59.219,mogelijke versie adaptive staircase builder,,2026.1.3,59.96393768792599,2026-04-14 14h15.59.495630 +0200,
4.5,ecc10pos,left,3,0,3,f,1,2.5183105999967665,None,0,0,0,0,3,0,3,0,867.2757414000007,,,,,,,,,,,,,,,867.2717429000004,867.2757414000007,867.2757414000007,867.2757414000007,868.1875256999992,869.8042796000009,f,1,2.5183105999967665,None,right,20,"[19, 20]",2,shiftedgaze_R_20.png,f,1,1,results19,001,2026-04-14_14h15.59.219,mogelijke versie adaptive staircase builder,,2026.1.3,59.96393768792599,2026-04-14 14h15.59.495630 +0200,
4.5,ecc10pos,left,4,0,4,f,1,2.886636399998679,None,0,0,0,0,4,0,4,0,869.9794772999994,,,,,,,,,,,,,,,869.972617899999,869.9794772999994,869.9794772999994,869.9794772999994,870.8040381999999,872.8709345999996,f,1,2.886636399998679,None,left,19,"[19, 20]",2,shiftedgaze_L_19.png,f,1,1,results19,001,2026-04-14_14h15.59.219,mogelijke versie adaptive staircase builder,,2026.1.3,59.96393768792599,2026-04-14 14h15.59.495630 +0200,
4.5,ecc10pos,left,5,0,5,f,1,2.1729439000009734,None,0,0,0,0,5,0,5,0,872.9650684000007,,,,,,,,,,,,,,,872.9610385000015,872.9650684000007,872.9650684000007,872.9650684000007,873.8710629000016,875.1540918999999,f,1,2.1729439000009734,None,left,18,"[19, 20]",2,shiftedgaze_L_18.png,f,1,1,results19,001,2026-04-14_14h15.59.219,mogelijke versie adaptive staircase builder,,2026.1.3,59.96393768792599,2026-04-14 14h15.59.495630 +0200,
4.5,ecc10pos,left,6,0,6,j,0,2.1220942999971157,None,0,0,0,0,6,0,6,0,875.2719313999987,,,,,,,,,,,,,,,875.2620038999994,875.2719313999987,875.2719313999987,875.2719313999987,876.154544699999,877.4042939999999,j,0,2.1220942999971157,None,right,17,"[19, 20, 17]",3,shiftedgaze_R_17.png,j,0,1,results19,001,2026-04-14_14h15.59.219,mogelijke versie adaptive staircase builder,,2026.1.3,59.96393768792599,2026-04-14 14h15.59.495630 +0200,
4.5,ecc10pos,left,7,0,7,f,1,2.226209899999958,None,0,0,0,0,7,0,7,0,877.5198350999999,,,,,,,,,,,,,,,877.5103836999988,877.5198350999999,877.5198350999999,877.5198350999999,878.4045581999999,879.7550852999993,f,1,2.226209899999958,None,left,18,"[19, 20, 17, 18]",4,shiftedgaze_L_18.png,f,1,1,results19,001,2026-04-14_14h15.59.219,mogelijke versie adaptive staircase builder,,2026.1.3,59.96393768792599,2026-04-14 14h15.59.495630 +0200,
4.5,ecc10pos,left,8,0,8,f,1,1.6905308999994304,None,0,0,0,0,8,0,8,0,879.8479713000015,,,,,,,,,,,,,,,879.8437185000003,879.8479713000015,879.8479713000015,879.8479713000015,880.7546332999991,881.5395683999996,f,1,1.6905308999994304,None,left,17,"[19, 20, 17, 18]",4,shiftedgaze_L_17.png,f,1,1,results19,001,2026-04-14_14h15.59.219,mogelijke versie adaptive staircase builder,,2026.1.3,59.96393768792599,2026-04-14 14h15.59.495630 +0200,
4.5,ecc10pos,left,9,0,9,j,1,2.701648500002193,None,0,0,0,0,9,0,9,0,881.6364561000009,,,,,,,,,,,,,,,881.6265807999989,881.6364561000009,881.6364561000009,881.6364561000009,882.5553092000009,884.3385139999991,j,1,2.701648500002193,None,direct,16,"[19, 20, 17, 18]",4,shifteddirectgaze.png,j,1,1,results19,001,2026-04-14_14h15.59.219,mogelijke versie adaptive staircase builder,,2026.1.3,59.96393768792599,2026-04-14 14h15.59.495630 +0200,
4.5,ecc10pos,left,10,0,10,f,1,1.792044400001032,None,0,0,0,0,10,0,10,0,884.4259783000016,,,,,,,,,,,,,,,884.4219158999986,884.4259783000016,884.4259783000016,884.4259783000016,885.3541441000016,886.2210056000004,f,1,1.792044400001032,None,right,15,"[19, 20, 17, 18]",4,shiftedgaze_R_15.png,f,1,1,results19,001,2026-04-14_14h15.59.219,mogelijke versie adaptive staircase builder,,2026.1.3,59.96393768792599,2026-04-14 14h15.59.495630 +0200,
4.5,ecc10pos,left,11,0,11,f,1,2.1413493000000017,None,0,0,0,0,11,0,11,0,886.316582899999,,,,,,,,,,,,,,,886.3123283999994,886.316582899999,886.316582899999,886.316582899999,887.2213478000012,888.4710048999987,f,1,2.1413493000000017,None,right,14,"[19, 20, 17, 18]",4,shiftedgaze_R_14.png,f,1,1,results19,001,2026-04-14_14h15.59.219,mogelijke versie adaptive staircase builder,,2026.1.3,59.96393768792599,2026-04-14 14h15.59.495630 +0200,
4.5,ecc10pos,left,12,0,12,f,1,1.9325610999985656,None,0,0,0,0,12,0,12,0,888.5654823000004,,,,,,,,,,,,,,,888.5603201999984,888.5654823000004,888.5654823000004,888.5654823000004,889.4708470000005,890.5044922999987,f,1,1.9325610999985656,None,right,13,"[19, 20, 17, 18]",4,shiftedgaze_R_13.png,f,1,1,results19,001,2026-04-14_14h15.59.219,mogelijke versie adaptive staircase builder,,2026.1.3,59.96393768792599,2026-04-14 14h15.59.495630 +0200,
4.5,ecc10pos,left,13,0,13,f,1,2.4712310999966576,None,0,0,0,0,13,0,13,0,890.5948003000012,,,,,,,,,,,,,,,890.5901096000016,890.5948003000012,890.5948003000012,890.5948003000012,891.5046886000018,893.0710155999986,f,1,2.4712310999966576,None,left,12,"[19, 20, 17, 18]",4,shiftedgaze_L_12.png,f,1,1,results19,001,2026-04-14_14h15.59.219,mogelijke versie adaptive staircase builder,,2026.1.3,59.96393768792599,2026-04-14 14h15.59.495630 +0200,
4.5,ecc10pos,left,14,0,14,j,0,2.1221666999990703,None,0,0,0,0,14,0,14,0,893.1758631000012,,,,,,,,,,,,,,,893.1654808999992,893.1758631000012,893.1758631000012,893.1758631000012,894.0708353000009,895.3043222999986,j,0,2.1221666999990703,None,left,11,"[19, 20, 17, 18, 11]",5,shiftedgaze_L_11.png,j,0,1,results19,001,2026-04-14_14h15.59.219,mogelijke versie adaptive staircase builder,,2026.1.3,59.96393768792599,2026-04-14 14h15.59.495630 +0200,
4.5,ecc10pos,left,15,0,15,f,0,1.9889031999991857,None,0,0,0,0,15,0,15,0,895.4050419999985,,,,,,,,,,,,,,,895.3951091999988,895.4050419999985,895.4050419999985,895.4050419999985,896.3041384999997,897.4043507999995,f,0,1.9889031999991857,None,direct,12,"[19, 20, 17, 18, 11]",5,shifteddirectgaze.png,f,0,1,results19,001,2026-04-14_14h15.59.219,mogelijke versie adaptive staircase builder,,2026.1.3,59.96393768792599,2026-04-14 14h15.59.495630 +0200,
4.5,ecc10pos,left,16,0,16,j,0,2.1620268000006035,None,0,0,0,0,16,0,16,0,897.4880171000004,,,,,,,,,,,,,,,897.4838813999995,897.4880171000004,897.4880171000004,897.4880171000004,898.4043501000015,899.6543352000008,j,0,2.1620268000006035,None,right,13,"[19, 20, 17, 18, 11]",5,shiftedgaze_R_13.png,j,0,1,results19,001,2026-04-14_14h15.59.219,mogelijke versie adaptive staircase builder,,2026.1.3,59.96393768792599,2026-04-14 14h15.59.495630 +0200,
4.5,ecc10pos,left,17,0,17,f,1,1.7606659999983094,None,0,0,0,0,17,0,17,0,899.7457538000017,,,,,,,,,,,,,,,899.7418656000009,899.7457538000017,899.7457538000017,899.7457538000017,900.6541799000006,901.5215108000011,f,1,1.7606659999983094,None,left,14,"[19, 20, 17, 18, 11, 14]",6,shiftedgaze_L_14.png,f,1,1,results19,001,2026-04-14_14h15.59.219,mogelijke versie adaptive staircase builder,,2026.1.3,59.96393768792599,2026-04-14 14h15.59.495630 +0200,
4.5,ecc10pos,left,18,0,18,f,1,1.6634952999993402,None,0,0,0,0,18,0,18,0,901.6185440000008,,,,,,,,,,,,,,,901.6144457000009,901.6185440000008,901.6185440000008,901.6185440000008,902.5210872999996,903.2876924000011,f,1,1.6634952999993402,None,left,13,"[19, 20, 17, 18, 11, 14]",6,shiftedgaze_L_13.png,f,1,1,results19,001,2026-04-14_14h15.59.219,mogelijke versie adaptive staircase builder,,2026.1.3,59.96393768792599,2026-04-14 14h15.59.495630 +0200,
4.5,ecc10pos,left,19,0,19,f,1,2.493300199999794,None,0,0,0,0,19,0,19,0,903.3807498999995,,,,,,,,,,,,,,,903.3766316000001,903.3807498999995,903.3807498999995,903.3807498999995,904.2875662000006,905.887649799999,f,1,2.493300199999794,None,left,12,"[19, 20, 17, 18, 11, 14]",6,shiftedgaze_L_12.png,f,1,1,results19,001,2026-04-14_14h15.59.219,mogelijke versie adaptive staircase builder,,2026.1.3,59.96393768792599,2026-04-14 14h15.59.495630 +0200,
4.5,ecc10pos,left,20,0,20,f,1,2.1935642000025837,None,0,0,0,0,20,0,20,0,905.9925635,,,,,,,,,,,,,,,905.9818771999999,905.9925635,905.9925635,905.9925635,906.8874772999989,908.1886276000005,f,1,2.1935642000025837,None,left,11,"[19, 20, 17, 18, 11, 14]",6,shiftedgaze_L_11.png,f,1,1,results19,001,2026-04-14_14h15.59.219,mogelijke versie adaptive staircase builder,,2026.1.3,59.96393768792599,2026-04-14 14h15.59.495630 +0200,
4.5,ecc10pos,left,21,0,21,f,1,1.5603942000016104,None,0,0,0,0,21,0,21,0,908.2896725999999,,,,,,,,,,,,,,,908.2801823000009,908.2896725999999,908.2896725999999,908.2896725999999,909.2041675,909.8543623000005,f,1,1.5603942000016104,None,left,10,"[19, 20, 17, 18, 11, 14]",6,shiftedgaze_L_10.png,f,1,1,results19,001,2026-04-14_14h15.59.219,mogelijke versie adaptive staircase builder,,2026.1.3,59.96393768792599,2026-04-14 14h15.59.495630 +0200,
4.5,ecc10pos,left,22,0,22,j,0,1.8784278000021004,None,0,0,0,0,22,0,22,0,909.9400126,,,,,,,,,,,,,,,909.9359642000018,909.9400126,909.9400126,909.9400126,910.8540200999996,911.8216071999996,j,0,1.8784278000021004,None,left,9,"[19, 20, 17, 18, 11, 14, 9]",7,shiftedgaze_L_9.png,j,0,1,results19,001,2026-04-14_14h15.59.219,mogelijke versie adaptive staircase builder,,2026.1.3,59.96393768792599,2026-04-14 14h15.59.495630 +0200,
4.5,ecc10pos,left,23,0,23,j,1,1.6649992000020575,None,0,0,0,0,23,0,23,0,911.904965400001,,,,,,,,,,,,,,,911.9007984000018,911.904965400001,911.904965400001,911.904965400001,912.8379894999998,913.5710760000002,j,1,1.6649992000020575,None,direct,10,"[19, 20, 17, 18, 11, 14, 9, 10]",8,shifteddirectgaze.png,j,1,1,results19,001,2026-04-14_14h15.59.219,mogelijke versie adaptive staircase builder,,2026.1.3,59.96393768792599,2026-04-14 14h15.59.495630 +0200,
4.5,ecc10pos,left,24,0,24,f,1,2.337006500001735,None,0,0,0,0,24,0,24,0,913.6650182000012,,,,,,,,,,,,,,,913.6612095000019,913.6650182000012,913.6650182000012,913.6650182000012,914.5713286999999,916.0043532000018,f,1,2.337006500001735,None,right,9,"[19, 20, 17, 18, 11, 14, 9, 10]",8,shiftedgaze_R_9.png,f,1,1,results19,001,2026-04-14_14h15.59.219,mogelijke versie adaptive staircase builder,,2026.1.3,59.96393768792599,2026-04-14 14h15.59.495630 +0200,
4.5,ecc10pos,left,25,0,25,f,1,1.6026391999985208,None,0,0,0,0,25,0,25,0,916.0872883000011,,,,,,,,,,,,,,,916.0832209,916.0872883000011,916.0872883000011,916.0872883000011,917.0040670000017,917.7043131999999,f,1,1.6026391999985208,None,right,8,"[19, 20, 17, 18, 11, 14, 9, 10]",8,shiftedgaze_R_8.png,f,1,1,results19,001,2026-04-14_14h15.59.219,mogelijke versie adaptive staircase builder,,2026.1.3,59.96393768792599,2026-04-14 14h15.59.495630 +0200,
4.5,ecc10pos,left,26,0,26,j,0,1.9977889000001596,None,0,0,0,0,26,0,26,0,917.7962455999987,,,,,,,,,,,,,,,917.7921692999989,917.7962455999987,917.7962455999987,917.7962455999987,918.7041773000019,919.8041677000001,j,0,1.9977889000001596,None,left,7,"[19, 20, 17, 18, 11, 14, 9, 10, 7]",9,shiftedgaze_L_7.png,j,0,1,results19,001,2026-04-14_14h15.59.219,mogelijke versie adaptive staircase builder,,2026.1.3,59.96393768792599,2026-04-14 14h15.59.495630 +0200,
4.5,ecc10pos,left,27,0,27,f,1,1.6664545999992697,None,0,0,0,0,27,0,27,0,919.8888633999995,,,,,,,,,,,,,,,919.8846976999994,919.8888633999995,919.8888633999995,919.8888633999995,920.8041171000004,921.5555697999989,f,1,1.6664545999992697,None,right,8,"[19, 20, 17, 18, 11, 14, 9, 10, 7, 8]",10,shiftedgaze_R_8.png,f,1,1,results19,001,2026-04-14_14h15.59.219,mogelijke versie adaptive staircase builder,,2026.1.3,59.96393768792599,2026-04-14 14h15.59.495630 +0200,
4.5,ecc10pos,left,28,0,28,f,0,1.6089384000006248,None,0,0,0,0,28,0,28,0,921.6414371999999,,,,,,,,,,,,,,,921.6374432000011,921.6414371999999,921.6414371999999,921.6414371999999,922.5708534000005,923.2547082000019,f,0,1.6089384000006248,None,direct,7,"[19, 20, 17, 18, 11, 14, 9, 10, 7, 8, 7]",11,shifteddirectgaze.png,f,0,1,results19,001,2026-04-14_14h15.59.219,mogelijke versie adaptive staircase builder,,2026.1.3,59.96393768792599,2026-04-14 14h15.59.495630 +0200,
4.5,ecc10pos,left,29,0,29,f,0,2.0958816000020306,None,0,0,0,0,29,0,29,0,923.3381767999999,,,,,,,,,,,,,,,923.3341271999998,923.3381767999999,923.3381767999999,923.3381767999999,924.2540855000007,925.4378246000015,f,0,2.0958816000020306,None,direct,8,"[19, 20, 17, 18, 11, 14, 9, 10, 7, 8, 7]",11,shifteddirectgaze.png,f,0,1,results19,001,2026-04-14_14h15.59.219,mogelijke versie adaptive staircase builder,,2026.1.3,59.96393768792599,2026-04-14 14h15.59.495630 +0200,
4.5,ecc10pos,left,30,0,30,f,1,1.874723200002336,None,0,0,0,0,30,0,30,0,925.5353127000017,,,,,,,,,,,,,,,925.5309576,925.5353127000017,925.5353127000017,925.5353127000017,926.4375392000002,927.4211399999986,f,1,1.874723200002336,None,left,9,"[19, 20, 17, 18, 11, 14, 9, 10, 7, 8, 7, 9]",12,shiftedgaze_L_9.png,f,1,1,results19,001,2026-04-14_14h15.59.219,mogelijke versie adaptive staircase builder,,2026.1.3,59.96393768792599,2026-04-14 14h15.59.495630 +0200,
4.5,ecc10pos,left,31,0,31,f,0,1.7088860000003478,None,0,0,0,0,31,0,31,0,927.5171526999984,,,,,,,,,,,,,,,927.5129631999989,927.5171526999984,927.5171526999984,927.5171526999984,928.420829499999,929.2378868000014,f,0,1.7088860000003478,None,direct,8,"[19, 20, 17, 18, 11, 14, 9, 10, 7, 8, 7, 9, 8]",13,shifteddirectgaze.png,f,0,1,results19,001,2026-04-14_14h15.59.219,mogelijke versie adaptive staircase builder,,2026.1.3,59.96393768792599,2026-04-14 14h15.59.495630 +0200,
4.5,ecc10pos,left,32,0,32,j,0,1.6751615000030142,None,0,0,0,0,32,0,32,0,929.3348522999986,,,,,,,,,,,,,,,929.3306072000014,929.3348522999986,929.3348522999986,929.3348522999986,930.2375102000005,931.0212180000017,j,0,1.6751615000030142,None,left,9,"[19, 20, 17, 18, 11, 14, 9, 10, 7, 8, 7, 9, 8]",13,shiftedgaze_L_9.png,j,0,1,results19,001,2026-04-14_14h15.59.219,mogelijke versie adaptive staircase builder,,2026.1.3,59.96393768792599,2026-04-14 14h15.59.495630 +0200,
4.5,ecc10pos,left,33,0,33,f,1,1.6940008000019589,None,0,0,0,0,33,0,33,0,931.1164208000009,,,,,,,,,,,,,,,931.1122576000016,931.1164208000009,931.1164208000009,931.1164208000009,932.0209533000016,932.8216151000015,f,1,1.6940008000019589,None,right,10,"[19, 20, 17, 18, 11, 14, 9, 10, 7, 8, 7, 9, 8, 10]",14,shiftedgaze_R_10.png,f,1,1,results19,001,2026-04-14_14h15.59.219,mogelijke versie adaptive staircase builder,,2026.1.3,59.96393768792599,2026-04-14 14h15.59.495630 +0200,
4.5,ecc10pos,left,34,0,34,f,1,1.8175702000007732,None,0,0,0,0,34,0,34,0,932.9044799000003,,,,,,,,,,,,,,,932.9004850000019,932.9044799000003,932.9044799000003,932.9044799000003,933.8375345999993,934.7377301999986,f,1,1.8175702000007732,None,left,9,"[19, 20, 17, 18, 11, 14, 9, 10, 7, 8, 7, 9, 8, 10]",14,shiftedgaze_L_9.png,f,1,1,results19,001,2026-04-14_14h15.59.219,mogelijke versie adaptive staircase builder,,2026.1.3,59.96393768792599,2026-04-14 14h15.59.495630 +0200,
4.5,ecc10pos,left,35,0,35,j,0,1.8848983999996562,None,0,0,0,0,35,0,35,0,934.829150900001,,,,,,,,,,,,,,,934.8249666000011,934.829150900001,934.829150900001,934.829150900001,935.737511700001,936.7211750999995,j,0,1.8848983999996562,None,left,8,"[19, 20, 17, 18, 11, 14, 9, 10, 7, 8, 7, 9, 8, 10, 8]",15,shiftedgaze_L_8.png,j,0,1,results19,001,2026-04-14_14h15.59.219,mogelijke versie adaptive staircase builder,,2026.1.3,59.96393768792599,2026-04-14 14h15.59.495630 +0200,
4.5,ecc10pos,left,36,0,36,f,1,1.9698843000005581,None,0,0,0,0,36,0,36,0,936.8167304999988,,,,,,,,,,,,,,,936.8123667,936.8167304999988,936.8167304999988,936.8167304999988,937.7210003,938.7885222000004,f,1,1.9698843000005581,None,right,9,"[19, 20, 17, 18, 11, 14, 9, 10, 7, 8, 7, 9, 8, 10, 8, 9]",16,shiftedgaze_R_9.png,f,1,1,results19,001,2026-04-14_14h15.59.219,mogelijke versie adaptive staircase builder,,2026.1.3,59.96393768792599,2026-04-14 14h15.59.495630 +0200,
4.5,ecc10pos,left,37,0,37,f,0,1.8495865000004414,None,0,0,0,0,37,0,37,0,938.872492800001,,,,,,,,,,,,,,,938.8683091999992,938.872492800001,938.872492800001,938.872492800001,939.8045248000017,940.7381739000011,f,0,1.8495865000004414,None,direct,8,"[19, 20, 17, 18, 11, 14, 9, 10, 7, 8, 7, 9, 8, 10, 8, 9, 8]",17,shifteddirectgaze.png,f,0,1,results19,001,2026-04-14_14h15.59.219,mogelijke versie adaptive staircase builder,,2026.1.3,59.96393768792599,2026-04-14 14h15.59.495630 +0200,
4.5,ecc10pos,left,38,0,38,f,1,2.2171133999981976,None,0,0,0,0,38,0,38,0,940.8253972999992,,,,,,,,,,,,,,,940.8215224999985,940.8253972999992,940.8253972999992,940.8253972999992,941.7538993000016,943.0545024999992,f,1,2.2171133999981976,None,left,9,"[19, 20, 17, 18, 11, 14, 9, 10, 7, 8, 7, 9, 8, 10, 8, 9, 8, 9]",18,shiftedgaze_L_9.png,f,1,1,results19,001,2026-04-14_14h15.59.219,mogelijke versie adaptive staircase builder,,2026.1.3,59.96393768792599,2026-04-14 14h15.59.495630 +0200,
4.5,ecc10pos,left,39,0,39,f,1,1.6797710999999254,None,0,0,0,0,39,0,39,0,943.1383540999996,,,,,,,,,,,,,,,943.1343975000018,943.1383540999996,943.1383540999996,943.1383540999996,944.0538889999989,944.8209155000004,f,1,1.6797710999999254,None,left,8,"[19, 20, 17, 18, 11, 14, 9, 10, 7, 8, 7, 9, 8, 10, 8, 9, 8, 9]",18,shiftedgaze_L_8.png,f,1,1,results19,001,2026-04-14_14h15.59.219,mogelijke versie adaptive staircase builder,,2026.1.3,59.96393768792599,2026-04-14 14h15.59.495630 +0200,
4.5,ecc10pos,left,40,0,40,f,1,1.7367478000014671,None,0,0,0,0,40,0,40,0,944.9053365,,,,,,,,,,,,,,,944.9013250999997,944.9053365,944.9053365,944.9053365,945.8209978999985,946.6541652999986,f,1,1.7367478000014671,None,left,7,"[19, 20, 17, 18, 11, 14, 9, 10, 7, 8, 7, 9, 8, 10, 8, 9, 8, 9]",18,shiftedgaze_L_7.png,f,1,1,results19,001,2026-04-14_14h15.59.219,mogelijke versie adaptive staircase builder,,2026.1.3,59.96393768792599,2026-04-14 14h15.59.495630 +0200,
4.5,ecc10pos,left,41,0,41,f,1,1.3605632999970112,None,0,0,0,0,41,0,41,0,946.7379485999991,,,,,,,,,,,,,,,946.7339849999989,946.7379485999991,946.7379485999991,946.7379485999991,947.6545158000008,948.1046892000013,f,1,1.3605632999970112,None,left,6,"[19, 20, 17, 18, 11, 14, 9, 10, 7, 8, 7, 9, 8, 10, 8, 9, 8, 9]",18,shiftedgaze_L_6.png,f,1,1,results19,001,2026-04-14_14h15.59.219,mogelijke versie adaptive staircase builder,,2026.1.3,59.96393768792599,2026-04-14 14h15.59.495630 +0200,
4.5,ecc10pos,left,42,0,42,f,1,2.0138310000002093,None,0,0,0,0,42,0,42,0,948.1962994999994,,,,,,,,,,,,,,,948.1923287999998,948.1962994999994,948.1962994999994,948.1962994999994,949.1045215999984,950.2209139000006,f,1,2.0138310000002093,None,right,5,"[19, 20, 17, 18, 11, 14, 9, 10, 7, 8, 7, 9, 8, 10, 8, 9, 8, 9]",18,shiftedgaze_R_5.png,f,1,1,results19,001,2026-04-14_14h15.59.219,mogelijke versie adaptive staircase builder,,2026.1.3,59.96393768792599,2026-04-14 14h15.59.495630 +0200,
4.5,ecc10pos,left,43,0,43,j,0,1.76111149999997,None,0,0,0,0,43,0,43,0,950.3053451000014,,,,,,,,,,,,,,,950.3013218000015,950.3053451000014,950.3053451000014,950.3053451000014,951.2212643999992,952.071528299999,j,0,1.76111149999997,None,right,4,"[19, 20, 17, 18, 11, 14, 9, 10, 7, 8, 7, 9, 8, 10, 8, 9, 8, 9, 4]",19,shiftedgaze_R_4.png,j,0,1,results19,001,2026-04-14_14h15.59.219,mogelijke versie adaptive staircase builder,,2026.1.3,59.96393768792599,2026-04-14 14h15.59.495630 +0200,
4.5,ecc10pos,left,44,0,44,f,1,2.5185985999996774,None,0,0,0,0,44,0,44,0,952.1555168000014,,,,,,,,,,,,,,,952.1514883000018,952.1555168000014,952.1555168000014,952.1555168000014,953.0712529000011,954.687541700001,f,1,2.5185985999996774,None,right,5,"[19, 20, 17, 18, 11, 14, 9, 10, 7, 8, 7, 9, 8, 10, 8, 9, 8, 9, 4, 5]",20,shiftedgaze_R_5.png,f,1,1,results19,001,2026-04-14_14h15.59.219,mogelijke versie adaptive staircase builder,,2026.1.3,59.96393768792599,2026-04-14 14h15.59.495630 +0200,
4.5,ecc10pos,left,45,0,45,j,1,2.038292299999739,None,0,0,0,0,45,0,45,0,954.7721829000002,,,,,,,,,,,,,,,954.7680637000012,954.7721829000002,954.7721829000002,954.7721829000002,955.6876204,956.8215844000006,j,1,2.038292299999739,None,direct,4,"[19, 20, 17, 18, 11, 14, 9, 10, 7, 8, 7, 9, 8, 10, 8, 9, 8, 9, 4, 5]",20,shifteddirectgaze.png,j,1,1,results19,001,2026-04-14_14h15.59.219,mogelijke versie adaptive staircase builder,,2026.1.3,59.96393768792599,2026-04-14 14h15.59.495630 +0200,
4.5,ecc10pos,left,46,0,46,f,0,1.9360186999983853,None,0,0,0,0,46,0,46,0,956.9064480999987,,,,,,,,,,,,,,,956.9025949999996,956.9064480999987,956.9064480999987,956.9064480999987,957.8374928000012,958.8547930999994,f,0,1.9360186999983853,None,direct,3,"[19, 20, 17, 18, 11, 14, 9, 10, 7, 8, 7, 9, 8, 10, 8, 9, 8, 9, 4, 5, 3]",21,shifteddirectgaze.png,f,0,1,results19,001,2026-04-14_14h15.59.219,mogelijke versie adaptive staircase builder,,2026.1.3,59.96393768792599,2026-04-14 14h15.59.495630 +0200,
4.5,ecc10pos,left,47,0,47,f,1,1.9111860000011802,None,0,0,0,0,47,0,47,0,958.9392995000017,,,,,,,,,,,,,,,958.9351199000012,958.9392995000017,958.9392995000017,958.9392995000017,959.8539354999994,960.8547666999984,f,1,1.9111860000011802,None,right,4,"[19, 20, 17, 18, 11, 14, 9, 10, 7, 8, 7, 9, 8, 10, 8, 9, 8, 9, 4, 5, 3, 4]",22,shiftedgaze_R_4.png,f,1,1,results19,001,2026-04-14_14h15.59.219,mogelijke versie adaptive staircase builder,,2026.1.3,59.96393768792599,2026-04-14 14h15.59.495630 +0200,
4.5,ecc10pos,left,48,0,48,j,1,1.750520300000062,None,0,0,0,0,48,0,48,0,960.9399346999999,,,,,,,,,,,,,,,960.9359289999993,960.9399346999999,960.9399346999999,960.9399346999999,961.8545306999986,962.7049007999995,j,1,1.750520300000062,None,direct,3,"[19, 20, 17, 18, 11, 14, 9, 10, 7, 8, 7, 9, 8, 10, 8, 9, 8, 9, 4, 5, 3, 4]",22,shifteddirectgaze.png,j,1,1,results19,001,2026-04-14_14h15.59.219,mogelijke versie adaptive staircase builder,,2026.1.3,59.96393768792599,2026-04-14 14h15.59.495630 +0200,
4.5,ecc10pos,left,49,0,49,f,1,1.637297799999942,None,0,0,0,0,49,0,49,0,962.7888033000017,,,,,,,,,,,,,,,962.7849152999988,962.7888033000017,962.7888033000017,962.7888033000017,963.7207328000004,964.4375738999988,f,1,1.637297799999942,None,right,2,"[19, 20, 17, 18, 11, 14, 9, 10, 7, 8, 7, 9, 8, 10, 8, 9, 8, 9, 4, 5, 3, 4]",22,shiftedgaze_R_2.png,f,1,1,results19,001,2026-04-14_14h15.59.219,mogelijke versie adaptive staircase builder,,2026.1.3,59.96393768792599,2026-04-14 14h15.59.495630 +0200,
4.5,ecc10pos,left,50,0,50,f,1,2.136834799999633,None,0,0,0,0,50,0,50,0,964.5216934000018,,,,,,,,,,,,,,,964.5177881999989,964.5216934000018,964.5216934000018,964.5216934000018,965.437382600001,966.671170900001,f,1,2.136834799999633,None,right,1,"[19, 20, 17, 18, 11, 14, 9, 10, 7, 8, 7, 9, 8, 10, 8, 9, 8, 9, 4, 5, 3, 4]",22,shiftedgaze_R_1.png,f,1,1,results19,001,2026-04-14_14h15.59.219,mogelijke versie adaptive staircase builder,,2026.1.3,59.96393768792599,2026-04-14 14h15.59.495630 +0200,
4.5,ecc10pos,left,51,0,51,j,0,1.7828774000008707,None,0,0,0,0,51,0,51,0,966.7552529999994,,,,,,,,,,,,,,,966.7512134999997,966.7552529999994,966.7552529999994,966.7552529999994,967.6712164000019,968.5385654999991,j,0,1.7828774000008707,None,left,1,"[19, 20, 17, 18, 11, 14, 9, 10, 7, 8, 7, 9, 8, 10, 8, 9, 8, 9, 4, 5, 3, 4, 0]",23,shiftedgaze_L_1.png,j,0,1,results19,001,2026-04-14_14h15.59.219,mogelijke versie adaptive staircase builder,,2026.1.3,59.96393768792599,2026-04-14 14h15.59.495630 +0200,
4.5,ecc10pos,left,52,0,52,f,0,2.0746244000001752,None,0,0,0,0,52,0,52,0,968.6238761999994,,,,,,,,,,,,,,,968.6197797999994,968.6238761999994,968.6238761999994,968.6238761999994,969.5546653999991,970.7048630999998,f,0,2.0746244000001752,None,direct,1,"[19, 20, 17, 18, 11, 14, 9, 10, 7, 8, 7, 9, 8, 10, 8, 9, 8, 9, 4, 5, 3, 4, 0]",23,shifteddirectgaze.png,f,0,1,results19,001,2026-04-14_14h15.59.219,mogelijke versie adaptive staircase builder,,2026.1.3,59.96393768792599,2026-04-14 14h15.59.495630 +0200,
4.5,ecc10pos,left,53,0,53,f,1,1.2816841000021668,None,0,0,0,0,53,0,53,0,971.1683456999999,,,,,,,,,,,,,,,971.1642885000001,971.1683456999999,971.1683456999999,971.1683456999999,971.7206716000001,972.4542594000013,f,1,1.2816841000021668,None,left,2,"[19, 20, 17, 18, 11, 14, 9, 10, 7, 8, 7, 9, 8, 10, 8, 9, 8, 9, 4, 5, 3, 4, 0, 2]",24,shiftedgaze_L_2.png,f,1,1,results19,001,2026-04-14_14h15.59.219,mogelijke versie adaptive staircase builder,,2026.1.3,59.96393768792599,2026-04-14 14h15.59.495630 +0200,
4.5,ecc10pos,left,54,0,54,j,0,1.8963105000002543,None,0,0,0,0,54,0,54,0,972.5377393999988,,,,,,,,,,,,,,,972.5338024000012,972.5377393999988,972.5377393999988,972.5377393999988,973.4543054999995,974.4375470999985,j,0,1.8963105000002543,None,left,1,"[19, 20, 17, 18, 11, 14, 9, 10, 7, 8, 7, 9, 8, 10, 8, 9, 8, 9, 4, 5, 3, 4, 0, 2, 1]",25,shiftedgaze_L_1.png,j,0,1,results19,001,2026-04-14_14h15.59.219,mogelijke versie adaptive staircase builder,,2026.1.3,59.96393768792599,2026-04-14 14h15.59.495630 +0200,
4.5,ecc10pos,left,55,0,55,j,0,1.753262199999881,None,0,0,0,0,55,0,55,0,974.5211885999997,,,,,,,,,,,,,,,974.5171786999999,974.5211885999997,974.5211885999997,974.5211885999997,975.4373304000001,976.2882026000007,j,0,1.753262199999881,None,right,2,"[19, 20, 17, 18, 11, 14, 9, 10, 7, 8, 7, 9, 8, 10, 8, 9, 8, 9, 4, 5, 3, 4, 0, 2, 1]",25,shiftedgaze_R_2.png,j,0,1,results19,001,2026-04-14_14h15.59.219,mogelijke versie adaptive staircase builder,,2026.1.3,59.96393768792599,2026-04-14 14h15.59.495630 +0200,
4.5,ecc10pos,left,56,0,56,j,0,2.013348800002859,None,0,0,0,0,56,0,56,0,976.3728626000011,,,,,,,,,,,,,,,976.3689856000019,976.3728626000011,976.3728626000011,976.3728626000011,977.2875640999991,978.3878355000015,j,0,2.013348800002859,None,left,3,"[19, 20, 17, 18, 11, 14, 9, 10, 7, 8, 7, 9, 8, 10, 8, 9, 8, 9, 4, 5, 3, 4, 0, 2, 1]",25,shiftedgaze_L_3.png,j,0,1,results19,001,2026-04-14_14h15.59.219,mogelijke versie adaptive staircase builder,,2026.1.3,59.96393768792599,2026-04-14 14h15.59.495630 +0200,
4.5,ecc10pos,left,57,0,57,j,1,1.842126499999722,None,0,0,0,0,57,0,57,0,978.4720382000014,,,,,,,,,,,,,,,978.4678888999988,978.4720382000014,978.4720382000014,978.4720382000014,979.3874132000019,980.3208563000007,j,1,1.842126499999722,None,direct,4,"[19, 20, 17, 18, 11, 14, 9, 10, 7, 8, 7, 9, 8, 10, 8, 9, 8, 9, 4, 5, 3, 4, 0, 2, 1, 4]",26,shifteddirectgaze.png,j,1,1,results19,001,2026-04-14_14h15.59.219,mogelijke versie adaptive staircase builder,,2026.1.3,59.96393768792599,2026-04-14 14h15.59.495630 +0200,
4.5,ecc10pos,left,58,0,58,j,0,1.8311027999989165,None,0,0,0,0,58,0,58,0,980.4193492999984,,,,,,,,,,,,,,,980.415011699999,980.4193492999984,980.4193492999984,980.4193492999984,981.3207464000006,982.2546853999993,j,0,1.8311027999989165,None,right,3,"[19, 20, 17, 18, 11, 14, 9, 10, 7, 8, 7, 9, 8, 10, 8, 9, 8, 9, 4, 5, 3, 4, 0, 2, 1, 4, 3]",27,shiftedgaze_R_3.png,j,0,1,results19,001,2026-04-14_14h15.59.219,mogelijke versie adaptive staircase builder,,2026.1.3,59.96393768792599,2026-04-14 14h15.59.495630 +0200,
4.5,ecc10pos,left,59,0,59,f,1,1.6795988000012585,None,0,0,0,0,59,0,59,0,982.3387040999987,,,,,,,,,,,,,,,982.3344847000008,982.3387040999987,982.3387040999987,982.3387040999987,983.2545778999993,984.021542800001,f,1,1.6795988000012585,None,left,4,"[19, 20, 17, 18, 11, 14, 9, 10, 7, 8, 7, 9, 8, 10, 8, 9, 8, 9, 4, 5, 3, 4, 0, 2, 1, 4, 3, 4]",28,shiftedgaze_L_4.png,f,1,1,results19,001,2026-04-14_14h15.59.219,mogelijke versie adaptive staircase builder,,2026.1.3,59.96393768792599,2026-04-14 14h15.59.495630 +0200,
4.5,ecc10pos,left,0,0,0,,,,,0,0,0,0,,,,,,,,,,,,,,,,,,,,,,,,,,,,,,,,,,,,,,results19,001,2026-04-14_14h15.59.219,mogelijke versie adaptive staircase builder,,2026.1.3,59.96393768792599,2026-04-14 14h15.59.495630 +0200,
12.5,ecc0,mid,0,0,0,j,0,1.9326280999994196,None,0,1,1,1,0,0,0,0,984.1178892999997,,,,,,,,,,,,,984.0238938000002,984.0239207999985,984.1137533000001,984.1178892999997,985.0378505000008,984.1178892999997,984.1178892999997,986.0546285000019,j,0,1.9326280999994196,None,right,20,[],0,gaze_R_20.png,j,0,2,results19,001,2026-04-14_14h15.59.219,mogelijke versie adaptive staircase builder,,2026.1.3,59.96393768792599,2026-04-14 14h15.59.495630 +0200,
12.5,ecc0,mid,1,0,1,f,1,2.102985900000931,None,0,1,1,1,1,0,1,0,986.1394048000002,,,,,,,,,,,,,,,986.1354709000007,986.1394048000002,987.0545582999985,986.1394048000002,986.1394048000002,988.2546497000003,f,1,2.102985900000931,None,right,20,[20],1,gaze_R_20.png,f,1,2,results19,001,2026-04-14_14h15.59.219,mogelijke versie adaptive staircase builder,,2026.1.3,59.96393768792599,2026-04-14 14h15.59.495630 +0200,
12.5,ecc0,mid,2,0,2,j,0,1.6074186000005284,None,0,1,1,1,2,0,2,0,988.3387418999991,,,,,,,,,,,,,,,988.3347186999999,988.3387418999991,989.2541749000011,988.3387418999991,988.3387418999991,989.9545446000011,j,0,1.6074186000005284,None,left,19,"[20, 19]",2,gaze_L_19.png,j,0,2,results19,001,2026-04-14_14h15.59.219,mogelijke versie adaptive staircase builder,,2026.1.3,59.96393768792599,2026-04-14 14h15.59.495630 +0200,
12.5,ecc0,mid,3,0,3,f,0,1.7912560000004305,None,0,1,1,1,3,0,3,0,990.0431815000011,,,,,,,,,,,,,,,990.0391479999998,990.0431815000011,990.954393,990.0431815000011,990.0431815000011,991.8380631,f,0,1.7912560000004305,None,direct,20,"[20, 19]",2,direct_gaze.png,f,0,2,results19,001,2026-04-14_14h15.59.219,mogelijke versie adaptive staircase builder,,2026.1.3,59.96393768792599,2026-04-14 14h15.59.495630 +0200,
12.5,ecc0,mid,4,0,4,j,0,1.570047400000476,None,0,1,1,1,4,0,4,0,991.9284168000013,,,,,,,,,,,,,,,991.9246320999991,991.9284168000013,992.8378978000001,991.9284168000013,991.9284168000013,993.5048096999999,j,0,1.570047400000476,None,left,20,"[20, 19]",2,gaze_L_20.png,j,0,2,results19,001,2026-04-14_14h15.59.219,mogelijke versie adaptive staircase builder,,2026.1.3,59.96393768792599,2026-04-14 14h15.59.495630 +0200,
12.5,ecc0,mid,5,0,5,f,1,1.624730499999714,None,0,1,1,1,5,0,5,0,993.5935787000017,,,,,,,,,,,,,,,993.5885856999994,993.5935787000017,994.5045647000006,993.5935787000017,993.5935787000017,995.2210760999988,f,1,1.624730499999714,None,left,20,"[20, 19, 20]",3,gaze_L_20.png,f,1,2,results19,001,2026-04-14_14h15.59.219,mogelijke versie adaptive staircase builder,,2026.1.3,59.96393768792599,2026-04-14 14h15.59.495630 +0200,
12.5,ecc0,mid,6,0,6,j,0,2.6593656000004557,None,0,1,1,1,6,0,6,0,995.3030760000001,,,,,,,,,,,,,,,995.2993610000012,995.3030760000001,996.2212271999997,995.3030760000001,995.3030760000001,997.9714526999996,j,0,2.6593656000004557,None,right,19,"[20, 19, 20, 19]",4,gaze_R_19.png,j,0,2,results19,001,2026-04-14_14h15.59.219,mogelijke versie adaptive staircase builder,,2026.1.3,59.96393768792599,2026-04-14 14h15.59.495630 +0200,
12.5,ecc0,mid,7,0,7,f,0,1.8841057000026922,None,0,1,1,1,7,0,7,0,998.0538312999997,,,,,,,,,,,,,,,998.0496942999998,998.0538312999997,998.9710559999985,998.0538312999997,998.0538312999997,999.9544548999984,f,0,1.8841057000026922,None,direct,20,"[20, 19, 20, 19]",4,direct_gaze.png,f,0,2,results19,001,2026-04-14_14h15.59.219,mogelijke versie adaptive staircase builder,,2026.1.3,59.96393768792599,2026-04-14 14h15.59.495630 +0200,
12.5,ecc0,mid,8,0,8,f,1,1.8517708999970637,None,0,1,1,1,8,0,8,0,1000.0383217000017,,,,,,,,,,,,,,,1000.0342980999994,1000.0383217000017,1000.9546828999992,1000.0383217000017,1000.0383217000017,1001.9050888999991,f,1,1.8517708999970637,None,left,20,"[20, 19, 20, 19, 20]",5,gaze_L_20.png,f,1,2,results19,001,2026-04-14_14h15.59.219,mogelijke versie adaptive staircase builder,,2026.1.3,59.96393768792599,2026-04-14 14h15.59.495630 +0200,
12.5,ecc0,mid,9,0,9,f,1,1.8451357999983884,None,0,1,1,1,9,0,9,0,1001.9891296999995,,,,,,,,,,,,,,,1001.9847961999985,1001.9891296999995,1002.9044828000006,1001.9891296999995,1001.9891296999995,1003.8383402,f,1,1.8451357999983884,None,right,19,"[20, 19, 20, 19, 20]",5,gaze_R_19.png,f,1,2,results19,001,2026-04-14_14h15.59.219,mogelijke versie adaptive staircase builder,,2026.1.3,59.96393768792599,2026-04-14 14h15.59.495630 +0200,
12.5,ecc0,mid,10,0,10,j,1,1.855731999999989,None,0,1,1,1,10,0,10,0,1003.9224672000018,,,,,,,,,,,,,,,1003.9184731999994,1003.9224672000018,1004.8542164999999,1003.9224672000018,1003.9224672000018,1005.7883442999992,j,1,1.855731999999989,None,direct,18,"[20, 19, 20, 19, 20]",5,direct_gaze.png,j,1,2,results19,001,2026-04-14_14h15.59.219,mogelijke versie adaptive staircase builder,,2026.1.3,59.96393768792599,2026-04-14 14h15.59.495630 +0200,
12.5,ecc0,mid,11,0,11,j,0,1.7618796999995538,None,0,1,1,1,11,0,11,0,1005.8800004000004,,,,,,,,,,,,,,,1005.8758005000018,1005.8800004000004,1006.8043187000003,1005.8800004000004,1005.8800004000004,1007.6543956999994,j,0,1.7618796999995538,None,right,17,"[20, 19, 20, 19, 20, 17]",6,gaze_R_17.png,j,0,2,results19,001,2026-04-14_14h15.59.219,mogelijke versie adaptive staircase builder,,2026.1.3,59.96393768792599,2026-04-14 14h15.59.495630 +0200,
12.5,ecc0,mid,12,0,12,j,0,1.7055862000015622,None,0,1,1,1,12,0,12,0,1007.7364124999986,,,,,,,,,,,,,,,1007.7325046000005,1007.7364124999986,1008.6542248000005,1007.7364124999986,1007.7364124999986,1009.4543443000002,j,0,1.7055862000015622,None,right,18,"[20, 19, 20, 19, 20, 17]",6,gaze_R_18.png,j,0,2,results19,001,2026-04-14_14h15.59.219,mogelijke versie adaptive staircase builder,,2026.1.3,59.96393768792599,2026-04-14 14h15.59.495630 +0200,
12.5,ecc0,mid,13,0,13,f,0,1.5761215999991691,None,0,1,1,1,13,0,13,0,1009.5379272999999,,,,,,,,,,,,,,,1009.5338593000015,1009.5379272999999,1010.4544075000013,1009.5379272999999,1009.5379272999999,1011.1210171999992,f,0,1.5761215999991691,None,direct,19,"[20, 19, 20, 19, 20, 17]",6,direct_gaze.png,f,0,2,results19,001,2026-04-14_14h15.59.219,mogelijke versie adaptive staircase builder,,2026.1.3,59.96393768792599,2026-04-14 14h15.59.495630 +0200,
12.5,ecc0,mid,14,0,14,j,0,1.5088782999991963,None,0,1,1,1,14,0,14,0,1011.2053072999988,,,,,,,,,,,,,,,1011.2013049999987,1011.2053072999988,1012.1213485000007,1011.2053072999988,1011.2053072999988,1012.7212749999999,j,0,1.5088782999991963,None,right,20,"[20, 19, 20, 19, 20, 17]",6,gaze_R_20.png,j,0,2,results19,001,2026-04-14_14h15.59.219,mogelijke versie adaptive staircase builder,,2026.1.3,59.96393768792599,2026-04-14 14h15.59.495630 +0200,
12.5,ecc0,mid,15,0,15,f,1,1.9745406000001822,None,0,1,1,1,15,0,15,0,1012.8034915999997,,,,,,,,,,,,,,,1012.7994306,1012.8034915999997,1013.7209333999999,1012.8034915999997,1012.8034915999997,1014.7883535000001,f,1,1.9745406000001822,None,right,20,"[20, 19, 20, 19, 20, 17, 20]",7,gaze_R_20.png,f,1,2,results19,001,2026-04-14_14h15.59.219,mogelijke versie adaptive staircase builder,,2026.1.3,59.96393768792599,2026-04-14 14h15.59.495630 +0200,
12.5,ecc0,mid,16,0,16,f,0,1.7453129999994417,None,0,1,1,1,16,0,16,0,1014.8727418000017,,,,,,,,,,,,,,,1014.8687051999987,1014.8727418000017,1015.7879232999985,1014.8727418000017,1014.8727418000017,1016.6215086000011,f,0,1.7453129999994417,None,direct,19,"[20, 19, 20, 19, 20, 17, 20, 19]",8,direct_gaze.png,f,0,2,results19,001,2026-04-14_14h15.59.219,mogelijke versie adaptive staircase builder,,2026.1.3,59.96393768792599,2026-04-14 14h15.59.495630 +0200,
12.5,ecc0,mid,17,0,17,f,1,1.6347661999971024,None,0,1,1,1,17,0,17,0,1016.7194173999997,,,,,,,,,,,,,,,1016.7142741999996,1016.7194173999997,1017.6373636999997,1016.7194173999997,1016.7194173999997,1018.3546701999985,f,1,1.6347661999971024,None,right,20,"[20, 19, 20, 19, 20, 17, 20, 19, 20]",9,gaze_R_20.png,f,1,2,results19,001,2026-04-14_14h15.59.219,mogelijke versie adaptive staircase builder,,2026.1.3,59.96393768792599,2026-04-14 14h15.59.495630 +0200,
12.5,ecc0,mid,18,0,18,f,1,1.7772040999989258,None,0,1,1,1,18,0,18,0,1018.4488367000013,,,,,,,,,,,,,,,1018.4448478999984,1018.4488367000013,1019.354054200001,1018.4488367000013,1018.4488367000013,1020.2380946000012,f,1,1.7772040999989258,None,right,19,"[20, 19, 20, 19, 20, 17, 20, 19, 20]",9,gaze_R_19.png,f,1,2,results19,001,2026-04-14_14h15.59.219,mogelijke versie adaptive staircase builder,,2026.1.3,59.96393768792599,2026-04-14 14h15.59.495630 +0200,
12.5,ecc0,mid,19,0,19,j,1,1.9156709000017145,None,0,1,1,1,19,0,19,0,1020.3342627999991,,,,,,,,,,,,,,,1020.3298867000012,1020.3342627999991,1021.2377175000001,1020.3342627999991,1020.3342627999991,1022.2544998000012,j,1,1.9156709000017145,None,direct,18,"[20, 19, 20, 19, 20, 17, 20, 19, 20]",9,direct_gaze.png,j,1,2,results19,001,2026-04-14_14h15.59.219,mogelijke versie adaptive staircase builder,,2026.1.3,59.96393768792599,2026-04-14 14h15.59.495630 +0200,
12.5,ecc0,mid,20,0,20,j,1,1.6619701000017812,None,0,1,1,1,20,0,20,0,1022.3480430000018,,,,,,,,,,,,,,,1022.3440460999991,1022.3480430000018,1023.2541946000019,1022.3480430000018,1022.3480430000018,1024.0213752000018,j,1,1.6619701000017812,None,direct,17,"[20, 19, 20, 19, 20, 17, 20, 19, 20]",9,direct_gaze.png,j,1,2,results19,001,2026-04-14_14h15.59.219,mogelijke versie adaptive staircase builder,,2026.1.3,59.96393768792599,2026-04-14 14h15.59.495630 +0200,
12.5,ecc0,mid,21,0,21,f,1,1.884344099998998,None,0,1,1,1,21,0,21,0,1024.1177398,,,,,,,,,,,,,,,1024.113700599999,1024.1177398,1025.020978200002,1024.1177398,1024.1177398,1026.0047968,f,1,1.884344099998998,None,left,16,"[20, 19, 20, 19, 20, 17, 20, 19, 20]",9,gaze_L_16.png,f,1,2,results19,001,2026-04-14_14h15.59.219,mogelijke versie adaptive staircase builder,,2026.1.3,59.96393768792599,2026-04-14 14h15.59.495630 +0200,
12.5,ecc0,mid,22,0,22,j,1,1.918949099999736,None,0,1,1,1,22,0,22,0,1026.0994925000014,,,,,,,,,,,,,,,1026.0954395000008,1026.0994925000014,1027.0043831000003,1026.0994925000014,1026.0994925000014,1028.0216363,j,1,1.918949099999736,None,direct,15,"[20, 19, 20, 19, 20, 17, 20, 19, 20]",9,direct_gaze.png,j,1,2,results19,001,2026-04-14_14h15.59.219,mogelijke versie adaptive staircase builder,,2026.1.3,59.96393768792599,2026-04-14 14h15.59.495630 +0200,
12.5,ecc0,mid,23,0,23,j,0,1.722942199998215,None,0,1,1,1,23,0,23,0,1028.1110025999988,,,,,,,,,,,,,,,1028.107011,1028.1110025999988,1029.0374994999984,1028.1110025999988,1028.1110025999988,1029.8379657000005,j,0,1.722942199998215,None,right,14,"[20, 19, 20, 19, 20, 17, 20, 19, 20, 14]",10,gaze_R_14.png,j,0,2,results19,001,2026-04-14_14h15.59.219,mogelijke versie adaptive staircase builder,,2026.1.3,59.96393768792599,2026-04-14 14h15.59.495630 +0200,
12.5,ecc0,mid,24,0,24,j,1,1.91374359999827,None,0,1,1,1,24,0,24,0,1029.9206855000011,,,,,,,,,,,,,,,1029.9165060000014,1029.9206855000011,1030.8375749000006,1029.9206855000011,1029.9206855000011,1031.8382391999985,j,1,1.91374359999827,None,direct,15,"[20, 19, 20, 19, 20, 17, 20, 19, 20, 14, 15]",11,direct_gaze.png,j,1,2,results19,001,2026-04-14_14h15.59.219,mogelijke versie adaptive staircase builder,,2026.1.3,59.96393768792599,2026-04-14 14h15.59.495630 +0200,
12.5,ecc0,mid,25,0,25,j,1,1.7776751999990665,None,0,1,1,1,25,0,25,0,1031.9203745000013,,,,,,,,,,,,,,,1031.9163687,1031.9203745000013,1032.8542103,1031.9203745000013,1031.9203745000013,1033.7043716000007,j,1,1.7776751999990665,None,direct,14,"[20, 19, 20, 19, 20, 17, 20, 19, 20, 14, 15]",11,direct_gaze.png,j,1,2,results19,001,2026-04-14_14h15.59.219,mogelijke versie adaptive staircase builder,,2026.1.3,59.96393768792599,2026-04-14 14h15.59.495630 +0200,
12.5,ecc0,mid,26,0,26,f,0,2.165514299998904,None,0,1,1,1,26,0,26,0,1033.788550199999,,,,,,,,,,,,,,,1033.7845835000007,1033.788550199999,1034.704662,1033.788550199999,1033.788550199999,1035.9543043999984,f,0,2.165514299998904,None,direct,13,"[20, 19, 20, 19, 20, 17, 20, 19, 20, 14, 15, 13]",12,direct_gaze.png,f,0,2,results19,001,2026-04-14_14h15.59.219,mogelijke versie adaptive staircase builder,,2026.1.3,59.96393768792599,2026-04-14 14h15.59.495630 +0200,
12.5,ecc0,mid,27,0,27,f,1,1.9475237000006018,None,0,1,1,1,27,0,27,0,1036.0387005000011,,,,,,,,,,,,,,,1036.0346105999997,1036.0387005000011,1036.9547003000007,1036.0387005000011,1036.0387005000011,1037.9880239000013,f,1,1.9475237000006018,None,right,14,"[20, 19, 20, 19, 20, 17, 20, 19, 20, 14, 15, 13, 14]",13,gaze_R_14.png,f,1,2,results19,001,2026-04-14_14h15.59.219,mogelijke versie adaptive staircase builder,,2026.1.3,59.96393768792599,2026-04-14 14h15.59.495630 +0200,
12.5,ecc0,mid,28,0,28,j,1,1.9554315999994287,None,0,1,1,1,28,0,28,0,1038.0704968999999,,,,,,,,,,,,,,,1038.0664225,1038.0704968999999,1038.9879905000016,1038.0704968999999,1038.0704968999999,1040.0377482000004,j,1,1.9554315999994287,None,direct,13,"[20, 19, 20, 19, 20, 17, 20, 19, 20, 14, 15, 13, 14]",13,direct_gaze.png,j,1,2,results19,001,2026-04-14_14h15.59.219,mogelijke versie adaptive staircase builder,,2026.1.3,59.96393768792599,2026-04-14 14h15.59.495630 +0200,
12.5,ecc0,mid,29,0,29,j,0,1.6236626999998407,None,0,1,1,1,29,0,29,0,1040.122383500002,,,,,,,,,,,,,,,1040.118351699999,1040.122383500002,1041.037847399999,1040.122383500002,1040.122383500002,1041.7545572000017,j,0,1.6236626999998407,None,right,12,"[20, 19, 20, 19, 20, 17, 20, 19, 20, 14, 15, 13, 14, 12]",14,gaze_R_12.png,j,0,2,results19,001,2026-04-14_14h15.59.219,mogelijke versie adaptive staircase builder,,2026.1.3,59.96393768792599,2026-04-14 14h15.59.495630 +0200,
12.5,ecc0,mid,30,0,30,j,0,1.8019967000000179,None,0,1,1,1,30,0,30,0,1041.8400401,,,,,,,,,,,,,,,1041.8360376000019,1041.8400401,1042.7541306999992,1041.8400401,1041.8400401,1043.6543171000012,j,0,1.8019967000000179,None,right,13,"[20, 19, 20, 19, 20, 17, 20, 19, 20, 14, 15, 13, 14, 12]",14,gaze_R_13.png,j,0,2,results19,001,2026-04-14_14h15.59.219,mogelijke versie adaptive staircase builder,,2026.1.3,59.96393768792599,2026-04-14 14h15.59.495630 +0200,
12.5,ecc0,mid,31,0,31,f,1,1.7611819000012474,None,0,1,1,1,31,0,31,0,1043.7368449999994,,,,,,,,,,,,,,,1043.732946,1043.7368449999994,1044.6541896000017,1043.7368449999994,1043.7368449999994,1045.504336500002,f,1,1.7611819000012474,None,left,14,"[20, 19, 20, 19, 20, 17, 20, 19, 20, 14, 15, 13, 14, 12, 14]",15,gaze_L_14.png,f,1,2,results19,001,2026-04-14_14h15.59.219,mogelijke versie adaptive staircase builder,,2026.1.3,59.96393768792599,2026-04-14 14h15.59.495630 +0200,
12.5,ecc0,mid,32,0,32,j,0,1.813257200003136,None,0,1,1,1,32,0,32,0,1045.5891421999986,,,,,,,,,,,,,,,1045.5852607999987,1045.5891421999986,1046.5044716000011,1045.5891421999986,1045.5891421999986,1047.4045589000016,j,0,1.813257200003136,None,left,13,"[20, 19, 20, 19, 20, 17, 20, 19, 20, 14, 15, 13, 14, 12, 14, 13]",16,gaze_L_13.png,j,0,2,results19,001,2026-04-14_14h15.59.219,mogelijke versie adaptive staircase builder,,2026.1.3,59.96393768792599,2026-04-14 14h15.59.495630 +0200,
12.5,ecc0,mid,33,0,33,j,0,1.9219478000013623,None,0,1,1,1,33,0,33,0,1047.4881018000015,,,,,,,,,,,,,,,1047.483967799999,1047.4881018000015,1048.4046931000012,1047.4881018000015,1047.4881018000015,1049.4210267999988,j,0,1.9219478000013623,None,left,14,"[20, 19, 20, 19, 20, 17, 20, 19, 20, 14, 15, 13, 14, 12, 14, 13]",16,gaze_L_14.png,j,0,2,results19,001,2026-04-14_14h15.59.219,mogelijke versie adaptive staircase builder,,2026.1.3,59.96393768792599,2026-04-14 14h15.59.495630 +0200,
12.5,ecc0,mid,34,0,34,j,0,1.4172177000000374,None,0,1,1,1,34,0,34,0,1049.5127982999984,,,,,,,,,,,,,,,1049.5083345999992,1049.5127982999984,1050.420874899999,1049.5127982999984,1049.5127982999984,1050.9377677000011,j,0,1.4172177000000374,None,right,15,"[20, 19, 20, 19, 20, 17, 20, 19, 20, 14, 15, 13, 14, 12, 14, 13]",16,gaze_R_15.png,j,0,2,results19,001,2026-04-14_14h15.59.219,mogelijke versie adaptive staircase builder,,2026.1.3,59.96393768792599,2026-04-14 14h15.59.495630 +0200,
12.5,ecc0,mid,35,0,35,f,1,1.7117795000012848,None,0,1,1,1,35,0,35,0,1051.0261549999996,,,,,,,,,,,,,,,1051.0221622999998,1051.0261549999996,1051.9380124000018,1051.0261549999996,1051.0261549999996,1052.7543186000003,f,1,1.7117795000012848,None,left,16,"[20, 19, 20, 19, 20, 17, 20, 19, 20, 14, 15, 13, 14, 12, 14, 13, 16]",17,gaze_L_16.png,f,1,2,results19,001,2026-04-14_14h15.59.219,mogelijke versie adaptive staircase builder,,2026.1.3,59.96393768792599,2026-04-14 14h15.59.495630 +0200,
12.5,ecc0,mid,36,0,36,j,0,1.708987199999683,None,0,1,1,1,36,0,36,0,1052.8371394999995,,,,,,,,,,,,,,,1052.8334710000017,1052.8371394999995,1053.7541496000013,1052.8371394999995,1052.8371394999995,1054.557087000001,j,0,1.708987199999683,None,right,15,"[20, 19, 20, 19, 20, 17, 20, 19, 20, 14, 15, 13, 14, 12, 14, 13, 16, 15]",18,gaze_R_15.png,j,0,2,results19,001,2026-04-14_14h15.59.219,mogelijke versie adaptive staircase builder,,2026.1.3,59.96393768792599,2026-04-14 14h15.59.495630 +0200,
12.5,ecc0,mid,37,0,37,j,0,1.8671208000014303,None,0,1,1,1,37,0,37,0,1054.6467682000002,,,,,,,,,,,,,,,1054.6427145000016,1054.6467682000002,1055.5707858999995,1054.6467682000002,1054.6467682000002,1056.5211578999988,j,0,1.8671208000014303,None,right,16,"[20, 19, 20, 19, 20, 17, 20, 19, 20, 14, 15, 13, 14, 12, 14, 13, 16, 15]",18,gaze_R_16.png,j,0,2,results19,001,2026-04-14_14h15.59.219,mogelijke versie adaptive staircase builder,,2026.1.3,59.96393768792599,2026-04-14 14h15.59.495630 +0200,
12.5,ecc0,mid,38,0,38,j,0,1.5070177999987209,None,0,1,1,1,38,0,38,0,1056.6149680000017,,,,,,,,,,,,,,,1056.6109828000008,1056.6149680000017,1057.520741100001,1056.6149680000017,1056.6149680000017,1058.1383314000013,j,0,1.5070177999987209,None,left,17,"[20, 19, 20, 19, 20, 17, 20, 19, 20, 14, 15, 13, 14, 12, 14, 13, 16, 15]",18,gaze_L_17.png,j,0,2,results19,001,2026-04-14_14h15.59.219,mogelijke versie adaptive staircase builder,,2026.1.3,59.96393768792599,2026-04-14 14h15.59.495630 +0200,
12.5,ecc0,mid,39,0,39,f,0,1.6057044000008318,None,0,1,1,1,39,0,39,0,1058.2283396999992,,,,,,,,,,,,,,,1058.2242828000017,1058.2283396999992,1059.1376057999987,1058.2283396999992,1058.2283396999992,1059.8375796,f,0,1.6057044000008318,None,direct,18,"[20, 19, 20, 19, 20, 17, 20, 19, 20, 14, 15, 13, 14, 12, 14, 13, 16, 15]",18,direct_gaze.png,f,0,2,results19,001,2026-04-14_14h15.59.219,mogelijke versie adaptive staircase builder,,2026.1.3,59.96393768792599,2026-04-14 14h15.59.495630 +0200,
12.5,ecc0,mid,40,0,40,f,1,1.7857081000001926,None,0,1,1,1,40,0,40,0,1059.9287274999988,,,,,,,,,,,,,,,1059.9247811999994,1059.9287274999988,1060.8373229999997,1059.9287274999988,1059.9287274999988,1061.7212282,f,1,1.7857081000001926,None,right,19,"[20, 19, 20, 19, 20, 17, 20, 19, 20, 14, 15, 13, 14, 12, 14, 13, 16, 15, 19]",19,gaze_R_19.png,f,1,2,results19,001,2026-04-14_14h15.59.219,mogelijke versie adaptive staircase builder,,2026.1.3,59.96393768792599,2026-04-14 14h15.59.495630 +0200,
12.5,ecc0,mid,41,0,41,j,1,1.9022875000009662,None,0,1,1,1,41,0,41,0,1061.8039747000003,,,,,,,,,,,,,,,1061.7999759000013,1061.8039747000003,1062.7212298000013,1061.8039747000003,1061.8039747000003,1063.721543399999,j,1,1.9022875000009662,None,direct,18,"[20, 19, 20, 19, 20, 17, 20, 19, 20, 14, 15, 13, 14, 12, 14, 13, 16, 15, 19]",19,direct_gaze.png,j,1,2,results19,001,2026-04-14_14h15.59.219,mogelijke versie adaptive staircase builder,,2026.1.3,59.96393768792599,2026-04-14 14h15.59.495630 +0200,
12.5,ecc0,mid,42,0,42,j,1,1.540293300000485,None,0,1,1,1,42,0,42,0,1063.806167300001,,,,,,,,,,,,,,,1063.8021002999994,1063.806167300001,1064.7211558000017,1063.806167300001,1063.806167300001,1065.3547517000006,j,1,1.540293300000485,None,direct,17,"[20, 19, 20, 19, 20, 17, 20, 19, 20, 14, 15, 13, 14, 12, 14, 13, 16, 15, 19]",19,direct_gaze.png,j,1,2,results19,001,2026-04-14_14h15.59.219,mogelijke versie adaptive staircase builder,,2026.1.3,59.96393768792599,2026-04-14 14h15.59.495630 +0200,
12.5,ecc0,mid,43,0,43,j,0,1.8577208999995491,None,0,1,1,1,43,0,43,0,1065.4408139000006,,,,,,,,,,,,,,,1065.4365007000015,1065.4408139000006,1066.354559899999,1065.4408139000006,1065.4408139000006,1067.3047245000016,j,0,1.8577208999995491,None,left,16,"[20, 19, 20, 19, 20, 17, 20, 19, 20, 14, 15, 13, 14, 12, 14, 13, 16, 15, 19, 16]",20,gaze_L_16.png,j,0,2,results19,001,2026-04-14_14h15.59.219,mogelijke versie adaptive staircase builder,,2026.1.3,59.96393768792599,2026-04-14 14h15.59.495630 +0200,
12.5,ecc0,mid,44,0,44,j,1,1.630240499998763,None,0,1,1,1,44,0,44,0,1067.387808200001,,,,,,,,,,,,,,,1067.3838848000014,1067.387808200001,1068.3045122000003,1067.387808200001,1067.387808200001,1069.0208908999994,j,1,1.630240499998763,None,direct,17,"[20, 19, 20, 19, 20, 17, 20, 19, 20, 14, 15, 13, 14, 12, 14, 13, 16, 15, 19, 16, 17]",21,direct_gaze.png,j,1,2,results19,001,2026-04-14_14h15.59.219,mogelijke versie adaptive staircase builder,,2026.1.3,59.96393768792599,2026-04-14 14h15.59.495630 +0200,
12.5,ecc0,mid,45,0,45,j,0,1.8017479999980424,None,0,1,1,1,45,0,45,0,1069.104722,,,,,,,,,,,,,,,1069.1007199999985,1069.104722,1070.020998600001,1069.104722,1069.104722,1070.921203400001,j,0,1.8017479999980424,None,left,16,"[20, 19, 20, 19, 20, 17, 20, 19, 20, 14, 15, 13, 14, 12, 14, 13, 16, 15, 19, 16, 17, 16]",22,gaze_L_16.png,j,0,2,results19,001,2026-04-14_14h15.59.219,mogelijke versie adaptive staircase builder,,2026.1.3,59.96393768792599,2026-04-14 14h15.59.495630 +0200,
12.5,ecc0,mid,46,0,46,f,0,1.949466999998549,None,0,1,1,1,46,0,46,0,1071.0047096999988,,,,,,,,,,,,,,,1071.0008350999997,1071.0047096999988,1071.921175899999,1071.0047096999988,1071.0047096999988,1072.954542899999,f,0,1.949466999998549,None,direct,17,"[20, 19, 20, 19, 20, 17, 20, 19, 20, 14, 15, 13, 14, 12, 14, 13, 16, 15, 19, 16, 17, 16]",22,direct_gaze.png,f,0,2,results19,001,2026-04-14_14h15.59.219,mogelijke versie adaptive staircase builder,,2026.1.3,59.96393768792599,2026-04-14 14h15.59.495630 +0200,
12.5,ecc0,mid,47,0,47,j,1,1.789431200002582,None,0,1,1,1,47,0,47,0,1073.037038999999,,,,,,,,,,,,,,,1073.0330490000015,1073.037038999999,1073.9541787999988,1073.037038999999,1073.037038999999,1074.8382084000004,j,1,1.789431200002582,None,direct,18,"[20, 19, 20, 19, 20, 17, 20, 19, 20, 14, 15, 13, 14, 12, 14, 13, 16, 15, 19, 16, 17, 16, 18]",23,direct_gaze.png,j,1,2,results19,001,2026-04-14_14h15.59.219,mogelijke versie adaptive staircase builder,,2026.1.3,59.96393768792599,2026-04-14 14h15.59.495630 +0200,
12.5,ecc0,mid,48,0,48,j,0,2.0082548999998835,None,0,1,1,1,48,0,48,0,1074.9218177000002,,,,,,,,,,,,,,,1074.9178365000007,1074.9218177000002,1075.837720800002,1074.9218177000002,1074.9218177000002,1076.9375714999987,j,0,2.0082548999998835,None,left,17,"[20, 19, 20, 19, 20, 17, 20, 19, 20, 14, 15, 13, 14, 12, 14, 13, 16, 15, 19, 16, 17, 16, 18, 17]",24,gaze_L_17.png,j,0,2,results19,001,2026-04-14_14h15.59.219,mogelijke versie adaptive staircase builder,,2026.1.3,59.96393768792599,2026-04-14 14h15.59.495630 +0200,
12.5,ecc0,mid,49,0,49,j,0,1.6068955999980972,None,0,1,1,1,49,0,49,0,1077.027530700001,,,,,,,,,,,,,,,1077.0235733000009,1077.027530700001,1077.9374185999986,1077.027530700001,1077.027530700001,1078.637873399999,j,0,1.6068955999980972,None,left,18,"[20, 19, 20, 19, 20, 17, 20, 19, 20, 14, 15, 13, 14, 12, 14, 13, 16, 15, 19, 16, 17, 16, 18, 17]",24,gaze_L_18.png,j,0,2,results19,001,2026-04-14_14h15.59.219,mogelijke versie adaptive staircase builder,,2026.1.3,59.96393768792599,2026-04-14 14h15.59.495630 +0200,
12.5,ecc0,mid,50,0,50,j,0,1.609245399999054,None,0,1,1,1,50,0,50,0,1078.7208747000004,,,,,,,,,,,,,,,1078.7169963999986,1078.7208747000004,1079.6374394999984,1078.7208747000004,1078.7208747000004,1080.3375168999992,j,0,1.609245399999054,None,right,19,"[20, 19, 20, 19, 20, 17, 20, 19, 20, 14, 15, 13, 14, 12, 14, 13, 16, 15, 19, 16, 17, 16, 18, 17]",24,gaze_R_19.png,j,0,2,results19,001,2026-04-14_14h15.59.219,mogelijke versie adaptive staircase builder,,2026.1.3,59.96393768792599,2026-04-14 14h15.59.495630 +0200,
12.5,ecc0,mid,51,0,51,j,0,2.052805299997999,None,0,1,1,1,51,0,51,0,1080.4297286,,,,,,,,,,,,,,,1080.425546999999,1080.4297286,1081.3376740999993,1080.4297286,1080.4297286,1082.488197499999,j,0,2.052805299997999,None,right,20,"[20, 19, 20, 19, 20, 17, 20, 19, 20, 14, 15, 13, 14, 12, 14, 13, 16, 15, 19, 16, 17, 16, 18, 17]",24,gaze_R_20.png,j,0,2,results19,001,2026-04-14_14h15.59.219,mogelijke versie adaptive staircase builder,,2026.1.3,59.96393768792599,2026-04-14 14h15.59.495630 +0200,
12.5,ecc0,mid,52,0,52,f,0,2.078897600000346,None,0,1,1,1,52,0,52,0,1082.5715774000018,,,,,,,,,,,,,,,1082.5675804999992,1082.5715774000018,1083.4878734999984,1082.5715774000018,1082.5715774000018,1084.6544826999998,f,0,2.078897600000346,None,direct,20,"[20, 19, 20, 19, 20, 17, 20, 19, 20, 14, 15, 13, 14, 12, 14, 13, 16, 15, 19, 16, 17, 16, 18, 17]",24,direct_gaze.png,f,0,2,results19,001,2026-04-14_14h15.59.219,mogelijke versie adaptive staircase builder,,2026.1.3,59.96393768792599,2026-04-14 14h15.59.495630 +0200,
12.5,ecc0,mid,53,0,53,j,0,1.6557444999998552,None,0,1,1,1,53,0,53,0,1084.7463822999998,,,,,,,,,,,,,,,1084.7425172000003,1084.7463822999998,1085.6539231999996,1084.7463822999998,1084.7463822999998,1086.4044603000002,j,0,1.6557444999998552,None,left,20,"[20, 19, 20, 19, 20, 17, 20, 19, 20, 14, 15, 13, 14, 12, 14, 13, 16, 15, 19, 16, 17, 16, 18, 17]",24,gaze_L_20.png,j,0,2,results19,001,2026-04-14_14h15.59.219,mogelijke versie adaptive staircase builder,,2026.1.3,59.96393768792599,2026-04-14 14h15.59.495630 +0200,
12.5,ecc0,mid,54,0,54,j,0,2.0581096000023535,None,0,1,1,1,54,0,54,0,1086.488307399999,,,,,,,,,,,,,,,1086.4842470000003,1086.488307399999,1087.4045282000006,1086.488307399999,1086.488307399999,1088.5549347000015,j,0,2.0581096000023535,None,right,20,"[20, 19, 20, 19, 20, 17, 20, 19, 20, 14, 15, 13, 14, 12, 14, 13, 16, 15, 19, 16, 17, 16, 18, 17]",24,gaze_R_20.png,j,0,2,results19,001,2026-04-14_14h15.59.219,mogelijke versie adaptive staircase builder,,2026.1.3,59.96393768792599,2026-04-14 14h15.59.495630 +0200,
12.5,ecc0,mid,55,0,55,j,1,2.1772416999992856,None,0,1,1,1,55,0,55,0,1088.6412228000008,,,,,,,,,,,,,,,1088.6371712,1088.6412228000008,1089.5716342999985,1088.6412228000008,1088.6412228000008,1090.8216906999987,j,1,2.1772416999992856,None,direct,20,"[20, 19, 20, 19, 20, 17, 20, 19, 20, 14, 15, 13, 14, 12, 14, 13, 16, 15, 19, 16, 17, 16, 18, 17, 20]",25,direct_gaze.png,j,1,2,results19,001,2026-04-14_14h15.59.219,mogelijke versie adaptive staircase builder,,2026.1.3,59.96393768792599,2026-04-14 14h15.59.495630 +0200,
12.5,ecc0,mid,56,0,56,f,1,1.849983299998712,None,0,1,1,1,56,0,56,0,1090.9123368,,,,,,,,,,,,,,,1090.9084317000015,1090.9123368,1091.8212445999998,1090.9123368,1090.9123368,1092.7712519000015,f,1,1.849983299998712,None,left,19,"[20, 19, 20, 19, 20, 17, 20, 19, 20, 14, 15, 13, 14, 12, 14, 13, 16, 15, 19, 16, 17, 16, 18, 17, 20]",25,gaze_L_19.png,f,1,2,results19,001,2026-04-14_14h15.59.219,mogelijke versie adaptive staircase builder,,2026.1.3,59.96393768792599,2026-04-14 14h15.59.495630 +0200,
12.5,ecc0,mid,57,0,57,j,1,2.4035724999994272,None,0,1,1,1,57,0,57,0,1092.8549225999996,,,,,,,,,,,,,,,1092.8508270999992,1092.8549225999996,1093.771233399999,1092.8549225999996,1092.8549225999996,1095.271485199999,j,1,2.4035724999994272,None,direct,18,"[20, 19, 20, 19, 20, 17, 20, 19, 20, 14, 15, 13, 14, 12, 14, 13, 16, 15, 19, 16, 17, 16, 18, 17, 20]",25,direct_gaze.png,j,1,2,results19,001,2026-04-14_14h15.59.219,mogelijke versie adaptive staircase builder,,2026.1.3,59.96393768792599,2026-04-14 14h15.59.495630 +0200,
12.5,ecc0,mid,58,0,58,f,1,1.6965907000012521,None,0,1,1,1,58,0,58,0,1095.3616330000004,,,,,,,,,,,,,,,1095.3576624999987,1095.3616330000004,1096.2710904000014,1095.3616330000004,1095.3616330000004,1097.0711260999997,f,1,1.6965907000012521,None,right,17,"[20, 19, 20, 19, 20, 17, 20, 19, 20, 14, 15, 13, 14, 12, 14, 13, 16, 15, 19, 16, 17, 16, 18, 17, 20]",25,gaze_R_17.png,f,1,2,results19,001,2026-04-14_14h15.59.219,mogelijke versie adaptive staircase builder,,2026.1.3,59.96393768792599,2026-04-14 14h15.59.495630 +0200,
12.5,ecc0,mid,59,0,59,j,0,1.774663899999723,None,0,1,1,1,59,0,59,0,1097.1557995000003,,,,,,,,,,,,,,,1097.1516994999984,1097.1557995000003,1098.0711144999987,1097.1557995000003,1097.1557995000003,1098.9381304000017,j,0,1.774663899999723,None,right,16,"[20, 19, 20, 19, 20, 17, 20, 19, 20, 14, 15, 13, 14, 12, 14, 13, 16, 15, 19, 16, 17, 16, 18, 17, 20, 16]",26,gaze_R_16.png,j,0,2,results19,001,2026-04-14_14h15.59.219,mogelijke versie adaptive staircase builder,,2026.1.3,59.96393768792599,2026-04-14 14h15.59.495630 +0200,
12.5,ecc0,mid,1,1,0,,,,,0,1,1,1,,,,,,,,,,,,,,,,,,,,,,,,,,,,,,,,,,,,,,results19,001,2026-04-14_14h15.59.219,mogelijke versie adaptive staircase builder,,2026.1.3,59.96393768792599,2026-04-14 14h15.59.495630 +0200,
20.5,ecc10neg,right,0,0,0,j,1,1.6606785999974818,None,0,2,2,2,0,0,0,0,1099.0453639000007,,,,,,,,,,,,,1098.9566775999992,1098.9567262000019,1099.041466300001,1099.0453639000007,1099.0453639000007,1099.9707511999986,1099.0453639000007,1100.7209139000006,j,1,1.6606785999974818,None,direct,20,[],0,shifteddirectgaze.png,j,1,3,results19,001,2026-04-14_14h15.59.219,mogelijke versie adaptive staircase builder,,2026.1.3,59.96393768792599,2026-04-14 14h15.59.495630 +0200,
20.5,ecc10neg,right,1,0,1,f,1,1.6406480000005104,None,0,2,2,2,1,0,1,0,1100.8332778000004,,,,,,,,,,,,,,,1100.8231163000019,1100.8332778000004,1100.8332778000004,1101.7206821,1100.8332778000004,1102.4875705999984,f,1,1.6406480000005104,None,right,19,[],0,shiftedgaze_R_19.png,f,1,3,results19,001,2026-04-14_14h15.59.219,mogelijke versie adaptive staircase builder,,2026.1.3,59.96393768792599,2026-04-14 14h15.59.495630 +0200,
20.5,ecc10neg,right,2,0,2,j,1,1.5492951000014727,None,0,2,2,2,2,0,2,0,1102.5811107000009,,,,,,,,,,,,,,,1102.5712611000017,1102.5811107000009,1102.5811107000009,1103.4877717000018,1102.5811107000009,1104.1381819000017,j,1,1.5492951000014727,None,direct,18,[],0,shifteddirectgaze.png,j,1,3,results19,001,2026-04-14_14h15.59.219,mogelijke versie adaptive staircase builder,,2026.1.3,59.96393768792599,2026-04-14 14h15.59.495630 +0200,
20.5,ecc10neg,right,3,0,3,f,1,1.6892015999983414,None,0,2,2,2,3,0,3,0,1104.248920599999,,,,,,,,,,,,,,,1104.238086100002,1104.248920599999,1104.248920599999,1105.1375522000017,1104.248920599999,1105.9384893999995,f,1,1.6892015999983414,None,right,17,[],0,shiftedgaze_R_17.png,f,1,3,results19,001,2026-04-14_14h15.59.219,mogelijke versie adaptive staircase builder,,2026.1.3,59.96393768792599,2026-04-14 14h15.59.495630 +0200,
20.5,ecc10neg,right,4,0,4,f,1,1.8313313999969978,None,0,2,2,2,4,0,4,0,1106.0430933999996,,,,,,,,,,,,,,,1106.0380049000014,1106.0430933999996,1106.0430933999996,1106.9379762999997,1106.0430933999996,1107.8880836999997,f,1,1.8313313999969978,None,right,16,[],0,shiftedgaze_R_16.png,f,1,3,results19,001,2026-04-14_14h15.59.219,mogelijke versie adaptive staircase builder,,2026.1.3,59.96393768792599,2026-04-14 14h15.59.495630 +0200,
20.5,ecc10neg,right,5,0,5,j,0,1.6414784000007785,None,0,2,2,2,5,0,5,0,1107.9926831000012,,,,,,,,,,,,,,,1107.9807422000013,1107.9926831000012,1107.9926831000012,1108.8872994000012,1107.9926831000012,1109.6377713000002,j,0,1.6414784000007785,None,left,15,[15],1,shiftedgaze_L_15.png,j,0,3,results19,001,2026-04-14_14h15.59.219,mogelijke versie adaptive staircase builder,,2026.1.3,59.96393768792599,2026-04-14 14h15.59.495630 +0200,
20.5,ecc10neg,right,6,0,6,f,1,1.973815299999842,None,0,2,2,2,6,0,6,0,1109.7326162999998,,,,,,,,,,,,,,,1109.722409599999,1109.7326162999998,1109.7326162999998,1110.6379271000005,1109.7326162999998,1111.7212488000005,f,1,1.973815299999842,None,right,16,"[15, 16]",2,shiftedgaze_R_16.png,f,1,3,results19,001,2026-04-14_14h15.59.219,mogelijke versie adaptive staircase builder,,2026.1.3,59.96393768792599,2026-04-14 14h15.59.495630 +0200,
20.5,ecc10neg,right,7,0,7,j,0,1.9768552999994427,None,0,2,2,2,7,0,7,0,1111.8176236,,,,,,,,,,,,,,,1111.8059465000006,1111.8176236,1111.8176236,1112.7207318,1111.8176236,1113.8048396999984,j,0,1.9768552999994427,None,left,15,"[15, 16, 15]",3,shiftedgaze_L_15.png,j,0,3,results19,001,2026-04-14_14h15.59.219,mogelijke versie adaptive staircase builder,,2026.1.3,59.96393768792599,2026-04-14 14h15.59.495630 +0200,
20.5,ecc10neg,right,8,0,8,f,1,1.8435005999999703,None,0,2,2,2,8,0,8,0,1113.9026211000019,,,,,,,,,,,,,,,1113.8977980000018,1113.9026211000019,1113.9026211000019,1114.804509900001,1113.9026211000019,1115.7540903000008,f,1,1.8435005999999703,None,left,16,"[15, 16, 15, 16]",4,shiftedgaze_L_16.png,f,1,3,results19,001,2026-04-14_14h15.59.219,mogelijke versie adaptive staircase builder,,2026.1.3,59.96393768792599,2026-04-14 14h15.59.495630 +0200,
20.5,ecc10neg,right,9,0,9,f,1,2.198157299997547,None,0,2,2,2,9,0,9,0,1115.8443005000008,,,,,,,,,,,,,,,1115.8389018999987,1115.8443005000008,1115.8443005000008,1116.7539539999998,1115.8443005000008,1118.0547638999997,f,1,2.198157299997547,None,left,15,"[15, 16, 15, 16]",4,shiftedgaze_L_15.png,f,1,3,results19,001,2026-04-14_14h15.59.219,mogelijke versie adaptive staircase builder,,2026.1.3,59.96393768792599,2026-04-14 14h15.59.495630 +0200,
20.5,ecc10neg,right,10,0,10,f,1,2.3066515999998956,None,0,2,2,2,10,0,10,0,1118.151281999999,,,,,,,,,,,,,,,1118.1467403999995,1118.151281999999,1118.151281999999,1119.0545139999995,1118.151281999999,1120.4709954999998,f,1,2.3066515999998956,None,left,14,"[15, 16, 15, 16]",4,shiftedgaze_L_14.png,f,1,3,results19,001,2026-04-14_14h15.59.219,mogelijke versie adaptive staircase builder,,2026.1.3,59.96393768792599,2026-04-14 14h15.59.495630 +0200,
20.5,ecc10neg,right,11,0,11,f,0,2.4281012999999803,None,0,2,2,2,11,0,11,0,1120.558021500001,,,,,,,,,,,,,,,1120.5536973999988,1120.558021500001,1120.558021500001,1121.470814299999,1120.558021500001,1122.9877577000007,f,0,2.4281012999999803,None,direct,13,"[15, 16, 15, 16, 13]",5,shifteddirectgaze.png,f,0,3,results19,001,2026-04-14_14h15.59.219,mogelijke versie adaptive staircase builder,,2026.1.3,59.96393768792599,2026-04-14 14h15.59.495630 +0200,
20.5,ecc10neg,right,12,0,12,f,1,2.3231667000000016,None,0,2,2,2,12,0,12,0,1123.0792973999996,,,,,,,,,,,,,,,1123.0750604999994,1123.0792973999996,1123.0792973999996,1123.9880269999994,1123.0792973999996,1125.4045732000013,f,1,2.3231667000000016,None,right,14,"[15, 16, 15, 16, 13, 14]",6,shiftedgaze_R_14.png,f,1,3,results19,001,2026-04-14_14h15.59.219,mogelijke versie adaptive staircase builder,,2026.1.3,59.96393768792599,2026-04-14 14h15.59.495630 +0200,
20.5,ecc10neg,right,13,0,13,j,1,2.1781822000011744,None,0,2,2,2,13,0,13,0,1125.4877032000004,,,,,,,,,,,,,,,1125.4833795000013,1125.4877032000004,1125.4877032000004,1126.4043886,1125.4877032000004,1127.6710437000002,j,1,2.1781822000011744,None,direct,13,"[15, 16, 15, 16, 13, 14]",6,shifteddirectgaze.png,j,1,3,results19,001,2026-04-14_14h15.59.219,mogelijke versie adaptive staircase builder,,2026.1.3,59.96393768792599,2026-04-14 14h15.59.495630 +0200,
20.5,ecc10neg,right,14,0,14,f,0,2.4233249999997497,None,0,2,2,2,14,0,14,0,1127.7547295000004,,,,,,,,,,,,,,,1127.7505224999986,1127.7547295000004,1127.7547295000004,1128.6709612999985,1127.7547295000004,1130.1876593000015,f,0,2.4233249999997497,None,direct,12,"[15, 16, 15, 16, 13, 14, 12]",7,shifteddirectgaze.png,f,0,3,results19,001,2026-04-14_14h15.59.219,mogelijke versie adaptive staircase builder,,2026.1.3,59.96393768792599,2026-04-14 14h15.59.495630 +0200,
20.5,ecc10neg,right,15,0,15,j,0,1.6435579999997572,None,0,2,2,2,15,0,15,0,1130.2784773999992,,,,,,,,,,,,,,,1130.2744530000018,1130.2784773999992,1130.2784773999992,1131.1875002000015,1130.2784773999992,1131.937679499999,j,0,1.6435579999997572,None,right,13,"[15, 16, 15, 16, 13, 14, 12]",7,shiftedgaze_R_13.png,j,0,3,results19,001,2026-04-14_14h15.59.219,mogelijke versie adaptive staircase builder,,2026.1.3,59.96393768792599,2026-04-14 14h15.59.495630 +0200,
20.5,ecc10neg,right,16,0,16,f,1,2.45180359999722,None,0,2,2,2,16,0,16,0,1132.0222408000009,,,,,,,,,,,,,,,1132.018106200001,1132.0222408000009,1132.0222408000009,1132.937410300001,1132.0222408000009,1134.487640200001,f,1,2.45180359999722,None,right,14,"[15, 16, 15, 16, 13, 14, 12, 14]",8,shiftedgaze_R_14.png,f,1,3,results19,001,2026-04-14_14h15.59.219,mogelijke versie adaptive staircase builder,,2026.1.3,59.96393768792599,2026-04-14 14h15.59.495630 +0200,
20.5,ecc10neg,right,17,0,17,f,0,1.695374200000515,None,0,2,2,2,17,0,17,0,1134.570663999999,,,,,,,,,,,,,,,1134.566614200001,1134.570663999999,1134.570663999999,1135.4877312999997,1134.570663999999,1136.2716361999992,f,0,1.695374200000515,None,direct,13,"[15, 16, 15, 16, 13, 14, 12, 14, 13]",9,shifteddirectgaze.png,f,0,3,results19,001,2026-04-14_14h15.59.219,mogelijke versie adaptive staircase builder,,2026.1.3,59.96393768792599,2026-04-14 14h15.59.495630 +0200,
20.5,ecc10neg,right,18,0,18,j,0,1.99049919999743,None,0,2,2,2,18,0,18,0,1136.3555397000018,,,,,,,,,,,,,,,1136.3513162000017,1136.3555397000018,1136.3555397000018,1137.2880387000005,1136.3555397000018,1138.3542998000012,j,0,1.99049919999743,None,left,14,"[15, 16, 15, 16, 13, 14, 12, 14, 13]",9,shiftedgaze_L_14.png,j,0,3,results19,001,2026-04-14_14h15.59.219,mogelijke versie adaptive staircase builder,,2026.1.3,59.96393768792599,2026-04-14 14h15.59.495630 +0200,
20.5,ecc10neg,right,19,0,19,j,1,1.8999774000003526,None,0,2,2,2,19,0,19,0,1138.4379771999993,,,,,,,,,,,,,,,1138.4339158000002,1138.4379771999993,1138.4379771999993,1139.3541710999998,1138.4379771999993,1140.3543054000002,j,1,1.8999774000003526,None,direct,15,"[15, 16, 15, 16, 13, 14, 12, 14, 13, 15]",10,shifteddirectgaze.png,j,1,3,results19,001,2026-04-14_14h15.59.219,mogelijke versie adaptive staircase builder,,2026.1.3,59.96393768792599,2026-04-14 14h15.59.495630 +0200,
20.5,ecc10neg,right,20,0,20,j,0,1.852422200001456,None,0,2,2,2,20,0,20,0,1140.4374586999984,,,,,,,,,,,,,,,1140.4333541999986,1140.4374586999984,1140.4374586999984,1141.3546981,1140.4374586999984,1142.304364399999,j,0,1.852422200001456,None,left,14,"[15, 16, 15, 16, 13, 14, 12, 14, 13, 15, 14]",11,shiftedgaze_L_14.png,j,0,3,results19,001,2026-04-14_14h15.59.219,mogelijke versie adaptive staircase builder,,2026.1.3,59.96393768792599,2026-04-14 14h15.59.495630 +0200,
20.5,ecc10neg,right,21,0,21,f,1,1.7820553000019572,None,0,2,2,2,21,0,21,0,1142.3880398000001,,,,,,,,,,,,,,,1142.3836335999986,1142.3880398000001,1142.3880398000001,1143.304669000001,1142.3880398000001,1144.171038299999,f,1,1.7820553000019572,None,left,15,"[15, 16, 15, 16, 13, 14, 12, 14, 13, 15, 14, 15]",12,shiftedgaze_L_15.png,f,1,3,results19,001,2026-04-14_14h15.59.219,mogelijke versie adaptive staircase builder,,2026.1.3,59.96393768792599,2026-04-14 14h15.59.495630 +0200,
20.5,ecc10neg,right,22,0,22,j,0,1.676140800002031,None,0,2,2,2,22,0,22,0,1144.2539262999999,,,,,,,,,,,,,,,1144.2498202999996,1144.2539262999999,1144.2539262999999,1145.1710993999986,1144.2539262999999,1145.937666599999,j,0,1.676140800002031,None,left,14,"[15, 16, 15, 16, 13, 14, 12, 14, 13, 15, 14, 15, 14]",13,shiftedgaze_L_14.png,j,0,3,results19,001,2026-04-14_14h15.59.219,mogelijke versie adaptive staircase builder,,2026.1.3,59.96393768792599,2026-04-14 14h15.59.495630 +0200,
20.5,ecc10neg,right,23,0,23,f,1,1.6453532999985327,None,0,2,2,2,23,0,23,0,1146.0287067999998,,,,,,,,,,,,,,,1146.0247114000013,1146.0287067999998,1146.0287067999998,1146.9376478999984,1146.0287067999998,1147.6877363999993,f,1,1.6453532999985327,None,right,15,"[15, 16, 15, 16, 13, 14, 12, 14, 13, 15, 14, 15, 14, 15]",14,shiftedgaze_R_15.png,f,1,3,results19,001,2026-04-14_14h15.59.219,mogelijke versie adaptive staircase builder,,2026.1.3,59.96393768792599,2026-04-14 14h15.59.495630 +0200,
20.5,ecc10neg,right,24,0,24,f,1,1.7271397999975306,None,0,2,2,2,24,0,24,0,1147.7711485,,,,,,,,,,,,,,,1147.7669726999993,1147.7711485,1147.7711485,1148.6879665999986,1147.7711485,1149.5045566000008,f,1,1.7271397999975306,None,right,14,"[15, 16, 15, 16, 13, 14, 12, 14, 13, 15, 14, 15, 14, 15]",14,shiftedgaze_R_14.png,f,1,3,results19,001,2026-04-14_14h15.59.219,mogelijke versie adaptive staircase builder,,2026.1.3,59.96393768792599,2026-04-14 14h15.59.495630 +0200,
20.5,ecc10neg,right,25,0,25,f,0,1.8132922999975563,None,0,2,2,2,25,0,25,0,1149.5891121999994,,,,,,,,,,,,,,,1149.5850909,1149.5891121999994,1149.5891121999994,1150.5039757000013,1149.5891121999994,1151.4045928000014,f,0,1.8132922999975563,None,direct,13,"[15, 16, 15, 16, 13, 14, 12, 14, 13, 15, 14, 15, 14, 15, 13]",15,shifteddirectgaze.png,f,0,3,results19,001,2026-04-14_14h15.59.219,mogelijke versie adaptive staircase builder,,2026.1.3,59.96393768792599,2026-04-14 14h15.59.495630 +0200,
20.5,ecc10neg,right,26,0,26,j,1,2.1940643999987515,None,0,2,2,2,26,0,26,0,1151.4879824000018,,,,,,,,,,,,,,,1151.484032299999,1151.4879824000018,1151.4879824000018,1152.4045858999998,1151.4879824000018,1153.6876591,j,1,2.1940643999987515,None,direct,14,"[15, 16, 15, 16, 13, 14, 12, 14, 13, 15, 14, 15, 14, 15, 13, 14]",16,shifteddirectgaze.png,j,1,3,results19,001,2026-04-14_14h15.59.219,mogelijke versie adaptive staircase builder,,2026.1.3,59.96393768792599,2026-04-14 14h15.59.495630 +0200,
20.5,ecc10neg,right,27,0,27,f,1,1.8871908000000985,None,0,2,2,2,27,0,27,0,1153.770758900002,,,,,,,,,,,,,,,1153.766698899999,1153.770758900002,1153.770758900002,1154.6874362999988,1153.770758900002,1155.670999500002,f,1,1.8871908000000985,None,right,13,"[15, 16, 15, 16, 13, 14, 12, 14, 13, 15, 14, 15, 14, 15, 13, 14]",16,shiftedgaze_R_13.png,f,1,3,results19,001,2026-04-14_14h15.59.219,mogelijke versie adaptive staircase builder,,2026.1.3,59.96393768792599,2026-04-14 14h15.59.495630 +0200,
20.5,ecc10neg,right,28,0,28,j,1,2.3521643999993103,None,0,2,2,2,28,0,28,0,1155.7539227000016,,,,,,,,,,,,,,,1155.7498792000006,1155.7539227000016,1155.7539227000016,1156.6708198000015,1155.7539227000016,1158.1210496999993,j,1,2.3521643999993103,None,direct,12,"[15, 16, 15, 16, 13, 14, 12, 14, 13, 15, 14, 15, 14, 15, 13, 14]",16,shifteddirectgaze.png,j,1,3,results19,001,2026-04-14_14h15.59.219,mogelijke versie adaptive staircase builder,,2026.1.3,59.96393768792599,2026-04-14 14h15.59.495630 +0200,
20.5,ecc10neg,right,29,0,29,f,0,2.022854799997731,None,0,2,2,2,29,0,29,0,1158.2035710000018,,,,,,,,,,,,,,,1158.1996524999995,1158.2035710000018,1158.2035710000018,1159.1212744000004,1158.2035710000018,1160.2380627999992,f,0,2.022854799997731,None,direct,11,"[15, 16, 15, 16, 13, 14, 12, 14, 13, 15, 14, 15, 14, 15, 13, 14, 11]",17,shifteddirectgaze.png,f,0,3,results19,001,2026-04-14_14h15.59.219,mogelijke versie adaptive staircase builder,,2026.1.3,59.96393768792599,2026-04-14 14h15.59.495630 +0200,
20.5,ecc10neg,right,30,0,30,f,1,1.7493061999994097,None,0,2,2,2,30,0,30,0,1160.340860700002,,,,,,,,,,,,,,,1160.3313763000006,1160.340860700002,1160.340860700002,1161.2377804999996,1160.340860700002,1162.1049925000007,f,1,1.7493061999994097,None,right,12,"[15, 16, 15, 16, 13, 14, 12, 14, 13, 15, 14, 15, 14, 15, 13, 14, 11, 12]",18,shiftedgaze_R_12.png,f,1,3,results19,001,2026-04-14_14h15.59.219,mogelijke versie adaptive staircase builder,,2026.1.3,59.96393768792599,2026-04-14 14h15.59.495630 +0200,
20.5,ecc10neg,right,31,0,31,f,1,1.870236599999771,None,0,2,2,2,31,0,31,0,1162.2118023000003,,,,,,,,,,,,,,,1162.2008195000017,1162.2118023000003,1162.2118023000003,1163.1046293,1162.2118023000003,1164.0876936999994,f,1,1.870236599999771,None,left,11,"[15, 16, 15, 16, 13, 14, 12, 14, 13, 15, 14, 15, 14, 15, 13, 14, 11, 12]",18,shiftedgaze_L_11.png,f,1,3,results19,001,2026-04-14_14h15.59.219,mogelijke versie adaptive staircase builder,,2026.1.3,59.96393768792599,2026-04-14 14h15.59.495630 +0200,
20.5,ecc10neg,right,32,0,32,j,0,1.64112920000116,None,0,2,2,2,32,0,32,0,1164.184810499999,,,,,,,,,,,,,,,1164.1801774000014,1164.184810499999,1164.184810499999,1165.0876277999996,1164.184810499999,1165.837652000002,j,0,1.64112920000116,None,right,10,"[15, 16, 15, 16, 13, 14, 12, 14, 13, 15, 14, 15, 14, 15, 13, 14, 11, 12, 10]",19,shiftedgaze_R_10.png,j,0,3,results19,001,2026-04-14_14h15.59.219,mogelijke versie adaptive staircase builder,,2026.1.3,59.96393768792599,2026-04-14 14h15.59.495630 +0200,
20.5,ecc10neg,right,33,0,33,f,0,2.1428439000010258,None,0,2,2,2,33,0,33,0,1165.923163899999,,,,,,,,,,,,,,,1165.9185012999988,1165.923163899999,1165.923163899999,1166.8377689000008,1165.923163899999,1168.0716146999985,f,0,2.1428439000010258,None,direct,11,"[15, 16, 15, 16, 13, 14, 12, 14, 13, 15, 14, 15, 14, 15, 13, 14, 11, 12, 10]",19,shifteddirectgaze.png,f,0,3,results19,001,2026-04-14_14h15.59.219,mogelijke versie adaptive staircase builder,,2026.1.3,59.96393768792599,2026-04-14 14h15.59.495630 +0200,
20.5,ecc10neg,right,34,0,34,j,0,1.9597895000006247,None,0,2,2,2,34,0,34,0,1168.1621812000012,,,,,,,,,,,,,,,1168.1579450999998,1168.1621812000012,1168.1621812000012,1169.0875784000018,1168.1621812000012,1170.1377065000015,j,0,1.9597895000006247,None,left,12,"[15, 16, 15, 16, 13, 14, 12, 14, 13, 15, 14, 15, 14, 15, 13, 14, 11, 12, 10]",19,shiftedgaze_L_12.png,j,0,3,results19,001,2026-04-14_14h15.59.219,mogelijke versie adaptive staircase builder,,2026.1.3,59.96393768792599,2026-04-14 14h15.59.495630 +0200,
20.5,ecc10neg,right,35,0,35,f,0,1.7952755999976944,None,0,2,2,2,35,0,35,0,1170.2387516000017,,,,,,,,,,,,,,,1170.2338167999987,1170.2387516000017,1170.2387516000017,1171.1374582999997,1170.2387516000017,1172.0378433000005,f,0,1.7952755999976944,None,direct,13,"[15, 16, 15, 16, 13, 14, 12, 14, 13, 15, 14, 15, 14, 15, 13, 14, 11, 12, 10]",19,shifteddirectgaze.png,f,0,3,results19,001,2026-04-14_14h15.59.219,mogelijke versie adaptive staircase builder,,2026.1.3,59.96393768792599,2026-04-14 14h15.59.495630 +0200,
20.5,ecc10neg,right,36,0,36,j,0,2.1561946000001626,None,0,2,2,2,36,0,36,0,1172.133817599999,,,,,,,,,,,,,,,1172.1298639000015,1172.133817599999,1172.133817599999,1173.0373838000014,1172.133817599999,1174.3041893000009,j,0,2.1561946000001626,None,left,14,"[15, 16, 15, 16, 13, 14, 12, 14, 13, 15, 14, 15, 14, 15, 13, 14, 11, 12, 10]",19,shiftedgaze_L_14.png,j,0,3,results19,001,2026-04-14_14h15.59.219,mogelijke versie adaptive staircase builder,,2026.1.3,59.96393768792599,2026-04-14 14h15.59.495630 +0200,
20.5,ecc10neg,right,37,0,37,f,1,1.6834254000023066,None,0,2,2,2,37,0,37,0,1174.398541999999,,,,,,,,,,,,,,,1174.3941923999992,1174.398541999999,1174.398541999999,1175.3039186999995,1174.398541999999,1176.087585100002,f,1,1.6834254000023066,None,left,15,"[15, 16, 15, 16, 13, 14, 12, 14, 13, 15, 14, 15, 14, 15, 13, 14, 11, 12, 10, 15]",20,shiftedgaze_L_15.png,f,1,3,results19,001,2026-04-14_14h15.59.219,mogelijke versie adaptive staircase builder,,2026.1.3,59.96393768792599,2026-04-14 14h15.59.495630 +0200,
20.5,ecc10neg,right,38,0,38,f,0,1.8753154000005452,None,0,2,2,2,38,0,38,0,1176.1826833999985,,,,,,,,,,,,,,,1176.1785410000011,1176.1826833999985,1176.1826833999985,1177.0873420999997,1176.1826833999985,1178.0710846000002,f,0,1.8753154000005452,None,direct,14,"[15, 16, 15, 16, 13, 14, 12, 14, 13, 15, 14, 15, 14, 15, 13, 14, 11, 12, 10, 15, 14]",21,shifteddirectgaze.png,f,0,3,results19,001,2026-04-14_14h15.59.219,mogelijke versie adaptive staircase builder,,2026.1.3,59.96393768792599,2026-04-14 14h15.59.495630 +0200,
20.5,ecc10neg,right,39,0,39,f,0,1.8933022000019264,None,0,2,2,2,39,0,39,0,1178.1648139999998,,,,,,,,,,,,,,,1178.1605934,1178.1648139999998,1178.1648139999998,1179.0871441000018,1178.1648139999998,1180.0709332000006,f,0,1.8933022000019264,None,direct,15,"[15, 16, 15, 16, 13, 14, 12, 14, 13, 15, 14, 15, 14, 15, 13, 14, 11, 12, 10, 15, 14]",21,shifteddirectgaze.png,f,0,3,results19,001,2026-04-14_14h15.59.219,mogelijke versie adaptive staircase builder,,2026.1.3,59.96393768792599,2026-04-14 14h15.59.495630 +0200,
20.5,ecc10neg,right,40,0,40,f,1,1.7642281000007642,None,0,2,2,2,40,0,40,0,1180.181906400001,,,,,,,,,,,,,,,1180.1720473999994,1180.181906400001,1180.181906400001,1181.070824800001,1180.181906400001,1181.9547171999984,f,1,1.7642281000007642,None,right,16,"[15, 16, 15, 16, 13, 14, 12, 14, 13, 15, 14, 15, 14, 15, 13, 14, 11, 12, 10, 15, 14, 16]",22,shiftedgaze_R_16.png,f,1,3,results19,001,2026-04-14_14h15.59.219,mogelijke versie adaptive staircase builder,,2026.1.3,59.96393768792599,2026-04-14 14h15.59.495630 +0200,
20.5,ecc10neg,right,41,0,41,j,0,1.8555410000008123,None,0,2,2,2,41,0,41,0,1182.066401,,,,,,,,,,,,,,,1182.0544015999985,1182.066401,1182.066401,1182.9705074000012,1182.066401,1183.9377605000009,j,0,1.8555410000008123,None,right,15,"[15, 16, 15, 16, 13, 14, 12, 14, 13, 15, 14, 15, 14, 15, 13, 14, 11, 12, 10, 15, 14, 16, 15]",23,shiftedgaze_R_15.png,j,0,3,results19,001,2026-04-14_14h15.59.219,mogelijke versie adaptive staircase builder,,2026.1.3,59.96393768792599,2026-04-14 14h15.59.495630 +0200,
20.5,ecc10neg,right,42,0,42,j,0,1.7325799999998708,None,0,2,2,2,42,0,42,0,1184.0453979000013,,,,,,,,,,,,,,,1184.0406116000013,1184.0453979000013,1184.0453979000013,1184.9376205000008,1184.0453979000013,1185.7879484000005,j,0,1.7325799999998708,None,left,16,"[15, 16, 15, 16, 13, 14, 12, 14, 13, 15, 14, 15, 14, 15, 13, 14, 11, 12, 10, 15, 14, 16, 15]",23,shiftedgaze_L_16.png,j,0,3,results19,001,2026-04-14_14h15.59.219,mogelijke versie adaptive staircase builder,,2026.1.3,59.96393768792599,2026-04-14 14h15.59.495630 +0200,
20.5,ecc10neg,right,43,0,43,j,1,1.8588859000010416,None,0,2,2,2,43,0,43,0,1185.8871768999998,,,,,,,,,,,,,,,1185.8827668000013,1185.8871768999998,1185.8871768999998,1186.7875698999997,1185.8871768999998,1187.754474100002,j,1,1.8588859000010416,None,direct,17,"[15, 16, 15, 16, 13, 14, 12, 14, 13, 15, 14, 15, 14, 15, 13, 14, 11, 12, 10, 15, 14, 16, 15, 17]",24,shifteddirectgaze.png,j,1,3,results19,001,2026-04-14_14h15.59.219,mogelijke versie adaptive staircase builder,,2026.1.3,59.96393768792599,2026-04-14 14h15.59.495630 +0200,
20.5,ecc10neg,right,44,0,44,f,1,1.744556300000113,None,0,2,2,2,44,0,44,0,1187.8734695999992,,,,,,,,,,,,,,,1187.8617486000003,1187.8734695999992,1187.8734695999992,1188.754054500001,1187.8734695999992,1189.6212092999995,f,1,1.744556300000113,None,right,16,"[15, 16, 15, 16, 13, 14, 12, 14, 13, 15, 14, 15, 14, 15, 13, 14, 11, 12, 10, 15, 14, 16, 15, 17]",24,shiftedgaze_R_16.png,f,1,3,results19,001,2026-04-14_14h15.59.219,mogelijke versie adaptive staircase builder,,2026.1.3,59.96393768792599,2026-04-14 14h15.59.495630 +0200,
20.5,ecc10neg,right,45,0,45,f,1,1.8582038999993529,None,0,2,2,2,45,0,45,0,1189.7279827999992,,,,,,,,,,,,,,,1189.7169267999998,1189.7279827999992,1189.7279827999992,1190.6209786,1189.7279827999992,1191.5878182999986,f,1,1.8582038999993529,None,left,15,"[15, 16, 15, 16, 13, 14, 12, 14, 13, 15, 14, 15, 14, 15, 13, 14, 11, 12, 10, 15, 14, 16, 15, 17]",24,shiftedgaze_L_15.png,f,1,3,results19,001,2026-04-14_14h15.59.219,mogelijke versie adaptive staircase builder,,2026.1.3,59.96393768792599,2026-04-14 14h15.59.495630 +0200,
20.5,ecc10neg,right,46,0,46,f,0,1.6545243000000482,None,0,2,2,2,46,0,46,0,1191.6834898999987,,,,,,,,,,,,,,,1191.6787925999997,1191.6834898999987,1191.6834898999987,1192.5875823999995,1191.6834898999987,1193.3544728999987,f,0,1.6545243000000482,None,direct,14,"[15, 16, 15, 16, 13, 14, 12, 14, 13, 15, 14, 15, 14, 15, 13, 14, 11, 12, 10, 15, 14, 16, 15, 17, 14]",25,shifteddirectgaze.png,f,0,3,results19,001,2026-04-14_14h15.59.219,mogelijke versie adaptive staircase builder,,2026.1.3,59.96393768792599,2026-04-14 14h15.59.495630 +0200,
20.5,ecc10neg,right,47,0,47,f,1,1.7598180000022694,None,0,2,2,2,47,0,47,0,1193.4506045000016,,,,,,,,,,,,,,,1193.4463748999988,1193.4506045000016,1193.4506045000016,1194.3541990000012,1193.4506045000016,1195.2214975999996,f,1,1.7598180000022694,None,right,15,"[15, 16, 15, 16, 13, 14, 12, 14, 13, 15, 14, 15, 14, 15, 13, 14, 11, 12, 10, 15, 14, 16, 15, 17, 14, 15]",26,shiftedgaze_R_15.png,f,1,3,results19,001,2026-04-14_14h15.59.219,mogelijke versie adaptive staircase builder,,2026.1.3,59.96393768792599,2026-04-14 14h15.59.495630 +0200,
20.5,ecc10neg,right,48,0,48,j,1,1.8573300999996718,None,0,2,2,2,48,0,48,0,1195.3051225000017,,,,,,,,,,,,,,,1195.3011614999996,1195.3051225000017,1195.3051225000017,1196.2212077000004,1195.3051225000017,1197.1714404999984,j,1,1.8573300999996718,None,direct,14,"[15, 16, 15, 16, 13, 14, 12, 14, 13, 15, 14, 15, 14, 15, 13, 14, 11, 12, 10, 15, 14, 16, 15, 17, 14, 15]",26,shifteddirectgaze.png,j,1,3,results19,001,2026-04-14_14h15.59.219,mogelijke versie adaptive staircase builder,,2026.1.3,59.96393768792599,2026-04-14 14h15.59.495630 +0200,
20.5,ecc10neg,right,49,0,49,j,0,2.2367077999988396,None,0,2,2,2,49,0,49,0,1197.2612640000007,,,,,,,,,,,,,,,1197.2573158000014,1197.2612640000007,1197.2612640000007,1198.1875628999987,1197.2612640000007,1199.5041898000018,j,0,2.2367077999988396,None,left,13,"[15, 16, 15, 16, 13, 14, 12, 14, 13, 15, 14, 15, 14, 15, 13, 14, 11, 12, 10, 15, 14, 16, 15, 17, 14, 15, 13]",27,shiftedgaze_L_13.png,j,0,3,results19,001,2026-04-14_14h15.59.219,mogelijke versie adaptive staircase builder,,2026.1.3,59.96393768792599,2026-04-14 14h15.59.495630 +0200,
20.5,ecc10neg,right,50,0,50,f,1,1.6381366999994498,None,0,2,2,2,50,0,50,0,1199.5878282999984,,,,,,,,,,,,,,,1199.5836320000017,1199.5878282999984,1199.5878282999984,1200.504185400001,1199.5878282999984,1201.2376489000017,f,1,1.6381366999994498,None,right,14,"[15, 16, 15, 16, 13, 14, 12, 14, 13, 15, 14, 15, 14, 15, 13, 14, 11, 12, 10, 15, 14, 16, 15, 17, 14, 15, 13, 14]",28,shiftedgaze_R_14.png,f,1,3,results19,001,2026-04-14_14h15.59.219,mogelijke versie adaptive staircase builder,,2026.1.3,59.96393768792599,2026-04-14 14h15.59.495630 +0200,
20.5,ecc10neg,right,51,0,51,f,1,1.6638823000030243,None,0,2,2,2,51,0,51,0,1201.3225101999997,,,,,,,,,,,,,,,1201.3186107000001,1201.3225101999997,1201.3225101999997,1202.2374123000009,1201.3225101999997,1202.9880107999998,f,1,1.6638823000030243,None,right,13,"[15, 16, 15, 16, 13, 14, 12, 14, 13, 15, 14, 15, 14, 15, 13, 14, 11, 12, 10, 15, 14, 16, 15, 17, 14, 15, 13, 14]",28,shiftedgaze_R_13.png,f,1,3,results19,001,2026-04-14_14h15.59.219,mogelijke versie adaptive staircase builder,,2026.1.3,59.96393768792599,2026-04-14 14h15.59.495630 +0200,
20.5,ecc10neg,right,52,0,52,f,1,2.0952496999998402,None,0,2,2,2,52,0,52,0,1203.0831488000003,,,,,,,,,,,,,,,1203.073290799999,1203.0831488000003,1203.0831488000003,1204.0044296000015,1203.0831488000003,1205.1875007000017,f,1,2.0952496999998402,None,right,12,"[15, 16, 15, 16, 13, 14, 12, 14, 13, 15, 14, 15, 14, 15, 13, 14, 11, 12, 10, 15, 14, 16, 15, 17, 14, 15, 13, 14]",28,shiftedgaze_R_12.png,f,1,3,results19,001,2026-04-14_14h15.59.219,mogelijke versie adaptive staircase builder,,2026.1.3,59.96393768792599,2026-04-14 14h15.59.495630 +0200,
20.5,ecc10neg,right,53,0,53,j,0,1.8648520999995526,None,0,2,2,2,53,0,53,0,1205.2895419000015,,,,,,,,,,,,,,,1205.2790720000012,1205.2895419000015,1205.2895419000015,1206.1874419000014,1205.2895419000015,1207.1547793999998,j,0,1.8648520999995526,None,left,11,"[15, 16, 15, 16, 13, 14, 12, 14, 13, 15, 14, 15, 14, 15, 13, 14, 11, 12, 10, 15, 14, 16, 15, 17, 14, 15, 13, 14, 11]",29,shiftedgaze_L_11.png,j,0,3,results19,001,2026-04-14_14h15.59.219,mogelijke versie adaptive staircase builder,,2026.1.3,59.96393768792599,2026-04-14 14h15.59.495630 +0200,
20.5,ecc10neg,right,54,0,54,f,1,1.998315900000307,None,0,2,2,2,54,0,54,0,1207.2438079999993,,,,,,,,,,,,,,,1207.2344326999992,1207.2438079999993,1207.2438079999993,1208.1712377000003,1207.2438079999993,1209.2542576000014,f,1,1.998315900000307,None,right,12,"[15, 16, 15, 16, 13, 14, 12, 14, 13, 15, 14, 15, 14, 15, 13, 14, 11, 12, 10, 15, 14, 16, 15, 17, 14, 15, 13, 14, 11, 12]",30,shiftedgaze_R_12.png,f,1,3,results19,001,2026-04-14_14h15.59.219,mogelijke versie adaptive staircase builder,,2026.1.3,59.96393768792599,2026-04-14 14h15.59.495630 +0200,
20.5,ecc10neg,right,55,0,55,f,1,1.7710889000009047,None,0,2,2,2,55,0,55,0,1209.350976400001,,,,,,,,,,,,,,,1209.3414813999989,1209.350976400001,1209.350976400001,1210.2544914999999,1209.350976400001,1211.1380892999987,f,1,1.7710889000009047,None,right,11,"[15, 16, 15, 16, 13, 14, 12, 14, 13, 15, 14, 15, 14, 15, 13, 14, 11, 12, 10, 15, 14, 16, 15, 17, 14, 15, 13, 14, 11, 12]",30,shiftedgaze_R_11.png,f,1,3,results19,001,2026-04-14_14h15.59.219,mogelijke versie adaptive staircase builder,,2026.1.3,59.96393768792599,2026-04-14 14h15.59.495630 +0200,
20.5,ecc10neg,right,56,0,56,f,1,1.705904999998893,None,0,2,2,2,56,0,56,0,1211.2322439000018,,,,,,,,,,,,,,,1211.2273599,1211.2322439000018,1211.2322439000018,1212.1541279000012,1211.2322439000018,1212.938455899999,f,1,1.705904999998893,None,right,10,"[15, 16, 15, 16, 13, 14, 12, 14, 13, 15, 14, 15, 14, 15, 13, 14, 11, 12, 10, 15, 14, 16, 15, 17, 14, 15, 13, 14, 11, 12]",30,shiftedgaze_R_10.png,f,1,3,results19,001,2026-04-14_14h15.59.219,mogelijke versie adaptive staircase builder,,2026.1.3,59.96393768792599,2026-04-14 14h15.59.495630 +0200,
20.5,ecc10neg,right,57,0,57,j,1,1.6766733000004024,None,0,2,2,2,57,0,57,0,1213.0216409999994,,,,,,,,,,,,,,,1213.0176729999985,1213.0216409999994,1213.0216409999994,1213.9539952000014,1213.0216409999994,1214.7045733000014,j,1,1.6766733000004024,None,direct,9,"[15, 16, 15, 16, 13, 14, 12, 14, 13, 15, 14, 15, 14, 15, 13, 14, 11, 12, 10, 15, 14, 16, 15, 17, 14, 15, 13, 14, 11, 12]",30,shifteddirectgaze.png,j,1,3,results19,001,2026-04-14_14h15.59.219,mogelijke versie adaptive staircase builder,,2026.1.3,59.96393768792599,2026-04-14 14h15.59.495630 +0200,
20.5,ecc10neg,right,58,0,58,f,1,1.6366081999985909,None,0,2,2,2,58,0,58,0,1214.7976224000013,,,,,,,,,,,,,,,1214.7936107999994,1214.7976224000013,1214.7976224000013,1215.7044391000018,1214.7976224000013,1216.4378671000013,f,1,1.6366081999985909,None,right,8,"[15, 16, 15, 16, 13, 14, 12, 14, 13, 15, 14, 15, 14, 15, 13, 14, 11, 12, 10, 15, 14, 16, 15, 17, 14, 15, 13, 14, 11, 12]",30,shiftedgaze_R_8.png,f,1,3,results19,001,2026-04-14_14h15.59.219,mogelijke versie adaptive staircase builder,,2026.1.3,59.96393768792599,2026-04-14 14h15.59.495630 +0200,
20.5,ecc10neg,right,59,0,59,f,0,1.623165600001812,None,0,2,2,2,59,0,59,0,1216.5228834000009,,,,,,,,,,,,,,,1216.518815200001,1216.5228834000009,1216.5228834000009,1217.437264100001,1216.5228834000009,1218.1541910999986,f,0,1.623165600001812,None,direct,7,"[15, 16, 15, 16, 13, 14, 12, 14, 13, 15, 14, 15, 14, 15, 13, 14, 11, 12, 10, 15, 14, 16, 15, 17, 14, 15, 13, 14, 11, 12, 7]",31,shifteddirectgaze.png,f,0,3,results19,001,2026-04-14_14h15.59.219,mogelijke versie adaptive staircase builder,,2026.1.3,59.96393768792599,2026-04-14 14h15.59.495630 +0200,
20.5,ecc10neg,right,2,2,0,,,,,0,2,2,2,,,,,,,,,,,,,,,,,,,,,,,,,,,,,,,,,,,,,,results19,001,2026-04-14_14h15.59.219,mogelijke versie adaptive staircase builder,,2026.1.3,59.96393768792599,2026-04-14 14h15.59.495630 +0200,
