xPos,stimulusSet,whichImage,thisN,thisTrialN,thisRepN,key_resp.keys,key_resp.corr,key_resp.rt,key_resp.duration,blocks.thisRepN,blocks.thisTrialN,blocks.thisN,blocks.thisIndex,trials.thisRepN,trials.thisTrialN,trials.thisN,trials.thisIndex,thisRow.t,notes,piloting,intro.started,introinstructions.started,intro_key.started,demo_image_left.started,demo_image_middle.started,demo_image_right.started,intro.stopped,intro_key.keys,intro_key.rt,intro_key.duration,block_start.started,block_start.stopped,trial.started,key_resp.started,middle_image.started,right_image.started,left_image.started,trial.stopped,trials.key_resp.keys,trials.key_resp.corr,trials.key_resp.rt,trials.key_resp.duration,direction,angle,reversal_intensities,number_reversals,stimulus,response,correct,blockNumber,participant,session,date,expName,expVersion,psychopyVersion,frameRate,expStart,
,,,,,,,,,,,,,,,,,,,,False,0.051645100000314415,0.06346709999979794,0.06346709999979794,0.06346709999979794,0.06346709999979794,0.06346709999979794,2042.7757470999995,space,2042.5653846999994,0.13590300000032585,,,,,,,,,,,,,,,,,,,,,results4,001,2026-04-13_11h34.53.501,mogelijke versie adaptive staircase builder,,2026.1.3,60.02865768133538,2026-04-13 11h34.53.836065 +0200,
4.5,ecc10pos,left,0,0,0,j,1,16.86383459999979,None,0,0,0,0,0,0,0,0,2043.1330183999999,,,,,,,,,,,,,2043.0210232999998,2043.0210810999997,2043.1228665999997,2043.1330183999999,2043.1330183999999,2043.1330183999999,2044.0252467999999,2060.0085885999997,j,1,16.86383459999979,None,direct,20,[],0,shifteddirectgaze.png,j,1,1,results4,001,2026-04-13_11h34.53.501,mogelijke versie adaptive staircase builder,,2026.1.3,60.02865768133538,2026-04-13 11h34.53.836065 +0200,
4.5,ecc10pos,left,1,0,1,f,1,3.2409241999994265,None,0,0,0,0,1,0,1,0,2060.1318217999997,,,,,,,,,,,,,,,2060.1198731000004,2060.1318217999997,2060.1318217999997,2060.1318217999997,2061.0082083999996,2063.3751884000003,f,1,3.2409241999994265,None,left,19,[],0,shiftedgaze_L_19.png,f,1,1,results4,001,2026-04-13_11h34.53.501,mogelijke versie adaptive staircase builder,,2026.1.3,60.02865768133538,2026-04-13 11h34.53.836065 +0200,
4.5,ecc10pos,left,2,0,2,f,0,3.6300522999999885,None,0,0,0,0,2,0,2,0,2063.4868475000003,,,,,,,,,,,,,,,2063.4756864,2063.4868475000003,2063.4868475000003,2063.4868475000003,2064.3749672000004,2067.1252144,f,0,3.6300522999999885,None,direct,18,[18],1,shifteddirectgaze.png,f,0,1,results4,001,2026-04-13_11h34.53.501,mogelijke versie adaptive staircase builder,,2026.1.3,60.02865768133538,2026-04-13 11h34.53.836065 +0200,
4.5,ecc10pos,left,3,0,3,j,0,2.37061310000081,None,0,0,0,0,3,0,3,0,2067.2342580000004,,,,,,,,,,,,,,,2067.2241502999996,2067.2342580000004,2067.2342580000004,2067.2342580000004,2068.1248586,2069.6084142,j,0,2.37061310000081,None,right,19,[18],1,shiftedgaze_R_19.png,j,0,1,results4,001,2026-04-13_11h34.53.501,mogelijke versie adaptive staircase builder,,2026.1.3,60.02865768133538,2026-04-13 11h34.53.836065 +0200,
4.5,ecc10pos,left,4,0,4,f,1,3.996491199999582,None,0,0,0,0,4,0,4,0,2069.7203529999997,,,,,,,,,,,,,,,2069.7094079,2069.7203529999997,2069.7203529999997,2069.7203529999997,2070.6079822,2073.7252021000004,f,1,3.996491199999582,None,right,20,"[18, 20]",2,shiftedgaze_R_20.png,f,1,1,results4,001,2026-04-13_11h34.53.501,mogelijke versie adaptive staircase builder,,2026.1.3,60.02865768133538,2026-04-13 11h34.53.836065 +0200,
4.5,ecc10pos,left,5,0,5,f,1,2.1044475999997303,None,0,0,0,0,5,0,5,0,2073.8443151,,,,,,,,,,,,,,,2073.8326389000003,2073.8443151,2073.8443151,2073.8443151,2074.7244656000003,2075.9585133,f,1,2.1044475999997303,None,left,19,"[18, 20]",2,shiftedgaze_L_19.png,f,1,1,results4,001,2026-04-13_11h34.53.501,mogelijke versie adaptive staircase builder,,2026.1.3,60.02865768133538,2026-04-13 11h34.53.836065 +0200,
4.5,ecc10pos,left,6,0,6,j,0,4.107106200000089,None,0,0,0,0,6,0,6,0,2076.0656501000003,,,,,,,,,,,,,,,2076.0552679,2076.0656501000003,2076.0656501000003,2076.0656501000003,2076.9580632999996,2080.1750187999996,j,0,4.107106200000089,None,left,18,"[18, 20, 18]",3,shiftedgaze_L_18.png,j,0,1,results4,001,2026-04-13_11h34.53.501,mogelijke versie adaptive staircase builder,,2026.1.3,60.02865768133538,2026-04-13 11h34.53.836065 +0200,
4.5,ecc10pos,left,7,0,7,j,1,2.1408825999997134,None,0,0,0,0,7,0,7,0,2080.2879446999996,,,,,,,,,,,,,,,2080.2774329000003,2080.2879446999996,2080.2879446999996,2080.2879446999996,2081.1746958000003,2082.4416901000004,j,1,2.1408825999997134,None,direct,19,"[18, 20, 18, 19]",4,shifteddirectgaze.png,j,1,1,results4,001,2026-04-13_11h34.53.501,mogelijke versie adaptive staircase builder,,2026.1.3,60.02865768133538,2026-04-13 11h34.53.836065 +0200,
4.5,ecc10pos,left,8,0,8,f,1,2.114303600000312,None,0,0,0,0,8,0,8,0,2082.546539,,,,,,,,,,,,,,,2082.5353162,2082.546539,2082.546539,2082.546539,2083.4411281000002,2084.6749972,f,1,2.114303600000312,None,right,18,"[18, 20, 18, 19]",4,shiftedgaze_R_18.png,f,1,1,results4,001,2026-04-13_11h34.53.501,mogelijke versie adaptive staircase builder,,2026.1.3,60.02865768133538,2026-04-13 11h34.53.836065 +0200,
4.5,ecc10pos,left,9,0,9,j,0,2.2301305000000866,None,0,0,0,0,9,0,9,0,2084.7746375999996,,,,,,,,,,,,,,,2084.7645369,2084.7746375999996,2084.7746375999996,2084.7746375999996,2085.6744697000004,2087.0080363999996,j,0,2.2301305000000866,None,right,17,"[18, 20, 18, 19, 17]",5,shiftedgaze_R_17.png,j,0,1,results4,001,2026-04-13_11h34.53.501,mogelijke versie adaptive staircase builder,,2026.1.3,60.02865768133538,2026-04-13 11h34.53.836065 +0200,
4.5,ecc10pos,left,10,0,10,j,0,3.0806578000001537,None,0,0,0,0,10,0,10,0,2087.1010321000003,,,,,,,,,,,,,,,2087.0899098,2087.1010321000003,2087.1010321000003,2087.1010321000003,2088.0078513999997,2090.1916297999996,j,0,3.0806578000001537,None,right,18,"[18, 20, 18, 19, 17]",5,shiftedgaze_R_18.png,j,0,1,results4,001,2026-04-13_11h34.53.501,mogelijke versie adaptive staircase builder,,2026.1.3,60.02865768133538,2026-04-13 11h34.53.836065 +0200,
4.5,ecc10pos,left,11,0,11,j,0,1.94472610000048,None,0,0,0,0,11,0,11,0,2090.3081404000004,,,,,,,,,,,,,,,2090.2966641000003,2090.3081404000004,2090.3081404000004,2090.3081404000004,2091.1911319,2092.2580980000002,j,0,1.94472610000048,None,left,19,"[18, 20, 18, 19, 17]",5,shiftedgaze_L_19.png,j,0,1,results4,001,2026-04-13_11h34.53.501,mogelijke versie adaptive staircase builder,,2026.1.3,60.02865768133538,2026-04-13 11h34.53.836065 +0200,
4.5,ecc10pos,left,12,0,12,f,1,3.2407460000003994,None,0,0,0,0,12,0,12,0,2092.3641168000004,,,,,,,,,,,,,,,2092.3529596999997,2092.3641168000004,2092.3641168000004,2092.3641168000004,2093.2578272,2095.6080587999995,f,1,3.2407460000003994,None,left,20,"[18, 20, 18, 19, 17, 20]",6,shiftedgaze_L_20.png,f,1,1,results4,001,2026-04-13_11h34.53.501,mogelijke versie adaptive staircase builder,,2026.1.3,60.02865768133538,2026-04-13 11h34.53.836065 +0200,
4.5,ecc10pos,left,13,0,13,f,1,4.962864199999785,None,0,0,0,0,13,0,13,0,2095.7060284,,,,,,,,,,,,,,,2095.6945643999998,2095.7060284,2095.7060284,2095.7060284,2096.6077962,2100.6746292999997,f,1,4.962864199999785,None,left,19,"[18, 20, 18, 19, 17, 20]",6,shiftedgaze_L_19.png,f,1,1,results4,001,2026-04-13_11h34.53.501,mogelijke versie adaptive staircase builder,,2026.1.3,60.02865768133538,2026-04-13 11h34.53.836065 +0200,
4.5,ecc10pos,left,14,0,14,j,0,2.6885574999996606,None,0,0,0,0,14,0,14,0,2100.7722025000003,,,,,,,,,,,,,,,2100.7609875999997,2100.7722025000003,2100.7722025000003,2100.7722025000003,2101.6741703999996,2103.4744604999996,j,0,2.6885574999996606,None,left,18,"[18, 20, 18, 19, 17, 20, 18]",7,shiftedgaze_L_18.png,j,0,1,results4,001,2026-04-13_11h34.53.501,mogelijke versie adaptive staircase builder,,2026.1.3,60.02865768133538,2026-04-13 11h34.53.836065 +0200,
4.5,ecc10pos,left,15,0,15,j,0,1.882744300000013,None,0,0,0,0,15,0,15,0,2103.5860499,,,,,,,,,,,,,,,2103.5744273,2103.5860499,2103.5860499,2103.5860499,2104.4741569999996,2105.4747492999995,j,0,1.882744300000013,None,right,19,"[18, 20, 18, 19, 17, 20, 18]",7,shiftedgaze_R_19.png,j,0,1,results4,001,2026-04-13_11h34.53.501,mogelijke versie adaptive staircase builder,,2026.1.3,60.02865768133538,2026-04-13 11h34.53.836065 +0200,
4.5,ecc10pos,left,16,0,16,j,1,4.781038199999784,None,0,0,0,0,16,0,16,0,2105.5757231,,,,,,,,,,,,,,,2105.5652868999996,2105.5757231,2105.5757231,2105.5757231,2106.4743547999997,2110.3580806,j,1,4.781038199999784,None,direct,20,"[18, 20, 18, 19, 17, 20, 18, 20]",8,shifteddirectgaze.png,j,1,1,results4,001,2026-04-13_11h34.53.501,mogelijke versie adaptive staircase builder,,2026.1.3,60.02865768133538,2026-04-13 11h34.53.836065 +0200,
4.5,ecc10pos,left,17,0,17,f,1,3.8570090000002892,None,0,0,0,0,17,0,17,0,2110.4757142,,,,,,,,,,,,,,,2110.4642641,2110.4757142,2110.4757142,2110.4757142,2111.3576104000003,2114.3411134999997,f,1,3.8570090000002892,None,left,19,"[18, 20, 18, 19, 17, 20, 18, 20]",8,shiftedgaze_L_19.png,f,1,1,results4,001,2026-04-13_11h34.53.501,mogelijke versie adaptive staircase builder,,2026.1.3,60.02865768133538,2026-04-13 11h34.53.836065 +0200,
4.5,ecc10pos,left,18,0,18,f,1,3.087130299999444,None,0,0,0,0,18,0,18,0,2114.4538487,,,,,,,,,,,,,,,2114.4420344,2114.4538487,2114.4538487,2114.4538487,2115.3407454,2117.5578380999996,f,1,3.087130299999444,None,right,18,"[18, 20, 18, 19, 17, 20, 18, 20]",8,shiftedgaze_R_18.png,f,1,1,results4,001,2026-04-13_11h34.53.501,mogelijke versie adaptive staircase builder,,2026.1.3,60.02865768133538,2026-04-13 11h34.53.836065 +0200,
4.5,ecc10pos,left,19,0,19,j,0,2.07631610000044,None,0,0,0,0,19,0,19,0,2117.6808438999997,,,,,,,,,,,,,,,2117.6688342999996,2117.6808438999997,2117.6808438999997,2117.6808438999997,2118.5572382,2119.7577382,j,0,2.07631610000044,None,left,17,"[18, 20, 18, 19, 17, 20, 18, 20, 17]",9,shiftedgaze_L_17.png,j,0,1,results4,001,2026-04-13_11h34.53.501,mogelijke versie adaptive staircase builder,,2026.1.3,60.02865768133538,2026-04-13 11h34.53.836065 +0200,
4.5,ecc10pos,left,20,0,20,f,1,1.8408452000003308,None,0,0,0,0,20,0,20,0,2119.8678903,,,,,,,,,,,,,,,2119.8564608999995,2119.8678903,2119.8678903,2119.8678903,2120.7573976000003,2121.7244456999997,f,1,1.8408452000003308,None,right,18,"[18, 20, 18, 19, 17, 20, 18, 20, 17, 18]",10,shiftedgaze_R_18.png,f,1,1,results4,001,2026-04-13_11h34.53.501,mogelijke versie adaptive staircase builder,,2026.1.3,60.02865768133538,2026-04-13 11h34.53.836065 +0200,
4.5,ecc10pos,left,21,0,21,j,0,1.6412887999995291,None,0,0,0,0,21,0,21,0,2121.8196096,,,,,,,,,,,,,,,2121.8077599999997,2121.8196096,2121.8196096,2121.8196096,2122.7240073000003,2123.4744131999996,j,0,1.6412887999995291,None,right,17,"[18, 20, 18, 19, 17, 20, 18, 20, 17, 18, 17]",11,shiftedgaze_R_17.png,j,0,1,results4,001,2026-04-13_11h34.53.501,mogelijke versie adaptive staircase builder,,2026.1.3,60.02865768133538,2026-04-13 11h34.53.836065 +0200,
4.5,ecc10pos,left,22,0,22,j,0,1.6835764999996172,None,0,0,0,0,22,0,22,0,2123.5931680000003,,,,,,,,,,,,,,,2123.5810152000004,2123.5931680000003,2123.5931680000003,2123.5931680000003,2124.473822,2125.2909327999996,j,0,1.6835764999996172,None,left,18,"[18, 20, 18, 19, 17, 20, 18, 20, 17, 18, 17]",11,shiftedgaze_L_18.png,j,0,1,results4,001,2026-04-13_11h34.53.501,mogelijke versie adaptive staircase builder,,2026.1.3,60.02865768133538,2026-04-13 11h34.53.836065 +0200,
4.5,ecc10pos,left,23,0,23,j,0,2.307090999999673,None,0,0,0,0,23,0,23,0,2125.4016662000004,,,,,,,,,,,,,,,2125.3906335,2125.4016662000004,2125.4016662000004,2125.4016662000004,2126.2905178,2127.7244499999997,j,0,2.307090999999673,None,right,19,"[18, 20, 18, 19, 17, 20, 18, 20, 17, 18, 17]",11,shiftedgaze_R_19.png,j,0,1,results4,001,2026-04-13_11h34.53.501,mogelijke versie adaptive staircase builder,,2026.1.3,60.02865768133538,2026-04-13 11h34.53.836065 +0200,
4.5,ecc10pos,left,24,0,24,f,1,2.643505500000174,None,0,0,0,0,24,0,24,0,2127.841249,,,,,,,,,,,,,,,2127.8306365,2127.841249,2127.841249,2127.841249,2128.7238545,2130.4911135,f,1,2.643505500000174,None,left,20,"[18, 20, 18, 19, 17, 20, 18, 20, 17, 18, 17, 20]",12,shiftedgaze_L_20.png,f,1,1,results4,001,2026-04-13_11h34.53.501,mogelijke versie adaptive staircase builder,,2026.1.3,60.02865768133538,2026-04-13 11h34.53.836065 +0200,
4.5,ecc10pos,left,25,0,25,f,0,2.5719516999997722,None,0,0,0,0,25,0,25,0,2130.6008408999996,,,,,,,,,,,,,,,2130.5894978999995,2130.6008408999996,2130.6008408999996,2130.6008408999996,2131.4904012999996,2133.1742672,f,0,2.5719516999997722,None,direct,19,"[18, 20, 18, 19, 17, 20, 18, 20, 17, 18, 17, 20, 19]",13,shifteddirectgaze.png,f,0,1,results4,001,2026-04-13_11h34.53.501,mogelijke versie adaptive staircase builder,,2026.1.3,60.02865768133538,2026-04-13 11h34.53.836065 +0200,
4.5,ecc10pos,left,26,0,26,f,0,1.986138899999787,None,0,0,0,0,26,0,26,0,2133.2667395999997,,,,,,,,,,,,,,,2133.2559908000003,2133.2667395999997,2133.2667395999997,2133.2667395999997,2134.1739004,2135.2577179,f,0,1.986138899999787,None,direct,20,"[18, 20, 18, 19, 17, 20, 18, 20, 17, 18, 17, 20, 19]",13,shifteddirectgaze.png,f,0,1,results4,001,2026-04-13_11h34.53.501,mogelijke versie adaptive staircase builder,,2026.1.3,60.02865768133538,2026-04-13 11h34.53.836065 +0200,
4.5,ecc10pos,left,27,0,27,j,0,3.2625057000004745,None,0,0,0,0,27,0,27,0,2135.3742746,,,,,,,,,,,,,,,2135.3627562,2135.3742746,2135.3742746,2135.3742746,2136.2570303,2138.6405398999996,j,0,3.2625057000004745,None,left,20,"[18, 20, 18, 19, 17, 20, 18, 20, 17, 18, 17, 20, 19]",13,shiftedgaze_L_20.png,j,0,1,results4,001,2026-04-13_11h34.53.501,mogelijke versie adaptive staircase builder,,2026.1.3,60.02865768133538,2026-04-13 11h34.53.836065 +0200,
4.5,ecc10pos,left,28,0,28,j,0,5.3308106000004045,None,0,0,0,0,28,0,28,0,2138.7380838,,,,,,,,,,,,,,,2138.7264772,2138.7380838,2138.7380838,2138.7380838,2139.6402166,2144.0741528999997,j,0,5.3308106000004045,None,left,20,"[18, 20, 18, 19, 17, 20, 18, 20, 17, 18, 17, 20, 19]",13,shiftedgaze_L_20.png,j,0,1,results4,001,2026-04-13_11h34.53.501,mogelijke versie adaptive staircase builder,,2026.1.3,60.02865768133538,2026-04-13 11h34.53.836065 +0200,
4.5,ecc10pos,left,29,0,29,f,1,3.0807655999997223,None,0,0,0,0,29,0,29,0,2144.1720981,,,,,,,,,,,,,,,2144.1611541,2144.1720981,2144.1720981,2144.1720981,2145.0736264999996,2147.2574017999996,f,1,3.0807655999997223,None,left,20,"[18, 20, 18, 19, 17, 20, 18, 20, 17, 18, 17, 20, 19, 20]",14,shiftedgaze_L_20.png,f,1,1,results4,001,2026-04-13_11h34.53.501,mogelijke versie adaptive staircase builder,,2026.1.3,60.02865768133538,2026-04-13 11h34.53.836065 +0200,
4.5,ecc10pos,left,30,0,30,f,0,4.437954899999568,None,0,0,0,0,30,0,30,0,2147.3668959999995,,,,,,,,,,,,,,,2147.3557276,2147.3668959999995,2147.3668959999995,2147.3668959999995,2148.2568198999998,2151.8070933,f,0,4.437954899999568,None,direct,19,"[18, 20, 18, 19, 17, 20, 18, 20, 17, 18, 17, 20, 19, 20, 19]",15,shifteddirectgaze.png,f,0,1,results4,001,2026-04-13_11h34.53.501,mogelijke versie adaptive staircase builder,,2026.1.3,60.02865768133538,2026-04-13 11h34.53.836065 +0200,
4.5,ecc10pos,left,31,0,31,f,1,3.520836199999394,None,0,0,0,0,31,0,31,0,2151.9239221999997,,,,,,,,,,,,,,,2151.9122809,2151.9239221999997,2151.9239221999997,2151.9239221999997,2152.8066308999996,2155.4571697,f,1,3.520836199999394,None,left,20,"[18, 20, 18, 19, 17, 20, 18, 20, 17, 18, 17, 20, 19, 20, 19, 20]",16,shiftedgaze_L_20.png,f,1,1,results4,001,2026-04-13_11h34.53.501,mogelijke versie adaptive staircase builder,,2026.1.3,60.02865768133538,2026-04-13 11h34.53.836065 +0200,
4.5,ecc10pos,left,32,0,32,f,1,4.110137699999541,None,0,0,0,0,32,0,32,0,2155.5666764999996,,,,,,,,,,,,,,,2155.5550970000004,2155.5666764999996,2155.5666764999996,2155.5666764999996,2156.4568143999995,2159.6905275999998,f,1,4.110137699999541,None,right,19,"[18, 20, 18, 19, 17, 20, 18, 20, 17, 18, 17, 20, 19, 20, 19, 20]",16,shiftedgaze_R_19.png,f,1,1,results4,001,2026-04-13_11h34.53.501,mogelijke versie adaptive staircase builder,,2026.1.3,60.02865768133538,2026-04-13 11h34.53.836065 +0200,
4.5,ecc10pos,left,33,0,33,j,1,2.014109400000052,None,0,0,0,0,33,0,33,0,2159.7907402,,,,,,,,,,,,,,,2159.7811951000003,2159.7907402,2159.7907402,2159.7907402,2160.6901918000003,2161.8073403,j,1,2.014109400000052,None,direct,18,"[18, 20, 18, 19, 17, 20, 18, 20, 17, 18, 17, 20, 19, 20, 19, 20]",16,shifteddirectgaze.png,j,1,1,results4,001,2026-04-13_11h34.53.501,mogelijke versie adaptive staircase builder,,2026.1.3,60.02865768133538,2026-04-13 11h34.53.836065 +0200,
4.5,ecc10pos,left,34,0,34,f,0,5.07572909999999,None,0,0,0,0,34,0,34,0,2161.8973318,,,,,,,,,,,,,,,2161.8863309999997,2161.8973318,2161.8973318,2161.8973318,2162.8065938,2166.9736623,f,0,5.07572909999999,None,direct,17,"[18, 20, 18, 19, 17, 20, 18, 20, 17, 18, 17, 20, 19, 20, 19, 20, 17]",17,shifteddirectgaze.png,f,0,1,results4,001,2026-04-13_11h34.53.501,mogelijke versie adaptive staircase builder,,2026.1.3,60.02865768133538,2026-04-13 11h34.53.836065 +0200,
4.5,ecc10pos,left,35,0,35,f,1,3.5714293999999427,None,0,0,0,0,35,0,35,0,2167.0652982,,,,,,,,,,,,,,,2167.0546544999997,2167.0652982,2167.0652982,2167.0652982,2167.9735542999997,2170.6402833,f,1,3.5714293999999427,None,right,18,"[18, 20, 18, 19, 17, 20, 18, 20, 17, 18, 17, 20, 19, 20, 19, 20, 17, 18]",18,shiftedgaze_R_18.png,f,1,1,results4,001,2026-04-13_11h34.53.501,mogelijke versie adaptive staircase builder,,2026.1.3,60.02865768133538,2026-04-13 11h34.53.836065 +0200,
4.5,ecc10pos,left,36,0,36,f,1,4.832341400000587,None,0,0,0,0,36,0,36,0,2170.7324268,,,,,,,,,,,,,,,2170.7217565,2170.7324268,2170.7324268,2170.7324268,2171.6400016999996,2175.5735459999996,f,1,4.832341400000587,None,right,17,"[18, 20, 18, 19, 17, 20, 18, 20, 17, 18, 17, 20, 19, 20, 19, 20, 17, 18]",18,shiftedgaze_R_17.png,f,1,1,results4,001,2026-04-13_11h34.53.501,mogelijke versie adaptive staircase builder,,2026.1.3,60.02865768133538,2026-04-13 11h34.53.836065 +0200,
4.5,ecc10pos,left,37,0,37,j,0,2.8335271000005378,None,0,0,0,0,37,0,37,0,2175.6752513,,,,,,,,,,,,,,,2175.6639373999997,2175.6752513,2175.6752513,2175.6752513,2176.5731319999995,2178.5232370000003,j,0,2.8335271000005378,None,right,16,"[18, 20, 18, 19, 17, 20, 18, 20, 17, 18, 17, 20, 19, 20, 19, 20, 17, 18, 16]",19,shiftedgaze_R_16.png,j,0,1,results4,001,2026-04-13_11h34.53.501,mogelijke versie adaptive staircase builder,,2026.1.3,60.02865768133538,2026-04-13 11h34.53.836065 +0200,
4.5,ecc10pos,left,38,0,38,f,0,5.525246000000152,None,0,0,0,0,38,0,38,0,2178.6155222999996,,,,,,,,,,,,,,,2178.6029287,2178.6155222999996,2178.6155222999996,2178.6155222999996,2179.5231629,2184.1566307000003,f,0,5.525246000000152,None,direct,17,"[18, 20, 18, 19, 17, 20, 18, 20, 17, 18, 17, 20, 19, 20, 19, 20, 17, 18, 16]",19,shifteddirectgaze.png,f,0,1,results4,001,2026-04-13_11h34.53.501,mogelijke versie adaptive staircase builder,,2026.1.3,60.02865768133538,2026-04-13 11h34.53.836065 +0200,
4.5,ecc10pos,left,39,0,39,j,0,4.253727600000275,None,0,0,0,0,39,0,39,0,2184.2710289999995,,,,,,,,,,,,,,,2184.259731,2184.2710289999995,2184.2710289999995,2184.2710289999995,2185.1562027,2188.540062,j,0,4.253727600000275,None,left,18,"[18, 20, 18, 19, 17, 20, 18, 20, 17, 18, 17, 20, 19, 20, 19, 20, 17, 18, 16]",19,shiftedgaze_L_18.png,j,0,1,results4,001,2026-04-13_11h34.53.501,mogelijke versie adaptive staircase builder,,2026.1.3,60.02865768133538,2026-04-13 11h34.53.836065 +0200,
4.5,ecc10pos,left,40,0,40,f,1,2.7590430000000197,None,0,0,0,0,40,0,40,0,2188.6376422000003,,,,,,,,,,,,,,,2188.6263160999997,2188.6376422000003,2188.6376422000003,2188.6376422000003,2189.5395859,2191.4065638,f,1,2.7590430000000197,None,left,19,"[18, 20, 18, 19, 17, 20, 18, 20, 17, 18, 17, 20, 19, 20, 19, 20, 17, 18, 16, 19]",20,shiftedgaze_L_19.png,f,1,1,results4,001,2026-04-13_11h34.53.501,mogelijke versie adaptive staircase builder,,2026.1.3,60.02865768133538,2026-04-13 11h34.53.836065 +0200,
4.5,ecc10pos,left,41,0,41,f,1,2.5360865000002377,None,0,0,0,0,41,0,41,0,2191.5166461999997,,,,,,,,,,,,,,,2191.5055015999997,2191.5166461999997,2191.5166461999997,2191.5166461999997,2192.4061899,2194.0565569,f,1,2.5360865000002377,None,right,18,"[18, 20, 18, 19, 17, 20, 18, 20, 17, 18, 17, 20, 19, 20, 19, 20, 17, 18, 16, 19]",20,shiftedgaze_R_18.png,f,1,1,results4,001,2026-04-13_11h34.53.501,mogelijke versie adaptive staircase builder,,2026.1.3,60.02865768133538,2026-04-13 11h34.53.836065 +0200,
4.5,ecc10pos,left,42,0,42,j,0,2.9118258999997124,None,0,0,0,0,42,0,42,0,2194.148962,,,,,,,,,,,,,,,2194.1377730000004,2194.148962,2194.148962,2194.148962,2195.0562899999995,2197.0732265999995,j,0,2.9118258999997124,None,right,17,"[18, 20, 18, 19, 17, 20, 18, 20, 17, 18, 17, 20, 19, 20, 19, 20, 17, 18, 16, 19, 17]",21,shiftedgaze_R_17.png,j,0,1,results4,001,2026-04-13_11h34.53.501,mogelijke versie adaptive staircase builder,,2026.1.3,60.02865768133538,2026-04-13 11h34.53.836065 +0200,
4.5,ecc10pos,left,43,0,43,f,0,2.9053148000002693,None,0,0,0,0,43,0,43,0,2197.163415,,,,,,,,,,,,,,,2197.1528183,2197.163415,2197.163415,2197.163415,2198.0727497,2200.0733784000004,f,0,2.9053148000002693,None,direct,18,"[18, 20, 18, 19, 17, 20, 18, 20, 17, 18, 17, 20, 19, 20, 19, 20, 17, 18, 16, 19, 17]",21,shifteddirectgaze.png,f,0,1,results4,001,2026-04-13_11h34.53.501,mogelijke versie adaptive staircase builder,,2026.1.3,60.02865768133538,2026-04-13 11h34.53.836065 +0200,
4.5,ecc10pos,left,44,0,44,j,1,3.6014267999998992,None,0,0,0,0,44,0,44,0,2200.1633589000003,,,,,,,,,,,,,,,2200.1527404999997,2200.1633589000003,2200.1633589000003,2200.1633589000003,2201.0729413,2203.7731642,j,1,3.6014267999998992,None,direct,19,"[18, 20, 18, 19, 17, 20, 18, 20, 17, 18, 17, 20, 19, 20, 19, 20, 17, 18, 16, 19, 17, 19]",22,shifteddirectgaze.png,j,1,1,results4,001,2026-04-13_11h34.53.501,mogelijke versie adaptive staircase builder,,2026.1.3,60.02865768133538,2026-04-13 11h34.53.836065 +0200,
4.5,ecc10pos,left,45,0,45,f,1,5.026045300000078,None,0,0,0,0,45,0,45,0,2203.8666666,,,,,,,,,,,,,,,2203.8543309999995,2203.8666666,2203.8666666,2203.8666666,2204.7726777999997,2208.9064365000004,f,1,5.026045300000078,None,right,18,"[18, 20, 18, 19, 17, 20, 18, 20, 17, 18, 17, 20, 19, 20, 19, 20, 17, 18, 16, 19, 17, 19]",22,shiftedgaze_R_18.png,f,1,1,results4,001,2026-04-13_11h34.53.501,mogelijke versie adaptive staircase builder,,2026.1.3,60.02865768133538,2026-04-13 11h34.53.836065 +0200,
4.5,ecc10pos,left,46,0,46,f,0,4.014991400000326,None,0,0,0,0,46,0,46,0,2208.9978738,,,,,,,,,,,,,,,2208.9874569000003,2208.9978738,2208.9978738,2208.9978738,2209.9058320000004,2213.0230654999996,f,0,4.014991400000326,None,direct,17,"[18, 20, 18, 19, 17, 20, 18, 20, 17, 18, 17, 20, 19, 20, 19, 20, 17, 18, 16, 19, 17, 19, 17]",23,shifteddirectgaze.png,f,0,1,results4,001,2026-04-13_11h34.53.501,mogelijke versie adaptive staircase builder,,2026.1.3,60.02865768133538,2026-04-13 11h34.53.836065 +0200,
4.5,ecc10pos,left,47,0,47,j,0,1.881713700000546,None,0,0,0,0,47,0,47,0,2213.1149593,,,,,,,,,,,,,,,2213.1038901,2213.1149593,2213.1149593,2213.1149593,2214.0227422999997,2215.0061519,j,0,1.881713700000546,None,right,18,"[18, 20, 18, 19, 17, 20, 18, 20, 17, 18, 17, 20, 19, 20, 19, 20, 17, 18, 16, 19, 17, 19, 17]",23,shiftedgaze_R_18.png,j,0,1,results4,001,2026-04-13_11h34.53.501,mogelijke versie adaptive staircase builder,,2026.1.3,60.02865768133538,2026-04-13 11h34.53.836065 +0200,
4.5,ecc10pos,left,48,0,48,f,1,1.7452307999992627,None,0,0,0,0,48,0,48,0,2215.1074671999995,,,,,,,,,,,,,,,2215.0969785999996,2215.1074671999995,2215.1074671999995,2215.1074671999995,2216.0056170999997,2216.8562340999997,f,1,1.7452307999992627,None,right,19,"[18, 20, 18, 19, 17, 20, 18, 20, 17, 18, 17, 20, 19, 20, 19, 20, 17, 18, 16, 19, 17, 19, 17, 19]",24,shiftedgaze_R_19.png,f,1,1,results4,001,2026-04-13_11h34.53.501,mogelijke versie adaptive staircase builder,,2026.1.3,60.02865768133538,2026-04-13 11h34.53.836065 +0200,
4.5,ecc10pos,left,49,0,49,j,0,1.8391552000002775,None,0,0,0,0,49,0,49,0,2216.9737648,,,,,,,,,,,,,,,2216.9627250000003,2216.9737648,2216.9737648,2216.9737648,2217.8556965999996,2218.8229365999996,j,0,1.8391552000002775,None,left,18,"[18, 20, 18, 19, 17, 20, 18, 20, 17, 18, 17, 20, 19, 20, 19, 20, 17, 18, 16, 19, 17, 19, 17, 19, 18]",25,shiftedgaze_L_18.png,j,0,1,results4,001,2026-04-13_11h34.53.501,mogelijke versie adaptive staircase builder,,2026.1.3,60.02865768133538,2026-04-13 11h34.53.836065 +0200,
4.5,ecc10pos,left,50,0,50,j,0,2.128802000000178,None,0,0,0,0,50,0,50,0,2218.9319425000003,,,,,,,,,,,,,,,2218.9205086,2218.9319425000003,2218.9319425000003,2218.9319425000003,2219.8225964000003,2221.0727848999995,j,0,2.128802000000178,None,right,19,"[18, 20, 18, 19, 17, 20, 18, 20, 17, 18, 17, 20, 19, 20, 19, 20, 17, 18, 16, 19, 17, 19, 17, 19, 18]",25,shiftedgaze_R_19.png,j,0,1,results4,001,2026-04-13_11h34.53.501,mogelijke versie adaptive staircase builder,,2026.1.3,60.02865768133538,2026-04-13 11h34.53.836065 +0200,
4.5,ecc10pos,left,51,0,51,j,0,1.7936736000001474,None,0,0,0,0,51,0,51,0,2221.1870990999996,,,,,,,,,,,,,,,2221.1756531,2221.1870990999996,2221.1870990999996,2221.1870990999996,2222.0725203,2222.9896085,j,0,1.7936736000001474,None,left,20,"[18, 20, 18, 19, 17, 20, 18, 20, 17, 18, 17, 20, 19, 20, 19, 20, 17, 18, 16, 19, 17, 19, 17, 19, 18]",25,shiftedgaze_L_20.png,j,0,1,results4,001,2026-04-13_11h34.53.501,mogelijke versie adaptive staircase builder,,2026.1.3,60.02865768133538,2026-04-13 11h34.53.836065 +0200,
4.5,ecc10pos,left,52,0,52,j,1,2.3835251999998945,None,0,0,0,0,52,0,52,0,2223.1011867999996,,,,,,,,,,,,,,,2223.0876768,2223.1011867999996,2223.1011867999996,2223.1011867999996,2223.9893727,2225.4894883999996,j,1,2.3835251999998945,None,direct,20,"[18, 20, 18, 19, 17, 20, 18, 20, 17, 18, 17, 20, 19, 20, 19, 20, 17, 18, 16, 19, 17, 19, 17, 19, 18, 20]",26,shifteddirectgaze.png,j,1,1,results4,001,2026-04-13_11h34.53.501,mogelijke versie adaptive staircase builder,,2026.1.3,60.02865768133538,2026-04-13 11h34.53.836065 +0200,
4.5,ecc10pos,left,53,0,53,j,1,1.6775784000001295,None,0,0,0,0,53,0,53,0,2225.5831337,,,,,,,,,,,,,,,2225.571951,2225.5831337,2225.5831337,2225.5831337,2226.4891596999996,2227.2728341,j,1,1.6775784000001295,None,direct,19,"[18, 20, 18, 19, 17, 20, 18, 20, 17, 18, 17, 20, 19, 20, 19, 20, 17, 18, 16, 19, 17, 19, 17, 19, 18, 20]",26,shifteddirectgaze.png,j,1,1,results4,001,2026-04-13_11h34.53.501,mogelijke versie adaptive staircase builder,,2026.1.3,60.02865768133538,2026-04-13 11h34.53.836065 +0200,
4.5,ecc10pos,left,54,0,54,j,0,2.3053773000001456,None,0,0,0,0,54,0,54,0,2227.3633153,,,,,,,,,,,,,,,2227.3522328999998,2227.3633153,2227.3633153,2227.3633153,2228.2721599999995,2229.6728289000002,j,0,2.3053773000001456,None,right,18,"[18, 20, 18, 19, 17, 20, 18, 20, 17, 18, 17, 20, 19, 20, 19, 20, 17, 18, 16, 19, 17, 19, 17, 19, 18, 20, 18]",27,shiftedgaze_R_18.png,j,0,1,results4,001,2026-04-13_11h34.53.501,mogelijke versie adaptive staircase builder,,2026.1.3,60.02865768133538,2026-04-13 11h34.53.836065 +0200,
4.5,ecc10pos,left,55,0,55,j,0,3.262092500000108,None,0,0,0,0,55,0,55,0,2229.7906433999997,,,,,,,,,,,,,,,2229.7788306,2229.7906433999997,2229.7906433999997,2229.7906433999997,2230.6723412,2233.0558973999996,j,0,3.262092500000108,None,left,19,"[18, 20, 18, 19, 17, 20, 18, 20, 17, 18, 17, 20, 19, 20, 19, 20, 17, 18, 16, 19, 17, 19, 17, 19, 18, 20, 18]",27,shiftedgaze_L_19.png,j,0,1,results4,001,2026-04-13_11h34.53.501,mogelijke versie adaptive staircase builder,,2026.1.3,60.02865768133538,2026-04-13 11h34.53.836065 +0200,
4.5,ecc10pos,left,56,0,56,f,0,3.900125800000751,None,0,0,0,0,56,0,56,0,2233.1687652,,,,,,,,,,,,,,,2233.1576595999995,2233.1687652,2233.1687652,2233.1687652,2234.0557368,2237.0727146,f,0,3.900125800000751,None,direct,20,"[18, 20, 18, 19, 17, 20, 18, 20, 17, 18, 17, 20, 19, 20, 19, 20, 17, 18, 16, 19, 17, 19, 17, 19, 18, 20, 18]",27,shifteddirectgaze.png,f,0,1,results4,001,2026-04-13_11h34.53.501,mogelijke versie adaptive staircase builder,,2026.1.3,60.02865768133538,2026-04-13 11h34.53.836065 +0200,
4.5,ecc10pos,left,57,0,57,f,1,3.9978023000003304,None,0,0,0,0,57,0,57,0,2237.166953,,,,,,,,,,,,,,,2237.1544046999998,2237.166953,2237.166953,2237.166953,2238.0722072,2241.1726522999998,f,1,3.9978023000003304,None,right,20,"[18, 20, 18, 19, 17, 20, 18, 20, 17, 18, 17, 20, 19, 20, 19, 20, 17, 18, 16, 19, 17, 19, 17, 19, 18, 20, 18, 20]",28,shiftedgaze_R_20.png,f,1,1,results4,001,2026-04-13_11h34.53.501,mogelijke versie adaptive staircase builder,,2026.1.3,60.02865768133538,2026-04-13 11h34.53.836065 +0200,
4.5,ecc10pos,left,58,0,58,f,0,2.3160539999998946,None,0,0,0,0,58,0,58,0,2241.2647313999996,,,,,,,,,,,,,,,2241.2543726000004,2241.2647313999996,2241.2647313999996,2241.2647313999996,2242.1722259999997,2243.5892655,f,0,2.3160539999998946,None,direct,19,"[18, 20, 18, 19, 17, 20, 18, 20, 17, 18, 17, 20, 19, 20, 19, 20, 17, 18, 16, 19, 17, 19, 17, 19, 18, 20, 18, 20, 19]",29,shifteddirectgaze.png,f,0,1,results4,001,2026-04-13_11h34.53.501,mogelijke versie adaptive staircase builder,,2026.1.3,60.02865768133538,2026-04-13 11h34.53.836065 +0200,
4.5,ecc10pos,left,59,0,59,f,1,2.3012337999998635,None,0,0,0,0,59,0,59,0,2243.6795019,,,,,,,,,,,,,,,2243.6694289999996,2243.6795019,2243.6795019,2243.6795019,2244.5888515999995,2245.9897585999997,f,1,2.3012337999998635,None,right,20,"[18, 20, 18, 19, 17, 20, 18, 20, 17, 18, 17, 20, 19, 20, 19, 20, 17, 18, 16, 19, 17, 19, 17, 19, 18, 20, 18, 20, 19, 20]",30,shiftedgaze_R_20.png,f,1,1,results4,001,2026-04-13_11h34.53.501,mogelijke versie adaptive staircase builder,,2026.1.3,60.02865768133538,2026-04-13 11h34.53.836065 +0200,
4.5,ecc10pos,left,0,0,0,,,,,0,0,0,0,,,,,,,,,,,,,,,,,,,,,,,,,,,,,,,,,,,,,,results4,001,2026-04-13_11h34.53.501,mogelijke versie adaptive staircase builder,,2026.1.3,60.02865768133538,2026-04-13 11h34.53.836065 +0200,
12.5,ecc0,mid,0,0,0,f,1,3.736891100000321,None,0,1,1,1,0,0,0,0,2246.0998333,,,,,,,,,,,,,2245.9924803000004,2245.9925276000004,2246.0886766000003,2246.0998333,2247.0056748999996,2246.0998333,2246.0998333,2249.8394434,f,1,3.736891100000321,None,right,20,[],0,gaze_R_20.png,f,1,2,results4,001,2026-04-13_11h34.53.501,mogelijke versie adaptive staircase builder,,2026.1.3,60.02865768133538,2026-04-13 11h34.53.836065 +0200,
12.5,ecc0,mid,1,0,1,f,1,4.648748800000249,None,0,1,1,1,1,0,1,0,2249.948002,,,,,,,,,,,,,,,2249.9374749999997,2249.948002,2250.8553914000004,2249.948002,2249.948002,2254.6060246999996,f,1,4.648748800000249,None,left,19,[],0,gaze_L_19.png,f,1,2,results4,001,2026-04-13_11h34.53.501,mogelijke versie adaptive staircase builder,,2026.1.3,60.02865768133538,2026-04-13 11h34.53.836065 +0200,
12.5,ecc0,mid,2,0,2,f,1,2.5127401999998256,None,0,1,1,1,2,0,2,0,2254.7082167,,,,,,,,,,,,,,,2254.6974993000003,2254.7082167,2255.6053668000004,2254.7082167,2254.7082167,2257.2224001000004,f,1,2.5127401999998256,None,right,18,[],0,gaze_R_18.png,f,1,2,results4,001,2026-04-13_11h34.53.501,mogelijke versie adaptive staircase builder,,2026.1.3,60.02865768133538,2026-04-13 11h34.53.836065 +0200,
12.5,ecc0,mid,3,0,3,j,1,2.3556994000000486,None,0,1,1,1,3,0,3,0,2257.3210804,,,,,,,,,,,,,,,2257.3100464,2257.3210804,2258.2223144,2257.3210804,2257.3210804,2259.6890609,j,1,2.3556994000000486,None,direct,17,[],0,direct_gaze.png,j,1,2,results4,001,2026-04-13_11h34.53.501,mogelijke versie adaptive staircase builder,,2026.1.3,60.02865768133538,2026-04-13 11h34.53.836065 +0200,
12.5,ecc0,mid,4,0,4,f,1,2.256213700000444,None,0,1,1,1,4,0,4,0,2259.7885556,,,,,,,,,,,,,,,2259.7779414999995,2259.7885556,2260.6885616,2259.7885556,2259.7885556,2262.0556159,f,1,2.256213700000444,None,right,16,[],0,gaze_R_16.png,f,1,2,results4,001,2026-04-13_11h34.53.501,mogelijke versie adaptive staircase builder,,2026.1.3,60.02865768133538,2026-04-13 11h34.53.836065 +0200,
12.5,ecc0,mid,5,0,5,f,1,3.146406100000604,None,0,1,1,1,5,0,5,0,2262.1544044,,,,,,,,,,,,,,,2262.1438625,2262.1544044,2263.055241,2262.1544044,2262.1544044,2265.3056014000003,f,1,3.146406100000604,None,right,15,[],0,gaze_R_15.png,f,1,2,results4,001,2026-04-13_11h34.53.501,mogelijke versie adaptive staircase builder,,2026.1.3,60.02865768133538,2026-04-13 11h34.53.836065 +0200,
12.5,ecc0,mid,6,0,6,j,0,3.1295640999996976,None,0,1,1,1,6,0,6,0,2265.4031875,,,,,,,,,,,,,,,2265.3925202,2265.4031875,2266.3052174000004,2265.4031875,2265.4031875,2268.5387708999997,j,0,3.1295640999996976,None,left,14,[14],1,gaze_L_14.png,j,0,2,results4,001,2026-04-13_11h34.53.501,mogelijke versie adaptive staircase builder,,2026.1.3,60.02865768133538,2026-04-13 11h34.53.836065 +0200,
12.5,ecc0,mid,7,0,7,f,1,4.112860600000204,None,0,1,1,1,7,0,7,0,2268.6279422999996,,,,,,,,,,,,,,,2268.6171836000003,2268.6279422999996,2269.5384178000004,2268.6279422999996,2268.6279422999996,2272.7554351,f,1,4.112860600000204,None,right,15,"[14, 15]",2,gaze_R_15.png,f,1,2,results4,001,2026-04-13_11h34.53.501,mogelijke versie adaptive staircase builder,,2026.1.3,60.02865768133538,2026-04-13 11h34.53.836065 +0200,
12.5,ecc0,mid,8,0,8,f,1,1.9798773000002257,None,0,1,1,1,8,0,8,0,2272.8489391000003,,,,,,,,,,,,,,,2272.8369407,2272.8489391000003,2273.7551492000002,2272.8489391000003,2272.8489391000003,2274.8387521000004,f,1,1.9798773000002257,None,left,14,"[14, 15]",2,gaze_L_14.png,f,1,2,results4,001,2026-04-13_11h34.53.501,mogelijke versie adaptive staircase builder,,2026.1.3,60.02865768133538,2026-04-13 11h34.53.836065 +0200,
12.5,ecc0,mid,9,0,9,j,0,4.340451999999459,None,0,1,1,1,9,0,9,0,2274.9363544,,,,,,,,,,,,,,,2274.9258051999996,2274.9363544,2275.8383747,2274.9363544,2274.9363544,2279.2887017000003,j,0,4.340451999999459,None,left,13,"[14, 15, 13]",3,gaze_L_13.png,j,0,2,results4,001,2026-04-13_11h34.53.501,mogelijke versie adaptive staircase builder,,2026.1.3,60.02865768133538,2026-04-13 11h34.53.836065 +0200,
12.5,ecc0,mid,10,0,10,f,0,3.0430170999998154,None,0,1,1,1,10,0,10,0,2279.3777231000004,,,,,,,,,,,,,,,2279.3670122000003,2279.3777231000004,2280.2883183000004,2279.3777231000004,2279.3777231000004,2282.4220171999996,f,0,3.0430170999998154,None,direct,14,"[14, 15, 13]",3,direct_gaze.png,f,0,2,results4,001,2026-04-13_11h34.53.501,mogelijke versie adaptive staircase builder,,2026.1.3,60.02865768133538,2026-04-13 11h34.53.836065 +0200,
12.5,ecc0,mid,11,0,11,f,0,2.8029513000001316,None,0,1,1,1,11,0,11,0,2282.5138981,,,,,,,,,,,,,,,2282.502477,2282.5138981,2283.4217026999995,2282.5138981,2282.5138981,2285.3219802000003,f,0,2.8029513000001316,None,direct,15,"[14, 15, 13]",3,direct_gaze.png,f,0,2,results4,001,2026-04-13_11h34.53.501,mogelijke versie adaptive staircase builder,,2026.1.3,60.02865768133538,2026-04-13 11h34.53.836065 +0200,
12.5,ecc0,mid,12,0,12,f,1,2.3181894999997894,None,0,1,1,1,12,0,12,0,2285.414525,,,,,,,,,,,,,,,2285.4036438000003,2285.414525,2286.3214569,2285.414525,2285.414525,2287.7385575,f,1,2.3181894999997894,None,right,16,"[14, 15, 13, 16]",4,gaze_R_16.png,f,1,2,results4,001,2026-04-13_11h34.53.501,mogelijke versie adaptive staircase builder,,2026.1.3,60.02865768133538,2026-04-13 11h34.53.836065 +0200,
12.5,ecc0,mid,13,0,13,j,0,1.6249065000001792,None,0,1,1,1,13,0,13,0,2287.8360666999997,,,,,,,,,,,,,,,2287.8253034,2287.8360666999997,2288.7382883,2287.8360666999997,2287.8360666999997,2289.4717622,j,0,1.6249065000001792,None,left,15,"[14, 15, 13, 16, 15]",5,gaze_L_15.png,j,0,2,results4,001,2026-04-13_11h34.53.501,mogelijke versie adaptive staircase builder,,2026.1.3,60.02865768133538,2026-04-13 11h34.53.836065 +0200,
12.5,ecc0,mid,14,0,14,j,1,1.8354488000004494,None,0,1,1,1,14,0,14,0,2289.5613286,,,,,,,,,,,,,,,2289.5508963,2289.5613286,2290.4712815000003,2289.5613286,2289.5613286,2291.4053096,j,1,1.8354488000004494,None,direct,16,"[14, 15, 13, 16, 15, 16]",6,direct_gaze.png,j,1,2,results4,001,2026-04-13_11h34.53.501,mogelijke versie adaptive staircase builder,,2026.1.3,60.02865768133538,2026-04-13 11h34.53.836065 +0200,
12.5,ecc0,mid,15,0,15,f,1,1.9763341999996555,None,0,1,1,1,15,0,15,0,2291.5003662999998,,,,,,,,,,,,,,,2291.4895770000003,2291.5003662999998,2292.4048836,2291.5003662999998,2291.5003662999998,2293.4883772000003,f,1,1.9763341999996555,None,right,15,"[14, 15, 13, 16, 15, 16]",6,gaze_R_15.png,f,1,2,results4,001,2026-04-13_11h34.53.501,mogelijke versie adaptive staircase builder,,2026.1.3,60.02865768133538,2026-04-13 11h34.53.836065 +0200,
12.5,ecc0,mid,16,0,16,f,1,3.0593039000004865,None,0,1,1,1,16,0,16,0,2293.5853964999997,,,,,,,,,,,,,,,2293.574318,2293.5853964999997,2294.4881053999998,2293.5853964999997,2293.5853964999997,2296.6551171,f,1,3.0593039000004865,None,right,14,"[14, 15, 13, 16, 15, 16]",6,gaze_R_14.png,f,1,2,results4,001,2026-04-13_11h34.53.501,mogelijke versie adaptive staircase builder,,2026.1.3,60.02865768133538,2026-04-13 11h34.53.836065 +0200,
12.5,ecc0,mid,17,0,17,f,1,1.9717614999999569,None,0,1,1,1,17,0,17,0,2296.7530239999996,,,,,,,,,,,,,,,2296.7427208,2296.7530239999996,2297.6546058000004,2296.7530239999996,2296.7530239999996,2298.7385052,f,1,1.9717614999999569,None,right,13,"[14, 15, 13, 16, 15, 16]",6,gaze_R_13.png,f,1,2,results4,001,2026-04-13_11h34.53.501,mogelijke versie adaptive staircase builder,,2026.1.3,60.02865768133538,2026-04-13 11h34.53.836065 +0200,
12.5,ecc0,mid,18,0,18,j,1,1.7734572999997908,None,0,1,1,1,18,0,18,0,2298.8317325999997,,,,,,,,,,,,,,,2298.8204705,2298.8317325999997,2299.7386026000004,2298.8317325999997,2298.8317325999997,2300.6216735999997,j,1,1.7734572999997908,None,direct,12,"[14, 15, 13, 16, 15, 16]",6,direct_gaze.png,j,1,2,results4,001,2026-04-13_11h34.53.501,mogelijke versie adaptive staircase builder,,2026.1.3,60.02865768133538,2026-04-13 11h34.53.836065 +0200,
12.5,ecc0,mid,19,0,19,j,0,2.644405899999583,None,0,1,1,1,19,0,19,0,2300.7203006,,,,,,,,,,,,,,,2300.7096051999997,2300.7203006,2301.6214288,2300.7203006,2300.7203006,2303.3719497,j,0,2.644405899999583,None,left,11,"[14, 15, 13, 16, 15, 16, 11]",7,gaze_L_11.png,j,0,2,results4,001,2026-04-13_11h34.53.501,mogelijke versie adaptive staircase builder,,2026.1.3,60.02865768133538,2026-04-13 11h34.53.836065 +0200,
12.5,ecc0,mid,20,0,20,j,1,3.117656600000373,None,0,1,1,1,20,0,20,0,2303.4710913999998,,,,,,,,,,,,,,,2303.4603802,2303.4710913999998,2304.3712272000002,2303.4710913999998,2303.4710913999998,2306.6050154000004,j,1,3.117656600000373,None,direct,12,"[14, 15, 13, 16, 15, 16, 11, 12]",8,direct_gaze.png,j,1,2,results4,001,2026-04-13_11h34.53.501,mogelijke versie adaptive staircase builder,,2026.1.3,60.02865768133538,2026-04-13 11h34.53.836065 +0200,
12.5,ecc0,mid,21,0,21,j,0,2.029709399999774,None,0,1,1,1,21,0,21,0,2306.694985,,,,,,,,,,,,,,,2306.6840381,2306.694985,2307.6044384999996,2306.694985,2306.694985,2308.7386023999998,j,0,2.029709399999774,None,left,11,"[14, 15, 13, 16, 15, 16, 11, 12, 11]",9,gaze_L_11.png,j,0,2,results4,001,2026-04-13_11h34.53.501,mogelijke versie adaptive staircase builder,,2026.1.3,60.02865768133538,2026-04-13 11h34.53.836065 +0200,
12.5,ecc0,mid,22,0,22,f,1,2.538796700000603,None,0,1,1,1,22,0,22,0,2308.8419809999996,,,,,,,,,,,,,,,2308.8309499999996,2308.8419809999996,2309.7545309999996,2308.8419809999996,2308.8419809999996,2311.3882593,f,1,2.538796700000603,None,left,12,"[14, 15, 13, 16, 15, 16, 11, 12, 11, 12]",10,gaze_L_12.png,f,1,2,results4,001,2026-04-13_11h34.53.501,mogelijke versie adaptive staircase builder,,2026.1.3,60.02865768133538,2026-04-13 11h34.53.836065 +0200,
12.5,ecc0,mid,23,0,23,j,0,2.293650799999341,None,0,1,1,1,23,0,23,0,2311.4791046,,,,,,,,,,,,,,,2311.4684043999996,2311.4791046,2312.3878323,2311.4791046,2311.4791046,2313.7881508,j,0,2.293650799999341,None,left,11,"[14, 15, 13, 16, 15, 16, 11, 12, 11, 12, 11]",11,gaze_L_11.png,j,0,2,results4,001,2026-04-13_11h34.53.501,mogelijke versie adaptive staircase builder,,2026.1.3,60.02865768133538,2026-04-13 11h34.53.836065 +0200,
12.5,ecc0,mid,24,0,24,f,0,1.6224795999996786,None,0,1,1,1,24,0,24,0,2313.8783348999996,,,,,,,,,,,,,,,2313.8675652,2313.8783348999996,2314.7879959,2313.8783348999996,2313.8783348999996,2315.5047695000003,f,0,1.6224795999996786,None,direct,12,"[14, 15, 13, 16, 15, 16, 11, 12, 11, 12, 11]",11,direct_gaze.png,f,0,2,results4,001,2026-04-13_11h34.53.501,mogelijke versie adaptive staircase builder,,2026.1.3,60.02865768133538,2026-04-13 11h34.53.836065 +0200,
12.5,ecc0,mid,25,0,25,j,0,1.7118424999998751,None,0,1,1,1,25,0,25,0,2315.5970135999996,,,,,,,,,,,,,,,2315.5867201,2315.5970135999996,2316.5044226,2315.5970135999996,2315.5970135999996,2317.3215087999997,j,0,1.7118424999998751,None,right,13,"[14, 15, 13, 16, 15, 16, 11, 12, 11, 12, 11]",11,gaze_R_13.png,j,0,2,results4,001,2026-04-13_11h34.53.501,mogelijke versie adaptive staircase builder,,2026.1.3,60.02865768133538,2026-04-13 11h34.53.836065 +0200,
12.5,ecc0,mid,26,0,26,j,1,2.280299500000183,None,0,1,1,1,26,0,26,0,2317.4124254,,,,,,,,,,,,,,,2317.4015588,2317.4124254,2318.3208862,2317.4124254,2317.4124254,2319.7046502000003,j,1,2.280299500000183,None,direct,14,"[14, 15, 13, 16, 15, 16, 11, 12, 11, 12, 11, 14]",12,direct_gaze.png,j,1,2,results4,001,2026-04-13_11h34.53.501,mogelijke versie adaptive staircase builder,,2026.1.3,60.02865768133538,2026-04-13 11h34.53.836065 +0200,
12.5,ecc0,mid,27,0,27,f,0,2.6978203999997277,None,0,1,1,1,27,0,27,0,2319.7948804,,,,,,,,,,,,,,,2319.7837762999998,2319.7948804,2320.7041582,2319.7948804,2319.7948804,2322.5046934,f,0,2.6978203999997277,None,direct,13,"[14, 15, 13, 16, 15, 16, 11, 12, 11, 12, 11, 14, 13]",13,direct_gaze.png,f,0,2,results4,001,2026-04-13_11h34.53.501,mogelijke versie adaptive staircase builder,,2026.1.3,60.02865768133538,2026-04-13 11h34.53.836065 +0200,
12.5,ecc0,mid,28,0,28,f,0,3.7035439999999653,None,0,1,1,1,28,0,28,0,2322.5972503000003,,,,,,,,,,,,,,,2322.5856427999997,2322.5972503000003,2323.5042482999997,2322.5972503000003,2322.5972503000003,2326.3046991,f,0,3.7035439999999653,None,direct,14,"[14, 15, 13, 16, 15, 16, 11, 12, 11, 12, 11, 14, 13]",13,direct_gaze.png,f,0,2,results4,001,2026-04-13_11h34.53.501,mogelijke versie adaptive staircase builder,,2026.1.3,60.02865768133538,2026-04-13 11h34.53.836065 +0200,
12.5,ecc0,mid,29,0,29,f,1,3.592033800000536,None,0,1,1,1,29,0,29,0,2326.3966370999997,,,,,,,,,,,,,,,2326.3860225,2326.3966370999997,2327.3043108,2326.3966370999997,2326.3966370999997,2330.0044262,f,1,3.592033800000536,None,right,15,"[14, 15, 13, 16, 15, 16, 11, 12, 11, 12, 11, 14, 13, 15]",14,gaze_R_15.png,f,1,2,results4,001,2026-04-13_11h34.53.501,mogelijke versie adaptive staircase builder,,2026.1.3,60.02865768133538,2026-04-13 11h34.53.836065 +0200,
12.5,ecc0,mid,30,0,30,j,0,1.591288400000849,None,0,1,1,1,30,0,30,0,2330.0934802,,,,,,,,,,,,,,,2330.0826783,2330.0934802,2331.0043318999997,2330.0934802,2330.0934802,2331.6879937000003,j,0,1.591288400000849,None,right,14,"[14, 15, 13, 16, 15, 16, 11, 12, 11, 12, 11, 14, 13, 15, 14]",15,gaze_R_14.png,j,0,2,results4,001,2026-04-13_11h34.53.501,mogelijke versie adaptive staircase builder,,2026.1.3,60.02865768133538,2026-04-13 11h34.53.836065 +0200,
12.5,ecc0,mid,31,0,31,j,0,1.8344822999997632,None,0,1,1,1,31,0,31,0,2331.7782082000003,,,,,,,,,,,,,,,2331.7672124,2331.7782082000003,2332.6875197,2331.7782082000003,2331.7782082000003,2333.6213582,j,0,1.8344822999997632,None,left,15,"[14, 15, 13, 16, 15, 16, 11, 12, 11, 12, 11, 14, 13, 15, 14]",15,gaze_L_15.png,j,0,2,results4,001,2026-04-13_11h34.53.501,mogelijke versie adaptive staircase builder,,2026.1.3,60.02865768133538,2026-04-13 11h34.53.836065 +0200,
12.5,ecc0,mid,32,0,32,j,1,5.748091000000386,None,0,1,1,1,32,0,32,0,2333.7126586000004,,,,,,,,,,,,,,,2333.7015641,2333.7126586000004,2334.6206111,2333.7126586000004,2333.7126586000004,2339.471361,j,1,5.748091000000386,None,direct,16,"[14, 15, 13, 16, 15, 16, 11, 12, 11, 12, 11, 14, 13, 15, 14, 16]",16,direct_gaze.png,j,1,2,results4,001,2026-04-13_11h34.53.501,mogelijke versie adaptive staircase builder,,2026.1.3,60.02865768133538,2026-04-13 11h34.53.836065 +0200,
12.5,ecc0,mid,33,0,33,j,1,4.803006799999821,None,0,1,1,1,33,0,33,0,2339.5696522999997,,,,,,,,,,,,,,,2339.5590740999996,2339.5696522999997,2340.4874557000003,2339.5696522999997,2339.5696522999997,2344.3878336999996,j,1,4.803006799999821,None,direct,15,"[14, 15, 13, 16, 15, 16, 11, 12, 11, 12, 11, 14, 13, 15, 14, 16]",16,direct_gaze.png,j,1,2,results4,001,2026-04-13_11h34.53.501,mogelijke versie adaptive staircase builder,,2026.1.3,60.02865768133538,2026-04-13 11h34.53.836065 +0200,
12.5,ecc0,mid,34,0,34,j,1,1.854784500000278,None,0,1,1,1,34,0,34,0,2344.4778497999996,,,,,,,,,,,,,,,2344.4677334,2344.4778497999996,2345.387433,2344.4778497999996,2344.4778497999996,2346.3376599000003,j,1,1.854784500000278,None,direct,14,"[14, 15, 13, 16, 15, 16, 11, 12, 11, 12, 11, 14, 13, 15, 14, 16]",16,direct_gaze.png,j,1,2,results4,001,2026-04-13_11h34.53.501,mogelijke versie adaptive staircase builder,,2026.1.3,60.02865768133538,2026-04-13 11h34.53.836065 +0200,
12.5,ecc0,mid,35,0,35,j,0,2.9974873999999545,None,0,1,1,1,35,0,35,0,2346.4312471000003,,,,,,,,,,,,,,,2346.4195560999997,2346.4312471000003,2347.3373614,2346.4312471000003,2346.4312471000003,2349.4376689,j,0,2.9974873999999545,None,right,13,"[14, 15, 13, 16, 15, 16, 11, 12, 11, 12, 11, 14, 13, 15, 14, 16, 13]",17,gaze_R_13.png,j,0,2,results4,001,2026-04-13_11h34.53.501,mogelijke versie adaptive staircase builder,,2026.1.3,60.02865768133538,2026-04-13 11h34.53.836065 +0200,
12.5,ecc0,mid,36,0,36,f,1,1.8042456000002858,None,0,1,1,1,36,0,36,0,2349.5284097000003,,,,,,,,,,,,,,,2349.5179875000003,2349.5284097000003,2350.4373108,2349.5284097000003,2349.5284097000003,2351.3374440999996,f,1,1.8042456000002858,None,right,14,"[14, 15, 13, 16, 15, 16, 11, 12, 11, 12, 11, 14, 13, 15, 14, 16, 13, 14]",18,gaze_R_14.png,f,1,2,results4,001,2026-04-13_11h34.53.501,mogelijke versie adaptive staircase builder,,2026.1.3,60.02865768133538,2026-04-13 11h34.53.836065 +0200,
12.5,ecc0,mid,37,0,37,j,0,2.7611191999994844,None,0,1,1,1,37,0,37,0,2351.4276204999996,,,,,,,,,,,,,,,2351.4167083,2351.4276204999996,2352.3372520000003,2351.4276204999996,2351.4276204999996,2354.2042356,j,0,2.7611191999994844,None,right,13,"[14, 15, 13, 16, 15, 16, 11, 12, 11, 12, 11, 14, 13, 15, 14, 16, 13, 14, 13]",19,gaze_R_13.png,j,0,2,results4,001,2026-04-13_11h34.53.501,mogelijke versie adaptive staircase builder,,2026.1.3,60.02865768133538,2026-04-13 11h34.53.836065 +0200,
12.5,ecc0,mid,38,0,38,f,1,3.5719121000001905,None,0,1,1,1,38,0,38,0,2354.2968103000003,,,,,,,,,,,,,,,2354.2866830000003,2354.2968103000003,2355.2038224999997,2354.2968103000003,2354.2968103000003,2357.8708348,f,1,3.5719121000001905,None,right,14,"[14, 15, 13, 16, 15, 16, 11, 12, 11, 12, 11, 14, 13, 15, 14, 16, 13, 14, 13, 14]",20,gaze_R_14.png,f,1,2,results4,001,2026-04-13_11h34.53.501,mogelijke versie adaptive staircase builder,,2026.1.3,60.02865768133538,2026-04-13 11h34.53.836065 +0200,
12.5,ecc0,mid,39,0,39,f,1,3.9705544999997073,None,0,1,1,1,39,0,39,0,2357.9620875,,,,,,,,,,,,,,,2357.9518334000004,2357.9620875,2358.8704488000003,2357.9620875,2357.9620875,2361.9372206999997,f,1,3.9705544999997073,None,right,13,"[14, 15, 13, 16, 15, 16, 11, 12, 11, 12, 11, 14, 13, 15, 14, 16, 13, 14, 13, 14]",20,gaze_R_13.png,f,1,2,results4,001,2026-04-13_11h34.53.501,mogelijke versie adaptive staircase builder,,2026.1.3,60.02865768133538,2026-04-13 11h34.53.836065 +0200,
12.5,ecc0,mid,40,0,40,j,0,2.5289814000007027,None,0,1,1,1,40,0,40,0,2362.0277045000003,,,,,,,,,,,,,,,2362.0164686,2362.0277045000003,2362.9368499,2362.0277045000003,2362.0277045000003,2364.5706818999997,j,0,2.5289814000007027,None,left,12,"[14, 15, 13, 16, 15, 16, 11, 12, 11, 12, 11, 14, 13, 15, 14, 16, 13, 14, 13, 14, 12]",21,gaze_L_12.png,j,0,2,results4,001,2026-04-13_11h34.53.501,mogelijke versie adaptive staircase builder,,2026.1.3,60.02865768133538,2026-04-13 11h34.53.836065 +0200,
12.5,ecc0,mid,41,0,41,f,1,4.983201200000622,None,0,1,1,1,41,0,41,0,2364.6615426999997,,,,,,,,,,,,,,,2364.6507675000003,2364.6615426999997,2365.5704262,2364.6615426999997,2364.6615426999997,2369.6538917,f,1,4.983201200000622,None,right,13,"[14, 15, 13, 16, 15, 16, 11, 12, 11, 12, 11, 14, 13, 15, 14, 16, 13, 14, 13, 14, 12, 13]",22,gaze_R_13.png,f,1,2,results4,001,2026-04-13_11h34.53.501,mogelijke versie adaptive staircase builder,,2026.1.3,60.02865768133538,2026-04-13 11h34.53.836065 +0200,
12.5,ecc0,mid,42,0,42,j,0,4.515537199999017,None,0,1,1,1,42,0,42,0,2369.753305,,,,,,,,,,,,,,,2369.7425651000003,2369.753305,2370.6536469000002,2369.753305,2369.753305,2374.270663800001,j,0,4.515537199999017,None,right,12,"[14, 15, 13, 16, 15, 16, 11, 12, 11, 12, 11, 14, 13, 15, 14, 16, 13, 14, 13, 14, 12, 13, 12]",23,gaze_R_12.png,j,0,2,results4,001,2026-04-13_11h34.53.501,mogelijke versie adaptive staircase builder,,2026.1.3,60.02865768133538,2026-04-13 11h34.53.836065 +0200,
12.5,ecc0,mid,43,0,43,f,1,5.522688099999868,None,0,1,1,1,43,0,43,0,2374.3621747999996,,,,,,,,,,,,,,,2374.350663800001,2374.3621747999996,2375.2702677999996,2374.3621747999996,2374.3621747999996,2379.8872303,f,1,5.522688099999868,None,left,13,"[14, 15, 13, 16, 15, 16, 11, 12, 11, 12, 11, 14, 13, 15, 14, 16, 13, 14, 13, 14, 12, 13, 12, 13]",24,gaze_L_13.png,f,1,2,results4,001,2026-04-13_11h34.53.501,mogelijke versie adaptive staircase builder,,2026.1.3,60.02865768133538,2026-04-13 11h34.53.836065 +0200,
12.5,ecc0,mid,44,0,44,j,1,1.7562376000005315,None,0,1,1,1,44,0,44,0,2379.9765073999997,,,,,,,,,,,,,,,2379.966008799999,2379.9765073999997,2380.886788500001,2379.9765073999997,2379.9765073999997,2381.737179999999,j,1,1.7562376000005315,None,direct,12,"[14, 15, 13, 16, 15, 16, 11, 12, 11, 12, 11, 14, 13, 15, 14, 16, 13, 14, 13, 14, 12, 13, 12, 13]",24,direct_gaze.png,j,1,2,results4,001,2026-04-13_11h34.53.501,mogelijke versie adaptive staircase builder,,2026.1.3,60.02865768133538,2026-04-13 11h34.53.836065 +0200,
12.5,ecc0,mid,45,0,45,j,0,1.386205599999812,None,0,1,1,1,45,0,45,0,2381.826559100001,,,,,,,,,,,,,,,2381.8159005999996,2381.826559100001,2382.7367540999994,2381.826559100001,2381.826559100001,2383.2204157000006,j,0,1.386205599999812,None,left,11,"[14, 15, 13, 16, 15, 16, 11, 12, 11, 12, 11, 14, 13, 15, 14, 16, 13, 14, 13, 14, 12, 13, 12, 13, 11]",25,gaze_L_11.png,j,0,2,results4,001,2026-04-13_11h34.53.501,mogelijke versie adaptive staircase builder,,2026.1.3,60.02865768133538,2026-04-13 11h34.53.836065 +0200,
12.5,ecc0,mid,46,0,46,j,0,2.1568741999999475,None,0,1,1,1,46,0,46,0,2383.3118784999997,,,,,,,,,,,,,,,2383.3014104000003,2383.3118784999997,2384.2204085999992,2383.3118784999997,2383.3118784999997,2385.4703504,j,0,2.1568741999999475,None,left,12,"[14, 15, 13, 16, 15, 16, 11, 12, 11, 12, 11, 14, 13, 15, 14, 16, 13, 14, 13, 14, 12, 13, 12, 13, 11]",25,gaze_L_12.png,j,0,2,results4,001,2026-04-13_11h34.53.501,mogelijke versie adaptive staircase builder,,2026.1.3,60.02865768133538,2026-04-13 11h34.53.836065 +0200,
12.5,ecc0,mid,47,0,47,f,1,2.70847700000013,None,0,1,1,1,47,0,47,0,2385.5603148,,,,,,,,,,,,,,,2385.5499405,2385.5603148,2386.4699217000007,2385.5603148,2385.5603148,2388.2703255000006,f,1,2.70847700000013,None,left,13,"[14, 15, 13, 16, 15, 16, 11, 12, 11, 12, 11, 14, 13, 15, 14, 16, 13, 14, 13, 14, 12, 13, 12, 13, 11, 13]",26,gaze_L_13.png,f,1,2,results4,001,2026-04-13_11h34.53.501,mogelijke versie adaptive staircase builder,,2026.1.3,60.02865768133538,2026-04-13 11h34.53.836065 +0200,
12.5,ecc0,mid,48,0,48,f,1,4.700721499999418,None,0,1,1,1,48,0,48,0,2388.3600479000006,,,,,,,,,,,,,,,2388.3487443000004,2388.3600479000006,2389.2699908000004,2388.3600479000006,2388.3600479000006,2393.0703258999993,f,1,4.700721499999418,None,left,12,"[14, 15, 13, 16, 15, 16, 11, 12, 11, 12, 11, 14, 13, 15, 14, 16, 13, 14, 13, 14, 12, 13, 12, 13, 11, 13]",26,gaze_L_12.png,f,1,2,results4,001,2026-04-13_11h34.53.501,mogelijke versie adaptive staircase builder,,2026.1.3,60.02865768133538,2026-04-13 11h34.53.836065 +0200,
12.5,ecc0,mid,49,0,49,f,0,5.148418200000378,None,0,1,1,1,49,0,49,0,2393.1604216000005,,,,,,,,,,,,,,,2393.1502401000007,2393.1604216000005,2394.0699262999997,2393.1604216000005,2393.1604216000005,2398.3203256000006,f,0,5.148418200000378,None,direct,11,"[14, 15, 13, 16, 15, 16, 11, 12, 11, 12, 11, 14, 13, 15, 14, 16, 13, 14, 13, 14, 12, 13, 12, 13, 11, 13, 11]",27,direct_gaze.png,f,0,2,results4,001,2026-04-13_11h34.53.501,mogelijke versie adaptive staircase builder,,2026.1.3,60.02865768133538,2026-04-13 11h34.53.836065 +0200,
12.5,ecc0,mid,50,0,50,f,1,3.5536145999994915,None,0,1,1,1,50,0,50,0,2398.4111697,,,,,,,,,,,,,,,2398.4000344999995,2398.4111697,2399.3198543999997,2398.4111697,2398.4111697,2401.9701914999996,f,1,3.5536145999994915,None,right,12,"[14, 15, 13, 16, 15, 16, 11, 12, 11, 12, 11, 14, 13, 15, 14, 16, 13, 14, 13, 14, 12, 13, 12, 13, 11, 13, 11, 12]",28,gaze_R_12.png,f,1,2,results4,001,2026-04-13_11h34.53.501,mogelijke versie adaptive staircase builder,,2026.1.3,60.02865768133538,2026-04-13 11h34.53.836065 +0200,
12.5,ecc0,mid,51,0,51,f,1,4.415678200000912,None,0,1,1,1,51,0,51,0,2402.068978799999,,,,,,,,,,,,,,,2402.0578127,2402.068978799999,2402.969726099999,2402.068978799999,2402.068978799999,2406.4867093000003,f,1,4.415678200000912,None,right,11,"[14, 15, 13, 16, 15, 16, 11, 12, 11, 12, 11, 14, 13, 15, 14, 16, 13, 14, 13, 14, 12, 13, 12, 13, 11, 13, 11, 12]",28,gaze_R_11.png,f,1,2,results4,001,2026-04-13_11h34.53.501,mogelijke versie adaptive staircase builder,,2026.1.3,60.02865768133538,2026-04-13 11h34.53.836065 +0200,
12.5,ecc0,mid,52,0,52,f,1,2.258291599999211,None,0,1,1,1,52,0,52,0,2406.5863643000002,,,,,,,,,,,,,,,2406.5759289999996,2406.5863643000002,2407.4863665000003,2406.5863643000002,2406.5863643000002,2408.8535301,f,1,2.258291599999211,None,left,10,"[14, 15, 13, 16, 15, 16, 11, 12, 11, 12, 11, 14, 13, 15, 14, 16, 13, 14, 13, 14, 12, 13, 12, 13, 11, 13, 11, 12]",28,gaze_L_10.png,f,1,2,results4,001,2026-04-13_11h34.53.501,mogelijke versie adaptive staircase builder,,2026.1.3,60.02865768133538,2026-04-13 11h34.53.836065 +0200,
12.5,ecc0,mid,53,0,53,f,1,2.542488899998716,None,0,1,1,1,53,0,53,0,2408.9509841999998,,,,,,,,,,,,,,,2408.9403845000006,2408.9509841999998,2409.8530378000005,2408.9509841999998,2408.9509841999998,2411.5033133000006,f,1,2.542488899998716,None,left,9,"[14, 15, 13, 16, 15, 16, 11, 12, 11, 12, 11, 14, 13, 15, 14, 16, 13, 14, 13, 14, 12, 13, 12, 13, 11, 13, 11, 12]",28,gaze_L_9.png,f,1,2,results4,001,2026-04-13_11h34.53.501,mogelijke versie adaptive staircase builder,,2026.1.3,60.02865768133538,2026-04-13 11h34.53.836065 +0200,
12.5,ecc0,mid,54,0,54,j,0,2.2118930999986333,None,0,1,1,1,54,0,54,0,2411.6007469999995,,,,,,,,,,,,,,,2411.5905515999993,2411.6007469999995,2412.5029138,2411.6007469999995,2411.6007469999995,2413.8197812999997,j,0,2.2118930999986333,None,left,8,"[14, 15, 13, 16, 15, 16, 11, 12, 11, 12, 11, 14, 13, 15, 14, 16, 13, 14, 13, 14, 12, 13, 12, 13, 11, 13, 11, 12, 8]",29,gaze_L_8.png,j,0,2,results4,001,2026-04-13_11h34.53.501,mogelijke versie adaptive staircase builder,,2026.1.3,60.02865768133538,2026-04-13 11h34.53.836065 +0200,
12.5,ecc0,mid,55,0,55,j,1,1.8073516999993444,None,0,1,1,1,55,0,55,0,2413.9094321000002,,,,,,,,,,,,,,,2413.8988541999997,2413.9094321000002,2414.8195346,2413.9094321000002,2413.9094321000002,2415.7198657,j,1,1.8073516999993444,None,direct,9,"[14, 15, 13, 16, 15, 16, 11, 12, 11, 12, 11, 14, 13, 15, 14, 16, 13, 14, 13, 14, 12, 13, 12, 13, 11, 13, 11, 12, 8, 9]",30,direct_gaze.png,j,1,2,results4,001,2026-04-13_11h34.53.501,mogelijke versie adaptive staircase builder,,2026.1.3,60.02865768133538,2026-04-13 11h34.53.836065 +0200,
12.5,ecc0,mid,56,0,56,j,0,1.6284375000013824,None,0,1,1,1,56,0,56,0,2415.8163073000005,,,,,,,,,,,,,,,2415.8027329999995,2415.8163073000005,2416.7195445999996,2415.8163073000005,2415.8163073000005,2417.453264500001,j,0,1.6284375000013824,None,left,8,"[14, 15, 13, 16, 15, 16, 11, 12, 11, 12, 11, 14, 13, 15, 14, 16, 13, 14, 13, 14, 12, 13, 12, 13, 11, 13, 11, 12, 8, 9, 8]",31,gaze_L_8.png,j,0,2,results4,001,2026-04-13_11h34.53.501,mogelijke versie adaptive staircase builder,,2026.1.3,60.02865768133538,2026-04-13 11h34.53.836065 +0200,
12.5,ecc0,mid,57,0,57,f,0,2.22133649999887,None,0,1,1,1,57,0,57,0,2417.5433356999993,,,,,,,,,,,,,,,2417.5328720000007,2417.5433356999993,2418.4528051000007,2417.5433356999993,2417.5433356999993,2419.769903900001,f,0,2.22133649999887,None,direct,9,"[14, 15, 13, 16, 15, 16, 11, 12, 11, 12, 11, 14, 13, 15, 14, 16, 13, 14, 13, 14, 12, 13, 12, 13, 11, 13, 11, 12, 8, 9, 8]",31,direct_gaze.png,f,0,2,results4,001,2026-04-13_11h34.53.501,mogelijke versie adaptive staircase builder,,2026.1.3,60.02865768133538,2026-04-13 11h34.53.836065 +0200,
12.5,ecc0,mid,58,0,58,j,1,2.0084950999989815,None,0,1,1,1,58,0,58,0,2419.8602168000007,,,,,,,,,,,,,,,2419.8494094000007,2419.8602168000007,2420.7695904,2419.8602168000007,2419.8602168000007,2421.8698586,j,1,2.0084950999989815,None,direct,10,"[14, 15, 13, 16, 15, 16, 11, 12, 11, 12, 11, 14, 13, 15, 14, 16, 13, 14, 13, 14, 12, 13, 12, 13, 11, 13, 11, 12, 8, 9, 8, 10]",32,direct_gaze.png,j,1,2,results4,001,2026-04-13_11h34.53.501,mogelijke versie adaptive staircase builder,,2026.1.3,60.02865768133538,2026-04-13 11h34.53.836065 +0200,
12.5,ecc0,mid,59,0,59,f,1,2.2331943999997748,None,0,1,1,1,59,0,59,0,2421.9635494000004,,,,,,,,,,,,,,,2421.9515349999992,2421.9635494000004,2422.8693121999995,2421.9635494000004,2421.9635494000004,2424.2030506,f,1,2.2331943999997748,None,left,9,"[14, 15, 13, 16, 15, 16, 11, 12, 11, 12, 11, 14, 13, 15, 14, 16, 13, 14, 13, 14, 12, 13, 12, 13, 11, 13, 11, 12, 8, 9, 8, 10]",32,gaze_L_9.png,f,1,2,results4,001,2026-04-13_11h34.53.501,mogelijke versie adaptive staircase builder,,2026.1.3,60.02865768133538,2026-04-13 11h34.53.836065 +0200,
12.5,ecc0,mid,1,1,0,,,,,0,1,1,1,,,,,,,,,,,,,,,,,,,,,,,,,,,,,,,,,,,,,,results4,001,2026-04-13_11h34.53.501,mogelijke versie adaptive staircase builder,,2026.1.3,60.02865768133538,2026-04-13 11h34.53.836065 +0200,
20.5,ecc10neg,right,0,0,0,j,0,3.4838753000003635,None,0,2,2,2,0,0,0,0,2424.3048573999995,,,,,,,,,,,,,2424.2054978000006,2424.2055312,2424.2944932,2424.3048573999995,2424.3048573999995,2425.2194752000005,2424.3048573999995,2427.8031289,j,0,3.4838753000003635,None,left,20,[],0,shiftedgaze_L_20.png,j,0,3,results4,001,2026-04-13_11h34.53.501,mogelijke versie adaptive staircase builder,,2026.1.3,60.02865768133538,2026-04-13 11h34.53.836065 +0200,
20.5,ecc10neg,right,1,0,1,j,0,1.7828687000001082,None,0,2,2,2,1,0,1,0,2427.8938453,,,,,,,,,,,,,,,2427.8830504999996,2427.8938453,2427.8938453,2428.8028361999995,2427.8938453,2429.6863399000003,j,0,1.7828687000001082,None,left,20,[],0,shiftedgaze_L_20.png,j,0,3,results4,001,2026-04-13_11h34.53.501,mogelijke versie adaptive staircase builder,,2026.1.3,60.02865768133538,2026-04-13 11h34.53.836065 +0200,
20.5,ecc10neg,right,2,0,2,j,1,1.7787850000004255,None,0,2,2,2,2,0,2,0,2429.785915900001,,,,,,,,,,,,,,,2429.7764228000005,2429.785915900001,2429.785915900001,2430.6859018000005,2429.785915900001,2431.5698172,j,1,1.7787850000004255,None,direct,20,[20],1,shifteddirectgaze.png,j,1,3,results4,001,2026-04-13_11h34.53.501,mogelijke versie adaptive staircase builder,,2026.1.3,60.02865768133538,2026-04-13 11h34.53.836065 +0200,
20.5,ecc10neg,right,3,0,3,f,1,1.6785300000010466,None,0,2,2,2,3,0,3,0,2431.694247799999,,,,,,,,,,,,,,,2431.682601199999,2431.694247799999,2431.694247799999,2432.569329000001,2431.694247799999,2433.3863236000007,f,1,1.6785300000010466,None,right,19,[20],1,shiftedgaze_R_19.png,f,1,3,results4,001,2026-04-13_11h34.53.501,mogelijke versie adaptive staircase builder,,2026.1.3,60.02865768133538,2026-04-13 11h34.53.836065 +0200,
20.5,ecc10neg,right,4,0,4,f,1,1.8639290999999503,None,0,2,2,2,4,0,4,0,2433.4927560000006,,,,,,,,,,,,,,,2433.4816973999996,2433.4927560000006,2433.4927560000006,2434.3859650000004,2433.4927560000006,2435.3695670000006,f,1,1.8639290999999503,None,right,18,[20],1,shiftedgaze_R_18.png,f,1,3,results4,001,2026-04-13_11h34.53.501,mogelijke versie adaptive staircase builder,,2026.1.3,60.02865768133538,2026-04-13 11h34.53.836065 +0200,
20.5,ecc10neg,right,5,0,5,j,1,3.7497154000011506,None,0,2,2,2,5,0,5,0,2435.478966399999,,,,,,,,,,,,,,,2435.4676651,2435.478966399999,2435.478966399999,2436.3693596000003,2435.478966399999,2439.2363766000008,j,1,3.7497154000011506,None,direct,17,[20],1,shifteddirectgaze.png,j,1,3,results4,001,2026-04-13_11h34.53.501,mogelijke versie adaptive staircase builder,,2026.1.3,60.02865768133538,2026-04-13 11h34.53.836065 +0200,
20.5,ecc10neg,right,6,0,6,f,1,2.5491421000006085,None,0,2,2,2,6,0,6,0,2439.3356049000004,,,,,,,,,,,,,,,2439.3246453,2439.3356049000004,2439.3356049000004,2440.2526236999993,2439.3356049000004,2441.8861468999994,f,1,2.5491421000006085,None,left,16,[20],1,shiftedgaze_L_16.png,f,1,3,results4,001,2026-04-13_11h34.53.501,mogelijke versie adaptive staircase builder,,2026.1.3,60.02865768133538,2026-04-13 11h34.53.836065 +0200,
20.5,ecc10neg,right,7,0,7,f,1,3.8508609000000433,None,0,2,2,2,7,0,7,0,2441.985892399999,,,,,,,,,,,,,,,2441.9753718,2441.985892399999,2441.985892399999,2442.8855391000006,2441.985892399999,2445.8528364999993,f,1,3.8508609000000433,None,right,15,[20],1,shiftedgaze_R_15.png,f,1,3,results4,001,2026-04-13_11h34.53.501,mogelijke versie adaptive staircase builder,,2026.1.3,60.02865768133538,2026-04-13 11h34.53.836065 +0200,
20.5,ecc10neg,right,8,0,8,f,0,2.8195248000010906,None,0,2,2,2,8,0,8,0,2445.9452133999994,,,,,,,,,,,,,,,2445.9343576,2445.9452133999994,2445.9452133999994,2446.8525492,2445.9452133999994,2448.7694686999994,f,0,2.8195248000010906,None,direct,14,"[20, 14]",2,shifteddirectgaze.png,f,0,3,results4,001,2026-04-13_11h34.53.501,mogelijke versie adaptive staircase builder,,2026.1.3,60.02865768133538,2026-04-13 11h34.53.836065 +0200,
20.5,ecc10neg,right,9,0,9,j,1,2.9878012999997736,None,0,2,2,2,9,0,9,0,2448.8649961,,,,,,,,,,,,,,,2448.8520928999997,2448.8649961,2448.8649961,2449.7693276,2448.8649961,2451.8696243000004,j,1,2.9878012999997736,None,direct,15,"[20, 14, 15]",3,shifteddirectgaze.png,j,1,3,results4,001,2026-04-13_11h34.53.501,mogelijke versie adaptive staircase builder,,2026.1.3,60.02865768133538,2026-04-13 11h34.53.836065 +0200,
20.5,ecc10neg,right,10,0,10,j,0,1.6609360000002198,None,0,2,2,2,10,0,10,0,2451.967771999999,,,,,,,,,,,,,,,2451.957365200001,2451.967771999999,2451.967771999999,2452.8691231000003,2451.967771999999,2453.6359113000008,j,0,1.6609360000002198,None,right,14,"[20, 14, 15, 14]",4,shiftedgaze_R_14.png,j,0,3,results4,001,2026-04-13_11h34.53.501,mogelijke versie adaptive staircase builder,,2026.1.3,60.02865768133538,2026-04-13 11h34.53.836065 +0200,
20.5,ecc10neg,right,11,0,11,f,0,2.0125605000012,None,0,2,2,2,11,0,11,0,2453.7281974000007,,,,,,,,,,,,,,,2453.7174908000006,2453.7281974000007,2453.7281974000007,2454.6357701000006,2453.7281974000007,2455.7526852,f,0,2.0125605000012,None,direct,15,"[20, 14, 15, 14]",4,shifteddirectgaze.png,f,0,3,results4,001,2026-04-13_11h34.53.501,mogelijke versie adaptive staircase builder,,2026.1.3,60.02865768133538,2026-04-13 11h34.53.836065 +0200,
20.5,ecc10neg,right,12,0,12,j,0,2.1829752000012377,None,0,2,2,2,12,0,12,0,2455.8457262,,,,,,,,,,,,,,,2455.8341900000005,2455.8457262,2455.8457262,2456.752300699999,2455.8457262,2458.0359524000005,j,0,2.1829752000012377,None,left,16,"[20, 14, 15, 14]",4,shiftedgaze_L_16.png,j,0,3,results4,001,2026-04-13_11h34.53.501,mogelijke versie adaptive staircase builder,,2026.1.3,60.02865768133538,2026-04-13 11h34.53.836065 +0200,
20.5,ecc10neg,right,13,0,13,j,0,2.0781438000012713,None,0,2,2,2,13,0,13,0,2458.1346103999995,,,,,,,,,,,,,,,2458.1244596000006,2458.1346103999995,2458.1346103999995,2459.0355740999994,2458.1346103999995,2460.2193209000006,j,0,2.0781438000012713,None,left,17,"[20, 14, 15, 14]",4,shiftedgaze_L_17.png,j,0,3,results4,001,2026-04-13_11h34.53.501,mogelijke versie adaptive staircase builder,,2026.1.3,60.02865768133538,2026-04-13 11h34.53.836065 +0200,
20.5,ecc10neg,right,14,0,14,f,0,1.965632800000094,None,0,2,2,2,14,0,14,0,2460.3109672,,,,,,,,,,,,,,,2460.3001723999996,2460.3109672,2460.3109672,2461.2189301999997,2460.3109672,2462.2859003999993,f,0,1.965632800000094,None,direct,18,"[20, 14, 15, 14]",4,shifteddirectgaze.png,f,0,3,results4,001,2026-04-13_11h34.53.501,mogelijke versie adaptive staircase builder,,2026.1.3,60.02865768133538,2026-04-13 11h34.53.836065 +0200,
20.5,ecc10neg,right,15,0,15,f,1,6.353892699999051,None,0,2,2,2,15,0,15,0,2462.4028209,,,,,,,,,,,,,,,2462.391440300001,2462.4028209,2462.4028209,2463.2857106,2462.4028209,2468.7691117000004,f,1,6.353892699999051,None,right,19,"[20, 14, 15, 14, 19]",5,shiftedgaze_R_19.png,f,1,3,results4,001,2026-04-13_11h34.53.501,mogelijke versie adaptive staircase builder,,2026.1.3,60.02865768133538,2026-04-13 11h34.53.836065 +0200,
20.5,ecc10neg,right,16,0,16,j,0,2.553001199999926,None,0,2,2,2,16,0,16,0,2468.8676241000003,,,,,,,,,,,,,,,2468.8564257999997,2468.8676241000003,2468.8676241000003,2469.768653599999,2468.8676241000003,2471.4357616000007,j,0,2.553001199999926,None,right,18,"[20, 14, 15, 14, 19, 18]",6,shiftedgaze_R_18.png,j,0,3,results4,001,2026-04-13_11h34.53.501,mogelijke versie adaptive staircase builder,,2026.1.3,60.02865768133538,2026-04-13 11h34.53.836065 +0200,
20.5,ecc10neg,right,17,0,17,j,0,2.748147499998595,None,0,2,2,2,17,0,17,0,2471.5364968999993,,,,,,,,,,,,,,,2471.525117,2471.5364968999993,2471.5364968999993,2472.4354197000002,2471.5364968999993,2474.2857957999995,j,0,2.748147499998595,None,right,19,"[20, 14, 15, 14, 19, 18]",6,shiftedgaze_R_19.png,j,0,3,results4,001,2026-04-13_11h34.53.501,mogelijke versie adaptive staircase builder,,2026.1.3,60.02865768133538,2026-04-13 11h34.53.836065 +0200,
20.5,ecc10neg,right,18,0,18,j,0,1.7210517000003165,None,0,2,2,2,18,0,18,0,2474.3956527,,,,,,,,,,,,,,,2474.385020999999,2474.3956527,2474.3956527,2475.2854947000005,2474.3956527,2476.1188907999995,j,0,1.7210517000003165,None,left,20,"[20, 14, 15, 14, 19, 18]",6,shiftedgaze_L_20.png,j,0,3,results4,001,2026-04-13_11h34.53.501,mogelijke versie adaptive staircase builder,,2026.1.3,60.02865768133538,2026-04-13 11h34.53.836065 +0200,
20.5,ecc10neg,right,19,0,19,f,0,1.9596999999994296,None,0,2,2,2,19,0,19,0,2476.2130224,,,,,,,,,,,,,,,2476.2022313999996,2476.2130224,2476.2130224,2477.1184286,2476.2130224,2478.1857740000005,f,0,1.9596999999994296,None,direct,20,"[20, 14, 15, 14, 19, 18]",6,shifteddirectgaze.png,f,0,3,results4,001,2026-04-13_11h34.53.501,mogelijke versie adaptive staircase builder,,2026.1.3,60.02865768133538,2026-04-13 11h34.53.836065 +0200,
20.5,ecc10neg,right,20,0,20,j,0,3.1589521000005334,None,0,2,2,2,20,0,20,0,2478.2777201,,,,,,,,,,,,,,,2478.2671182999993,2478.2777201,2478.2777201,2479.1853249999995,2478.2777201,2481.4522430999996,j,0,3.1589521000005334,None,left,20,"[20, 14, 15, 14, 19, 18]",6,shiftedgaze_L_20.png,j,0,3,results4,001,2026-04-13_11h34.53.501,mogelijke versie adaptive staircase builder,,2026.1.3,60.02865768133538,2026-04-13 11h34.53.836065 +0200,
20.5,ecc10neg,right,21,0,21,f,1,3.647377100000085,None,0,2,2,2,21,0,21,0,2481.5413438999994,,,,,,,,,,,,,,,2481.5301907000003,2481.5413438999994,2481.5413438999994,2482.4517279,2481.5413438999994,2485.2021773000006,f,1,3.647377100000085,None,left,20,"[20, 14, 15, 14, 19, 18, 20]",7,shiftedgaze_L_20.png,f,1,3,results4,001,2026-04-13_11h34.53.501,mogelijke versie adaptive staircase builder,,2026.1.3,60.02865768133538,2026-04-13 11h34.53.836065 +0200,
20.5,ecc10neg,right,22,0,22,f,1,3.0476557000001776,None,0,2,2,2,22,0,22,0,2485.301012000001,,,,,,,,,,,,,,,2485.2902912,2485.301012000001,2485.301012000001,2486.2017453,2485.301012000001,2488.3521443,f,1,3.0476557000001776,None,left,19,"[20, 14, 15, 14, 19, 18, 20]",7,shiftedgaze_L_19.png,f,1,3,results4,001,2026-04-13_11h34.53.501,mogelijke versie adaptive staircase builder,,2026.1.3,60.02865768133538,2026-04-13 11h34.53.836065 +0200,
20.5,ecc10neg,right,23,0,23,f,1,2.1120345999988785,None,0,2,2,2,23,0,23,0,2488.4687026,,,,,,,,,,,,,,,2488.457455500001,2488.4687026,2488.4687026,2489.3517108999995,2488.4687026,2490.5854317999992,f,1,2.1120345999988785,None,right,18,"[20, 14, 15, 14, 19, 18, 20]",7,shiftedgaze_R_18.png,f,1,3,results4,001,2026-04-13_11h34.53.501,mogelijke versie adaptive staircase builder,,2026.1.3,60.02865768133538,2026-04-13 11h34.53.836065 +0200,
20.5,ecc10neg,right,24,0,24,j,0,1.7029223000008642,None,0,2,2,2,24,0,24,0,2490.6937282999997,,,,,,,,,,,,,,,2490.682427999999,2490.6937282999997,2490.6937282999997,2491.5850449,2490.6937282999997,2492.4020413999997,j,0,1.7029223000008642,None,left,17,"[20, 14, 15, 14, 19, 18, 20, 17]",8,shiftedgaze_L_17.png,j,0,3,results4,001,2026-04-13_11h34.53.501,mogelijke versie adaptive staircase builder,,2026.1.3,60.02865768133538,2026-04-13 11h34.53.836065 +0200,
20.5,ecc10neg,right,25,0,25,j,0,1.8492326000014145,None,0,2,2,2,25,0,25,0,2492.4995026999995,,,,,,,,,,,,,,,2492.4884629,2492.4995026999995,2492.4995026999995,2493.4017388,2492.4995026999995,2494.3522707,j,0,1.8492326000014145,None,left,18,"[20, 14, 15, 14, 19, 18, 20, 17]",8,shiftedgaze_L_18.png,j,0,3,results4,001,2026-04-13_11h34.53.501,mogelijke versie adaptive staircase builder,,2026.1.3,60.02865768133538,2026-04-13 11h34.53.836065 +0200,
20.5,ecc10neg,right,26,0,26,f,0,1.8501701999994111,None,0,2,2,2,26,0,26,0,2494.442536400001,,,,,,,,,,,,,,,2494.432202000001,2494.442536400001,2494.442536400001,2495.351721599999,2494.442536400001,2496.3021359000004,f,0,1.8501701999994111,None,direct,19,"[20, 14, 15, 14, 19, 18, 20, 17]",8,shifteddirectgaze.png,f,0,3,results4,001,2026-04-13_11h34.53.501,mogelijke versie adaptive staircase builder,,2026.1.3,60.02865768133538,2026-04-13 11h34.53.836065 +0200,
20.5,ecc10neg,right,27,0,27,j,1,2.552796500000113,None,0,2,2,2,27,0,27,0,2496.3958310000007,,,,,,,,,,,,,,,2496.3850775,2496.3958310000007,2496.3958310000007,2497.3019897000004,2496.3958310000007,2498.9520521999993,j,1,2.552796500000113,None,direct,20,"[20, 14, 15, 14, 19, 18, 20, 17, 20]",9,shifteddirectgaze.png,j,1,3,results4,001,2026-04-13_11h34.53.501,mogelijke versie adaptive staircase builder,,2026.1.3,60.02865768133538,2026-04-13 11h34.53.836065 +0200,
20.5,ecc10neg,right,28,0,28,j,1,2.272641499999736,None,0,2,2,2,28,0,28,0,2499.044133300001,,,,,,,,,,,,,,,2499.0326183999996,2499.044133300001,2499.044133300001,2499.9516818,2499.044133300001,2501.318658699999,j,1,2.272641499999736,None,direct,19,"[20, 14, 15, 14, 19, 18, 20, 17, 20]",9,shifteddirectgaze.png,j,1,3,results4,001,2026-04-13_11h34.53.501,mogelijke versie adaptive staircase builder,,2026.1.3,60.02865768133538,2026-04-13 11h34.53.836065 +0200,
20.5,ecc10neg,right,29,0,29,f,0,1.8761157999997522,None,0,2,2,2,29,0,29,0,2501.4086997999993,,,,,,,,,,,,,,,2501.3982026000003,2501.4086997999993,2501.4086997999993,2502.3181531,2501.4086997999993,2503.2851354999993,f,0,1.8761157999997522,None,direct,18,"[20, 14, 15, 14, 19, 18, 20, 17, 20, 18]",10,shifteddirectgaze.png,f,0,3,results4,001,2026-04-13_11h34.53.501,mogelijke versie adaptive staircase builder,,2026.1.3,60.02865768133538,2026-04-13 11h34.53.836065 +0200,
20.5,ecc10neg,right,30,0,30,f,0,2.5810363000000507,None,0,2,2,2,30,0,30,0,2503.3756074000003,,,,,,,,,,,,,,,2503.3648244000005,2503.3756074000003,2503.3756074000003,2504.284872699999,2503.3756074000003,2505.9684640999994,f,0,2.5810363000000507,None,direct,19,"[20, 14, 15, 14, 19, 18, 20, 17, 20, 18]",10,shifteddirectgaze.png,f,0,3,results4,001,2026-04-13_11h34.53.501,mogelijke versie adaptive staircase builder,,2026.1.3,60.02865768133538,2026-04-13 11h34.53.836065 +0200,
20.5,ecc10neg,right,31,0,31,f,1,1.9988083999996888,None,0,2,2,2,31,0,31,0,2506.0620181000004,,,,,,,,,,,,,,,2506.0505803000005,2506.0620181000004,2506.0620181000004,2506.9681931999994,2506.0620181000004,2508.0684439000006,f,1,1.9988083999996888,None,left,20,"[20, 14, 15, 14, 19, 18, 20, 17, 20, 18, 20]",11,shiftedgaze_L_20.png,f,1,3,results4,001,2026-04-13_11h34.53.501,mogelijke versie adaptive staircase builder,,2026.1.3,60.02865768133538,2026-04-13 11h34.53.836065 +0200,
20.5,ecc10neg,right,32,0,32,f,0,2.0471457000003284,None,0,2,2,2,32,0,32,0,2508.1574997,,,,,,,,,,,,,,,2508.1468988999995,2508.1574997,2508.1574997,2509.068129099999,2508.1574997,2510.2184241999994,f,0,2.0471457000003284,None,direct,19,"[20, 14, 15, 14, 19, 18, 20, 17, 20, 18, 20, 19]",12,shifteddirectgaze.png,f,0,3,results4,001,2026-04-13_11h34.53.501,mogelijke versie adaptive staircase builder,,2026.1.3,60.02865768133538,2026-04-13 11h34.53.836065 +0200,
20.5,ecc10neg,right,33,0,33,f,0,2.415616100000989,None,0,2,2,2,33,0,33,0,2510.3091971999993,,,,,,,,,,,,,,,2510.298159499999,2510.3091971999993,2510.3091971999993,2511.2181260999996,2510.3091971999993,2512.735105500001,f,0,2.415616100000989,None,direct,20,"[20, 14, 15, 14, 19, 18, 20, 17, 20, 18, 20, 19]",12,shifteddirectgaze.png,f,0,3,results4,001,2026-04-13_11h34.53.501,mogelijke versie adaptive staircase builder,,2026.1.3,60.02865768133538,2026-04-13 11h34.53.836065 +0200,
20.5,ecc10neg,right,34,0,34,f,1,2.124237500000163,None,0,2,2,2,34,0,34,0,2512.8643284,,,,,,,,,,,,,,,2512.852198400001,2512.8643284,2512.8643284,2513.7347913000003,2512.8643284,2515.0016148999994,f,1,2.124237500000163,None,right,20,"[20, 14, 15, 14, 19, 18, 20, 17, 20, 18, 20, 19, 20]",13,shiftedgaze_R_20.png,f,1,3,results4,001,2026-04-13_11h34.53.501,mogelijke versie adaptive staircase builder,,2026.1.3,60.02865768133538,2026-04-13 11h34.53.836065 +0200,
20.5,ecc10neg,right,35,0,35,j,0,1.9276905999995506,None,0,2,2,2,35,0,35,0,2515.108940700001,,,,,,,,,,,,,,,2515.0977419,2515.108940700001,2515.108940700001,2516.0012925,2515.108940700001,2517.0516154999996,j,0,1.9276905999995506,None,left,19,"[20, 14, 15, 14, 19, 18, 20, 17, 20, 18, 20, 19, 20, 19]",14,shiftedgaze_L_19.png,j,0,3,results4,001,2026-04-13_11h34.53.501,mogelijke versie adaptive staircase builder,,2026.1.3,60.02865768133538,2026-04-13 11h34.53.836065 +0200,
20.5,ecc10neg,right,36,0,36,j,1,2.205476799999815,None,0,2,2,2,36,0,36,0,2517.1433026000004,,,,,,,,,,,,,,,2517.1325418999995,2517.1433026000004,2517.1433026000004,2518.0513526000004,2517.1433026000004,2519.3517139000005,j,1,2.205476799999815,None,direct,20,"[20, 14, 15, 14, 19, 18, 20, 17, 20, 18, 20, 19, 20, 19, 20]",15,shifteddirectgaze.png,j,1,3,results4,001,2026-04-13_11h34.53.501,mogelijke versie adaptive staircase builder,,2026.1.3,60.02865768133538,2026-04-13 11h34.53.836065 +0200,
20.5,ecc10neg,right,37,0,37,j,1,1.9135255000001052,None,0,2,2,2,37,0,37,0,2519.4432016,,,,,,,,,,,,,,,2519.4321646,2519.4432016,2519.4432016,2520.351333899999,2519.4432016,2521.3683195999993,j,1,1.9135255000001052,None,direct,19,"[20, 14, 15, 14, 19, 18, 20, 17, 20, 18, 20, 19, 20, 19, 20]",15,shifteddirectgaze.png,j,1,3,results4,001,2026-04-13_11h34.53.501,mogelijke versie adaptive staircase builder,,2026.1.3,60.02865768133538,2026-04-13 11h34.53.836065 +0200,
20.5,ecc10neg,right,38,0,38,j,1,2.873072799999136,None,0,2,2,2,38,0,38,0,2521.459762199999,,,,,,,,,,,,,,,2521.449633699999,2521.459762199999,2521.459762199999,2522.3680446000008,2521.459762199999,2524.3347814,j,1,2.873072799999136,None,direct,18,"[20, 14, 15, 14, 19, 18, 20, 17, 20, 18, 20, 19, 20, 19, 20]",15,shifteddirectgaze.png,j,1,3,results4,001,2026-04-13_11h34.53.501,mogelijke versie adaptive staircase builder,,2026.1.3,60.02865768133538,2026-04-13 11h34.53.836065 +0200,
20.5,ecc10neg,right,39,0,39,j,0,1.654349700000239,None,0,2,2,2,39,0,39,0,2524.4306277999995,,,,,,,,,,,,,,,2524.419397999999,2524.4306277999995,2524.4306277999995,2525.3344337999997,2524.4306277999995,2526.1014697,j,0,1.654349700000239,None,left,17,"[20, 14, 15, 14, 19, 18, 20, 17, 20, 18, 20, 19, 20, 19, 20, 17]",16,shiftedgaze_L_17.png,j,0,3,results4,001,2026-04-13_11h34.53.501,mogelijke versie adaptive staircase builder,,2026.1.3,60.02865768133538,2026-04-13 11h34.53.836065 +0200,
20.5,ecc10neg,right,40,0,40,f,0,1.6916360999985045,None,0,2,2,2,40,0,40,0,2526.1933617999994,,,,,,,,,,,,,,,2526.1826346000007,2526.1933617999994,2526.1933617999994,2527.1012024,2526.1933617999994,2527.9015432000006,f,0,1.6916360999985045,None,direct,18,"[20, 14, 15, 14, 19, 18, 20, 17, 20, 18, 20, 19, 20, 19, 20, 17]",16,shifteddirectgaze.png,f,0,3,results4,001,2026-04-13_11h34.53.501,mogelijke versie adaptive staircase builder,,2026.1.3,60.02865768133538,2026-04-13 11h34.53.836065 +0200,
20.5,ecc10neg,right,41,0,41,j,0,1.691944300000614,None,0,2,2,2,41,0,41,0,2527.9928802999993,,,,,,,,,,,,,,,2527.9825960000007,2527.9928802999993,2527.9928802999993,2528.9011855,2527.9928802999993,2529.6852308999996,j,0,1.691944300000614,None,left,19,"[20, 14, 15, 14, 19, 18, 20, 17, 20, 18, 20, 19, 20, 19, 20, 17]",16,shiftedgaze_L_19.png,j,0,3,results4,001,2026-04-13_11h34.53.501,mogelijke versie adaptive staircase builder,,2026.1.3,60.02865768133538,2026-04-13 11h34.53.836065 +0200,
20.5,ecc10neg,right,42,0,42,j,0,2.445642399999997,None,0,2,2,2,42,0,42,0,2529.814970300001,,,,,,,,,,,,,,,2529.7675689,2529.814970300001,2529.814970300001,2530.7010545000003,2529.814970300001,2532.2679462000006,j,0,2.445642399999997,None,left,20,"[20, 14, 15, 14, 19, 18, 20, 17, 20, 18, 20, 19, 20, 19, 20, 17]",16,shiftedgaze_L_20.png,j,0,3,results4,001,2026-04-13_11h34.53.501,mogelijke versie adaptive staircase builder,,2026.1.3,60.02865768133538,2026-04-13 11h34.53.836065 +0200,
20.5,ecc10neg,right,43,0,43,f,0,3.571545900000274,None,0,2,2,2,43,0,43,0,2532.3612908999994,,,,,,,,,,,,,,,2532.350706,2532.3612908999994,2532.3612908999994,2533.267643099999,2532.3612908999994,2535.9347131000004,f,0,3.571545900000274,None,direct,20,"[20, 14, 15, 14, 19, 18, 20, 17, 20, 18, 20, 19, 20, 19, 20, 17]",16,shifteddirectgaze.png,f,0,3,results4,001,2026-04-13_11h34.53.501,mogelijke versie adaptive staircase builder,,2026.1.3,60.02865768133538,2026-04-13 11h34.53.836065 +0200,
20.5,ecc10neg,right,44,0,44,j,0,2.317123900000297,None,0,2,2,2,44,0,44,0,2536.0241455000005,,,,,,,,,,,,,,,2536.0135461,2536.0241455000005,2536.0241455000005,2536.9343648999993,2536.0241455000005,2538.351436,j,0,2.317123900000297,None,left,20,"[20, 14, 15, 14, 19, 18, 20, 17, 20, 18, 20, 19, 20, 19, 20, 17]",16,shiftedgaze_L_20.png,j,0,3,results4,001,2026-04-13_11h34.53.501,mogelijke versie adaptive staircase builder,,2026.1.3,60.02865768133538,2026-04-13 11h34.53.836065 +0200,
20.5,ecc10neg,right,45,0,45,j,1,1.7519111999990855,None,0,2,2,2,45,0,45,0,2538.4447143999996,,,,,,,,,,,,,,,2538.4327832999998,2538.4447143999996,2538.4447143999996,2539.350876199999,2538.4447143999996,2540.2014764999994,j,1,1.7519111999990855,None,direct,20,"[20, 14, 15, 14, 19, 18, 20, 17, 20, 18, 20, 19, 20, 19, 20, 17, 20]",17,shifteddirectgaze.png,j,1,3,results4,001,2026-04-13_11h34.53.501,mogelijke versie adaptive staircase builder,,2026.1.3,60.02865768133538,2026-04-13 11h34.53.836065 +0200,
20.5,ecc10neg,right,46,0,46,j,1,1.6466617999994924,None,0,2,2,2,46,0,46,0,2540.2946444,,,,,,,,,,,,,,,2540.2839938999996,2540.2946444,2540.2946444,2541.2012552999995,2540.2946444,2541.951424,j,1,1.6466617999994924,None,direct,19,"[20, 14, 15, 14, 19, 18, 20, 17, 20, 18, 20, 19, 20, 19, 20, 17, 20]",17,shifteddirectgaze.png,j,1,3,results4,001,2026-04-13_11h34.53.501,mogelijke versie adaptive staircase builder,,2026.1.3,60.02865768133538,2026-04-13 11h34.53.836065 +0200,
20.5,ecc10neg,right,47,0,47,f,0,2.576773700000558,None,0,2,2,2,47,0,47,0,2542.0438392000005,,,,,,,,,,,,,,,2542.0327788999994,2542.0438392000005,2542.0438392000005,2542.951012299999,2542.0438392000005,2544.6343506999992,f,0,2.576773700000558,None,direct,18,"[20, 14, 15, 14, 19, 18, 20, 17, 20, 18, 20, 19, 20, 19, 20, 17, 20, 18]",18,shifteddirectgaze.png,f,0,3,results4,001,2026-04-13_11h34.53.501,mogelijke versie adaptive staircase builder,,2026.1.3,60.02865768133538,2026-04-13 11h34.53.836065 +0200,
20.5,ecc10neg,right,48,0,48,f,0,1.9491378999991866,None,0,2,2,2,48,0,48,0,2544.727575600001,,,,,,,,,,,,,,,2544.7167297999995,2544.727575600001,2544.727575600001,2545.6342209000004,2544.727575600001,2546.6848985000006,f,0,1.9491378999991866,None,direct,19,"[20, 14, 15, 14, 19, 18, 20, 17, 20, 18, 20, 19, 20, 19, 20, 17, 20, 18]",18,shifteddirectgaze.png,f,0,3,results4,001,2026-04-13_11h34.53.501,mogelijke versie adaptive staircase builder,,2026.1.3,60.02865768133538,2026-04-13 11h34.53.836065 +0200,
20.5,ecc10neg,right,49,0,49,f,1,1.5867220000000088,None,0,2,2,2,49,0,49,0,2546.7778967999993,,,,,,,,,,,,,,,2546.7671536000007,2546.7778967999993,2546.7778967999993,2547.7009731000007,2546.7778967999993,2548.3679495000006,f,1,1.5867220000000088,None,left,20,"[20, 14, 15, 14, 19, 18, 20, 17, 20, 18, 20, 19, 20, 19, 20, 17, 20, 18, 20]",19,shiftedgaze_L_20.png,f,1,3,results4,001,2026-04-13_11h34.53.501,mogelijke versie adaptive staircase builder,,2026.1.3,60.02865768133538,2026-04-13 11h34.53.836065 +0200,
20.5,ecc10neg,right,50,0,50,j,0,1.6468574999998964,None,0,2,2,2,50,0,50,0,2548.4617203000007,,,,,,,,,,,,,,,2548.4499945,2548.4617203000007,2548.4617203000007,2549.3675651000003,2548.4617203000007,2550.1179841999992,j,0,1.6468574999998964,None,left,19,"[20, 14, 15, 14, 19, 18, 20, 17, 20, 18, 20, 19, 20, 19, 20, 17, 20, 18, 20, 19]",20,shiftedgaze_L_19.png,j,0,3,results4,001,2026-04-13_11h34.53.501,mogelijke versie adaptive staircase builder,,2026.1.3,60.02865768133538,2026-04-13 11h34.53.836065 +0200,
20.5,ecc10neg,right,51,0,51,f,1,2.390840300000491,None,0,2,2,2,51,0,51,0,2550.237810400001,,,,,,,,,,,,,,,2550.2257192000006,2550.237810400001,2550.237810400001,2551.1176802,2550.237810400001,2552.6345269000003,f,1,2.390840300000491,None,right,20,"[20, 14, 15, 14, 19, 18, 20, 17, 20, 18, 20, 19, 20, 19, 20, 17, 20, 18, 20, 19, 20]",21,shiftedgaze_R_20.png,f,1,3,results4,001,2026-04-13_11h34.53.501,mogelijke versie adaptive staircase builder,,2026.1.3,60.02865768133538,2026-04-13 11h34.53.836065 +0200,
20.5,ecc10neg,right,52,0,52,f,0,1.8422590999998647,None,0,2,2,2,52,0,52,0,2552.746386399999,,,,,,,,,,,,,,,2552.7348651,2552.746386399999,2552.746386399999,2553.6343895,2552.746386399999,2554.601179099999,f,0,1.8422590999998647,None,direct,19,"[20, 14, 15, 14, 19, 18, 20, 17, 20, 18, 20, 19, 20, 19, 20, 17, 20, 18, 20, 19, 20, 19]",22,shifteddirectgaze.png,f,0,3,results4,001,2026-04-13_11h34.53.501,mogelijke versie adaptive staircase builder,,2026.1.3,60.02865768133538,2026-04-13 11h34.53.836065 +0200,
20.5,ecc10neg,right,53,0,53,f,1,1.5828912999986642,None,0,2,2,2,53,0,53,0,2554.717938999999,,,,,,,,,,,,,,,2554.7065113,2554.717938999999,2554.717938999999,2555.6174230000006,2554.717938999999,2556.3186395000002,f,1,1.5828912999986642,None,right,20,"[20, 14, 15, 14, 19, 18, 20, 17, 20, 18, 20, 19, 20, 19, 20, 17, 20, 18, 20, 19, 20, 19, 20]",23,shiftedgaze_R_20.png,f,1,3,results4,001,2026-04-13_11h34.53.501,mogelijke versie adaptive staircase builder,,2026.1.3,60.02865768133538,2026-04-13 11h34.53.836065 +0200,
20.5,ecc10neg,right,54,0,54,f,0,2.2642961999990803,None,0,2,2,2,54,0,54,0,2556.4282981000006,,,,,,,,,,,,,,,2556.4173519999995,2556.4282981000006,2556.4282981000006,2557.3341419,2556.4282981000006,2558.7012141999994,f,0,2.2642961999990803,None,direct,19,"[20, 14, 15, 14, 19, 18, 20, 17, 20, 18, 20, 19, 20, 19, 20, 17, 20, 18, 20, 19, 20, 19, 20, 19]",24,shifteddirectgaze.png,f,0,3,results4,001,2026-04-13_11h34.53.501,mogelijke versie adaptive staircase builder,,2026.1.3,60.02865768133538,2026-04-13 11h34.53.836065 +0200,
20.5,ecc10neg,right,55,0,55,j,1,2.231304500000988,None,0,2,2,2,55,0,55,0,2558.7974005000005,,,,,,,,,,,,,,,2558.7861339,2558.7974005000005,2558.7974005000005,2559.7006966,2558.7974005000005,2561.0340055999995,j,1,2.231304500000988,None,direct,20,"[20, 14, 15, 14, 19, 18, 20, 17, 20, 18, 20, 19, 20, 19, 20, 17, 20, 18, 20, 19, 20, 19, 20, 19, 20]",25,shifteddirectgaze.png,j,1,3,results4,001,2026-04-13_11h34.53.501,mogelijke versie adaptive staircase builder,,2026.1.3,60.02865768133538,2026-04-13 11h34.53.836065 +0200,
20.5,ecc10neg,right,56,0,56,f,0,1.708801400000084,None,0,2,2,2,56,0,56,0,2561.1278403000006,,,,,,,,,,,,,,,2561.1150281,2561.1278403000006,2561.1278403000006,2562.034033000001,2561.1278403000006,2562.8508924000007,f,0,1.708801400000084,None,direct,19,"[20, 14, 15, 14, 19, 18, 20, 17, 20, 18, 20, 19, 20, 19, 20, 17, 20, 18, 20, 19, 20, 19, 20, 19, 20, 19]",26,shifteddirectgaze.png,f,0,3,results4,001,2026-04-13_11h34.53.501,mogelijke versie adaptive staircase builder,,2026.1.3,60.02865768133538,2026-04-13 11h34.53.836065 +0200,
20.5,ecc10neg,right,57,0,57,f,1,2.546898799999326,None,0,2,2,2,57,0,57,0,2562.9457971,,,,,,,,,,,,,,,2562.9346735999998,2562.9457971,2562.9457971,2563.8508276000002,2562.9457971,2565.501135199999,f,1,2.546898799999326,None,left,20,"[20, 14, 15, 14, 19, 18, 20, 17, 20, 18, 20, 19, 20, 19, 20, 17, 20, 18, 20, 19, 20, 19, 20, 19, 20, 19, 20]",27,shiftedgaze_L_20.png,f,1,3,results4,001,2026-04-13_11h34.53.501,mogelijke versie adaptive staircase builder,,2026.1.3,60.02865768133538,2026-04-13 11h34.53.836065 +0200,
20.5,ecc10neg,right,58,0,58,f,0,2.633705699998245,None,0,2,2,2,58,0,58,0,2565.595062900001,,,,,,,,,,,,,,,2565.584141099999,2565.595062900001,2565.595062900001,2566.5009366999993,2565.595062900001,2568.2346308999995,f,0,2.633705699998245,None,direct,19,"[20, 14, 15, 14, 19, 18, 20, 17, 20, 18, 20, 19, 20, 19, 20, 17, 20, 18, 20, 19, 20, 19, 20, 19, 20, 19, 20, 19]",28,shifteddirectgaze.png,f,0,3,results4,001,2026-04-13_11h34.53.501,mogelijke versie adaptive staircase builder,,2026.1.3,60.02865768133538,2026-04-13 11h34.53.836065 +0200,
20.5,ecc10neg,right,59,0,59,f,0,1.6654963000000862,None,0,2,2,2,59,0,59,0,2568.331136399999,,,,,,,,,,,,,,,2568.3205343,2568.331136399999,2568.331136399999,2569.2504598000005,2568.331136399999,2570.0004596999997,f,0,1.6654963000000862,None,direct,20,"[20, 14, 15, 14, 19, 18, 20, 17, 20, 18, 20, 19, 20, 19, 20, 17, 20, 18, 20, 19, 20, 19, 20, 19, 20, 19, 20, 19]",28,shifteddirectgaze.png,f,0,3,results4,001,2026-04-13_11h34.53.501,mogelijke versie adaptive staircase builder,,2026.1.3,60.02865768133538,2026-04-13 11h34.53.836065 +0200,
20.5,ecc10neg,right,2,2,0,,,,,0,2,2,2,,,,,,,,,,,,,,,,,,,,,,,,,,,,,,,,,,,,,,results4,001,2026-04-13_11h34.53.501,mogelijke versie adaptive staircase builder,,2026.1.3,60.02865768133538,2026-04-13 11h34.53.836065 +0200,
