xPos,stimulusSet,whichImage,thisN,thisTrialN,thisRepN,key_resp.keys,key_resp.corr,key_resp.rt,key_resp.duration,blocks.thisRepN,blocks.thisTrialN,blocks.thisN,blocks.thisIndex,trials.thisRepN,trials.thisTrialN,trials.thisN,trials.thisIndex,thisRow.t,notes,piloting,intro.started,introinstructions.started,intro_key.started,demo_image_left.started,demo_image_middle.started,demo_image_right.started,intro.stopped,intro_key.keys,intro_key.rt,intro_key.duration,block_start.started,block_start.stopped,trial.started,key_resp.started,middle_image.started,right_image.started,left_image.started,trial.stopped,trials.key_resp.keys,trials.key_resp.corr,trials.key_resp.rt,trials.key_resp.duration,direction,angle,reversal_intensities,number_reversals,stimulus,response,correct,blockNumber,participant,session,date,expName,expVersion,psychopyVersion,frameRate,expStart,
,,,,,,,,,,,,,,,,,,,,False,0.00335099999938393,0.006029500000295229,0.006029500000295229,0.006029500000295229,0.006029500000295229,0.006029500000295229,1283.9592175999987,space,1283.8334978000003,0.11199579999993148,,,,,,,,,,,,,,,,,,,,,results17,001,2026-04-14_13h25.56.182,mogelijke versie adaptive staircase builder,,2026.1.3,59.99340072586862,2026-04-14 13h25.56.472484 +0200,
4.5,ecc10pos,left,0,0,0,j,0,3.367258700000093,None,0,0,0,0,0,0,0,0,1284.2478824999998,,,,,,,,,,,,,1284.1316936000003,1284.1317457999994,1284.2427369999987,1284.2478824999998,1284.2478824999998,1284.2478824999998,1285.1419616999992,1287.625421499999,j,0,3.367258700000093,None,right,20,[],0,shiftedgaze_R_20.png,j,0,1,results17,001,2026-04-14_13h25.56.182,mogelijke versie adaptive staircase builder,,2026.1.3,59.99340072586862,2026-04-14 13h25.56.472484 +0200,
4.5,ecc10pos,left,1,0,1,j,0,2.347523700000238,None,0,0,0,0,1,0,1,0,1287.8114675999987,,,,,,,,,,,,,,,1287.8033985999991,1287.8114675999987,1287.8114675999987,1287.8114675999987,1288.6251843999999,1290.175474399999,j,0,2.347523700000238,None,left,20,[],0,shiftedgaze_L_20.png,j,0,1,results17,001,2026-04-14_13h25.56.182,mogelijke versie adaptive staircase builder,,2026.1.3,59.99340072586862,2026-04-14 13h25.56.472484 +0200,
4.5,ecc10pos,left,2,0,2,f,1,2.655034199999136,None,0,0,0,0,2,0,2,0,1290.2804681999987,,,,,,,,,,,,,,,1290.2700616999991,1290.2804681999987,1290.2804681999987,1290.2804681999987,1291.1753083000003,1292.9425976000002,f,1,2.655034199999136,None,right,20,[20],1,shiftedgaze_R_20.png,f,1,1,results17,001,2026-04-14_13h25.56.182,mogelijke versie adaptive staircase builder,,2026.1.3,59.99340072586862,2026-04-14 13h25.56.472484 +0200,
4.5,ecc10pos,left,3,0,3,j,0,2.412898300000961,None,0,0,0,0,3,0,3,0,1293.0582181999998,,,,,,,,,,,,,,,1293.0488002000002,1293.0582181999998,1293.0582181999998,1293.0582181999998,1293.9586104999998,1295.4754214999994,j,0,2.412898300000961,None,right,19,"[20, 19]",2,shiftedgaze_R_19.png,j,0,1,results17,001,2026-04-14_13h25.56.182,mogelijke versie adaptive staircase builder,,2026.1.3,59.99340072586862,2026-04-14 13h25.56.472484 +0200,
4.5,ecc10pos,left,4,0,4,f,1,2.6946478000008938,None,0,0,0,0,4,0,4,0,1295.5923993999986,,,,,,,,,,,,,,,1295.5826091999988,1295.5923993999986,1295.5923993999986,1295.5923993999986,1296.475261399999,1298.2921196999996,f,1,2.6946478000008938,None,left,20,"[20, 19, 20]",3,shiftedgaze_L_20.png,f,1,1,results17,001,2026-04-14_13h25.56.182,mogelijke versie adaptive staircase builder,,2026.1.3,59.99340072586862,2026-04-14 13h25.56.472484 +0200,
4.5,ecc10pos,left,5,0,5,j,1,1.7856006000001798,None,0,0,0,0,5,0,5,0,1298.3975573999996,,,,,,,,,,,,,,,1298.3876998999986,1298.3975573999996,1298.3975573999996,1298.3975573999996,1299.2919294000003,1300.1922947999992,j,1,1.7856006000001798,None,direct,19,"[20, 19, 20]",3,shifteddirectgaze.png,j,1,1,results17,001,2026-04-14_13h25.56.182,mogelijke versie adaptive staircase builder,,2026.1.3,59.99340072586862,2026-04-14 13h25.56.472484 +0200,
4.5,ecc10pos,left,6,0,6,j,0,1.5228821000000607,None,0,0,0,0,6,0,6,0,1300.2922579999995,,,,,,,,,,,,,,,1300.2826949999999,1300.2922579999995,1300.2922579999995,1300.2922579999995,1301.1920460000001,1301.8254117999986,j,0,1.5228821000000607,None,left,18,"[20, 19, 20, 18]",4,shiftedgaze_L_18.png,j,0,1,results17,001,2026-04-14_13h25.56.182,mogelijke versie adaptive staircase builder,,2026.1.3,59.99340072586862,2026-04-14 13h25.56.472484 +0200,
4.5,ecc10pos,left,7,0,7,f,1,1.612035599999217,None,0,0,0,0,7,0,7,0,1301.9394954999989,,,,,,,,,,,,,,,1301.9290234,1301.9394954999989,1301.9394954999989,1301.9394954999989,1302.8252096999986,1303.5592875999992,f,1,1.612035599999217,None,right,19,"[20, 19, 20, 18, 19]",5,shiftedgaze_R_19.png,f,1,1,results17,001,2026-04-14_13h25.56.182,mogelijke versie adaptive staircase builder,,2026.1.3,59.99340072586862,2026-04-14 13h25.56.472484 +0200,
4.5,ecc10pos,left,8,0,8,f,1,1.767546199998833,None,0,0,0,0,8,0,8,0,1303.6639962999998,,,,,,,,,,,,,,,1303.6523510999996,1303.6639962999998,1303.6639962999998,1303.6639962999998,1304.5589206999994,1305.4428112999994,f,1,1.767546199998833,None,left,18,"[20, 19, 20, 18, 19]",5,shiftedgaze_L_18.png,f,1,1,results17,001,2026-04-14_13h25.56.182,mogelijke versie adaptive staircase builder,,2026.1.3,59.99340072586862,2026-04-14 13h25.56.472484 +0200,
4.5,ecc10pos,left,9,0,9,j,0,1.4693067000007431,None,0,0,0,0,9,0,9,0,1305.537957999999,,,,,,,,,,,,,,,1305.5337264999998,1305.537957999999,1305.537957999999,1305.537957999999,1306.4424179999987,1307.008656,j,0,1.4693067000007431,None,left,17,"[20, 19, 20, 18, 19, 17]",6,shiftedgaze_L_17.png,j,0,1,results17,001,2026-04-14_13h25.56.182,mogelijke versie adaptive staircase builder,,2026.1.3,59.99340072586862,2026-04-14 13h25.56.472484 +0200,
4.5,ecc10pos,left,10,0,10,f,1,2.1128496999990602,None,0,0,0,0,10,0,10,0,1307.1027259000002,,,,,,,,,,,,,,,1307.0928594999987,1307.1027259000002,1307.1027259000002,1307.1027259000002,1308.0084781999994,1309.2259443999992,f,1,2.1128496999990602,None,right,18,"[20, 19, 20, 18, 19, 17, 18]",7,shiftedgaze_R_18.png,f,1,1,results17,001,2026-04-14_13h25.56.182,mogelijke versie adaptive staircase builder,,2026.1.3,59.99340072586862,2026-04-14 13h25.56.472484 +0200,
4.5,ecc10pos,left,11,0,11,j,0,3.6891180999991775,None,0,0,0,0,11,0,11,0,1309.3347586,,,,,,,,,,,,,,,1309.3231348999998,1309.3347586,1309.3347586,1309.3347586,1310.2418793999987,1313.0256618999992,j,0,3.6891180999991775,None,left,17,"[20, 19, 20, 18, 19, 17, 18, 17]",8,shiftedgaze_L_17.png,j,0,1,results17,001,2026-04-14_13h25.56.182,mogelijke versie adaptive staircase builder,,2026.1.3,59.99340072586862,2026-04-14 13h25.56.472484 +0200,
4.5,ecc10pos,left,12,0,12,f,0,2.597337500001231,None,0,0,0,0,12,0,12,0,1313.1221929999992,,,,,,,,,,,,,,,1313.1106397000003,1313.1221929999992,1313.1221929999992,1313.1221929999992,1314.025583999999,1315.7260150999991,f,0,2.597337500001231,None,direct,18,"[20, 19, 20, 18, 19, 17, 18, 17]",8,shifteddirectgaze.png,f,0,1,results17,001,2026-04-14_13h25.56.182,mogelijke versie adaptive staircase builder,,2026.1.3,59.99340072586862,2026-04-14 13h25.56.472484 +0200,
4.5,ecc10pos,left,13,0,13,j,0,2.0185816000011982,None,0,0,0,0,13,0,13,0,1315.8285727000002,,,,,,,,,,,,,,,1315.8172373999987,1315.8285727000002,1315.8285727000002,1315.8285727000002,1316.7417263999996,1317.8586851,j,0,2.0185816000011982,None,left,19,"[20, 19, 20, 18, 19, 17, 18, 17]",8,shiftedgaze_L_19.png,j,0,1,results17,001,2026-04-14_13h25.56.182,mogelijke versie adaptive staircase builder,,2026.1.3,59.99340072586862,2026-04-14 13h25.56.472484 +0200,
4.5,ecc10pos,left,14,0,14,j,0,1.7235653000007005,None,0,0,0,0,14,0,14,0,1317.947514399999,,,,,,,,,,,,,,,1317.9375462999997,1317.947514399999,1317.947514399999,1317.947514399999,1318.8585150999988,1319.6759626000003,j,0,1.7235653000007005,None,right,20,"[20, 19, 20, 18, 19, 17, 18, 17]",8,shiftedgaze_R_20.png,j,0,1,results17,001,2026-04-14_13h25.56.182,mogelijke versie adaptive staircase builder,,2026.1.3,59.99340072586862,2026-04-14 13h25.56.472484 +0200,
4.5,ecc10pos,left,15,0,15,f,1,2.343876299999465,None,0,0,0,0,15,0,15,0,1319.7596987999987,,,,,,,,,,,,,,,1319.7556196999994,1319.7596987999987,1319.7596987999987,1319.7596987999987,1320.6918262999989,1322.1093013999998,f,1,2.343876299999465,None,right,20,"[20, 19, 20, 18, 19, 17, 18, 17, 20]",9,shiftedgaze_R_20.png,f,1,1,results17,001,2026-04-14_13h25.56.182,mogelijke versie adaptive staircase builder,,2026.1.3,59.99340072586862,2026-04-14 13h25.56.472484 +0200,
4.5,ecc10pos,left,16,0,16,j,0,2.007920500000182,None,0,0,0,0,16,0,16,0,1322.2075071999989,,,,,,,,,,,,,,,1322.1960877000001,1322.2075071999989,1322.2075071999989,1322.2075071999989,1323.1089250999994,1324.2259806000002,j,0,2.007920500000182,None,right,19,"[20, 19, 20, 18, 19, 17, 18, 17, 20, 19]",10,shiftedgaze_R_19.png,j,0,1,results17,001,2026-04-14_13h25.56.182,mogelijke versie adaptive staircase builder,,2026.1.3,59.99340072586862,2026-04-14 13h25.56.472484 +0200,
4.5,ecc10pos,left,17,0,17,f,1,1.9661947000004147,None,0,0,0,0,17,0,17,0,1324.3212086000003,,,,,,,,,,,,,,,1324.3100457,1324.3212086000003,1324.3212086000003,1324.3212086000003,1325.2256547999987,1326.2923759999994,f,1,1.9661947000004147,None,right,20,"[20, 19, 20, 18, 19, 17, 18, 17, 20, 19, 20]",11,shiftedgaze_R_20.png,f,1,1,results17,001,2026-04-14_13h25.56.182,mogelijke versie adaptive staircase builder,,2026.1.3,59.99340072586862,2026-04-14 13h25.56.472484 +0200,
4.5,ecc10pos,left,18,0,18,j,0,1.823776999999609,None,0,0,0,0,18,0,18,0,1326.4000254999992,,,,,,,,,,,,,,,1326.3893993000002,1326.4000254999992,1326.4000254999992,1326.4000254999992,1327.2918530999996,1328.2255691999999,j,0,1.823776999999609,None,left,19,"[20, 19, 20, 18, 19, 17, 18, 17, 20, 19, 20, 19]",12,shiftedgaze_L_19.png,j,0,1,results17,001,2026-04-14_13h25.56.182,mogelijke versie adaptive staircase builder,,2026.1.3,59.99340072586862,2026-04-14 13h25.56.472484 +0200,
4.5,ecc10pos,left,19,0,19,f,0,1.4981256000010035,None,0,0,0,0,19,0,19,0,1328.3250271999987,,,,,,,,,,,,,,,1328.3145791999996,1328.3250271999987,1328.3250271999987,1328.3250271999987,1329.2256664999986,1329.8253609000003,f,0,1.4981256000010035,None,direct,20,"[20, 19, 20, 18, 19, 17, 18, 17, 20, 19, 20, 19]",12,shifteddirectgaze.png,f,0,1,results17,001,2026-04-14_13h25.56.182,mogelijke versie adaptive staircase builder,,2026.1.3,59.99340072586862,2026-04-14 13h25.56.472484 +0200,
4.5,ecc10pos,left,20,0,20,j,0,1.5215392999998585,None,0,0,0,0,20,0,20,0,1329.9176754,,,,,,,,,,,,,,,1329.9136753000002,1329.9176754,1329.9176754,1329.9176754,1330.8256636999995,1331.4420013999988,j,0,1.5215392999998585,None,right,20,"[20, 19, 20, 18, 19, 17, 18, 17, 20, 19, 20, 19]",12,shiftedgaze_R_20.png,j,0,1,results17,001,2026-04-14_13h25.56.182,mogelijke versie adaptive staircase builder,,2026.1.3,59.99340072586862,2026-04-14 13h25.56.472484 +0200,
4.5,ecc10pos,left,21,0,21,j,1,2.100261200001114,None,0,0,0,0,21,0,21,0,1331.5309680999999,,,,,,,,,,,,,,,1331.5256708999987,1331.5309680999999,1331.5309680999999,1331.5309680999999,1332.4422400000003,1333.6419496999988,j,1,2.100261200001114,None,direct,20,"[20, 19, 20, 18, 19, 17, 18, 17, 20, 19, 20, 19, 20]",13,shifteddirectgaze.png,j,1,1,results17,001,2026-04-14_13h25.56.182,mogelijke versie adaptive staircase builder,,2026.1.3,59.99340072586862,2026-04-14 13h25.56.472484 +0200,
4.5,ecc10pos,left,22,0,22,f,1,1.2587711000014679,None,0,0,0,0,22,0,22,0,1333.7407418000003,,,,,,,,,,,,,,,1333.7311179999997,1333.7407418000003,1333.7407418000003,1333.7407418000003,1334.6423407999991,1335.0093240999995,f,1,1.2587711000014679,None,left,19,"[20, 19, 20, 18, 19, 17, 18, 17, 20, 19, 20, 19, 20]",13,shiftedgaze_L_19.png,f,1,1,results17,001,2026-04-14_13h25.56.182,mogelijke versie adaptive staircase builder,,2026.1.3,59.99340072586862,2026-04-14 13h25.56.472484 +0200,
4.5,ecc10pos,left,23,0,23,j,1,1.5780190999994375,None,0,0,0,0,23,0,23,0,1335.1096029,,,,,,,,,,,,,,,1335.0983938999998,1335.1096029,1335.1096029,1335.1096029,1336.009,1336.692225499999,j,1,1.5780190999994375,None,direct,18,"[20, 19, 20, 18, 19, 17, 18, 17, 20, 19, 20, 19, 20]",13,shifteddirectgaze.png,j,1,1,results17,001,2026-04-14_13h25.56.182,mogelijke versie adaptive staircase builder,,2026.1.3,59.99340072586862,2026-04-14 13h25.56.472484 +0200,
4.5,ecc10pos,left,24,0,24,f,1,1.5760186999996222,None,0,0,0,0,24,0,24,0,1336.799218799999,,,,,,,,,,,,,,,1336.7890860999996,1336.799218799999,1336.799218799999,1336.799218799999,1337.6923408999992,1338.3754884999998,f,1,1.5760186999996222,None,left,17,"[20, 19, 20, 18, 19, 17, 18, 17, 20, 19, 20, 19, 20]",13,shiftedgaze_L_17.png,f,1,1,results17,001,2026-04-14_13h25.56.182,mogelijke versie adaptive staircase builder,,2026.1.3,59.99340072586862,2026-04-14 13h25.56.472484 +0200,
4.5,ecc10pos,left,25,0,25,f,1,2.019244700000854,None,0,0,0,0,25,0,25,0,1338.4763200999987,,,,,,,,,,,,,,,1338.4652852999989,1338.4763200999987,1338.4763200999987,1338.4763200999987,1339.3757081000003,1340.5089626999998,f,1,2.019244700000854,None,right,16,"[20, 19, 20, 18, 19, 17, 18, 17, 20, 19, 20, 19, 20]",13,shiftedgaze_R_16.png,f,1,1,results17,001,2026-04-14_13h25.56.182,mogelijke versie adaptive staircase builder,,2026.1.3,59.99340072586862,2026-04-14 13h25.56.472484 +0200,
4.5,ecc10pos,left,26,0,26,j,0,1.5932971000001999,None,0,0,0,0,26,0,26,0,1340.5985249999994,,,,,,,,,,,,,,,1340.5945014999998,1340.5985249999994,1340.5985249999994,1340.5985249999994,1341.5089931000002,1342.1926862,j,0,1.5932971000001999,None,right,15,"[20, 19, 20, 18, 19, 17, 18, 17, 20, 19, 20, 19, 20, 15]",14,shiftedgaze_R_15.png,j,0,1,results17,001,2026-04-14_13h25.56.182,mogelijke versie adaptive staircase builder,,2026.1.3,59.99340072586862,2026-04-14 13h25.56.472484 +0200,
4.5,ecc10pos,left,27,0,27,j,0,2.6030928999989555,None,0,0,0,0,27,0,27,0,1342.3001112000002,,,,,,,,,,,,,,,1342.2888408,1342.3001112000002,1342.3001112000002,1342.3001112000002,1343.192330599999,1344.9087017000002,j,0,2.6030928999989555,None,left,16,"[20, 19, 20, 18, 19, 17, 18, 17, 20, 19, 20, 19, 20, 15]",14,shiftedgaze_L_16.png,j,0,1,results17,001,2026-04-14_13h25.56.182,mogelijke versie adaptive staircase builder,,2026.1.3,59.99340072586862,2026-04-14 13h25.56.472484 +0200,
4.5,ecc10pos,left,28,0,28,j,1,1.6865021000012348,None,0,0,0,0,28,0,28,0,1345.0086503000002,,,,,,,,,,,,,,,1344.9978561999997,1345.0086503000002,1345.0086503000002,1345.0086503000002,1345.908782999999,1346.7087034999986,j,1,1.6865021000012348,None,direct,17,"[20, 19, 20, 18, 19, 17, 18, 17, 20, 19, 20, 19, 20, 15, 17]",15,shifteddirectgaze.png,j,1,1,results17,001,2026-04-14_13h25.56.182,mogelijke versie adaptive staircase builder,,2026.1.3,59.99340072586862,2026-04-14 13h25.56.472484 +0200,
4.5,ecc10pos,left,29,0,29,f,0,1.2568955999995524,None,0,0,0,0,29,0,29,0,1346.7906738000001,,,,,,,,,,,,,,,1346.7867024999996,1346.7906738000001,1346.7906738000001,1346.7906738000001,1347.7085045999993,1348.0593026999995,f,0,1.2568955999995524,None,direct,16,"[20, 19, 20, 18, 19, 17, 18, 17, 20, 19, 20, 19, 20, 15, 17, 16]",16,shifteddirectgaze.png,f,0,1,results17,001,2026-04-14_13h25.56.182,mogelijke versie adaptive staircase builder,,2026.1.3,59.99340072586862,2026-04-14 13h25.56.472484 +0200,
4.5,ecc10pos,left,30,0,30,j,1,1.6166728000007424,None,0,0,0,0,30,0,30,0,1348.1424525999992,,,,,,,,,,,,,,,1348.1383723,1348.1424525999992,1348.1424525999992,1348.1424525999992,1349.0599144999996,1349.7756529999988,j,1,1.6166728000007424,None,direct,17,"[20, 19, 20, 18, 19, 17, 18, 17, 20, 19, 20, 19, 20, 15, 17, 16, 17]",17,shifteddirectgaze.png,j,1,1,results17,001,2026-04-14_13h25.56.182,mogelijke versie adaptive staircase builder,,2026.1.3,59.99340072586862,2026-04-14 13h25.56.472484 +0200,
4.5,ecc10pos,left,31,0,31,f,1,1.84674509999968,None,0,0,0,0,31,0,31,0,1349.8643787,,,,,,,,,,,,,,,1349.8603727999998,1349.8643787,1349.8643787,1349.8643787,1350.775480299999,1351.7257097000002,f,1,1.84674509999968,None,right,16,"[20, 19, 20, 18, 19, 17, 18, 17, 20, 19, 20, 19, 20, 15, 17, 16, 17]",17,shiftedgaze_R_16.png,f,1,1,results17,001,2026-04-14_13h25.56.182,mogelijke versie adaptive staircase builder,,2026.1.3,59.99340072586862,2026-04-14 13h25.56.472484 +0200,
4.5,ecc10pos,left,32,0,32,j,1,1.3310061000011046,None,0,0,0,0,32,0,32,0,1351.8201935999987,,,,,,,,,,,,,,,1351.8148774000001,1351.8201935999987,1351.8201935999987,1351.8201935999987,1352.7254844999989,1353.1591220999999,j,1,1.3310061000011046,None,direct,15,"[20, 19, 20, 18, 19, 17, 18, 17, 20, 19, 20, 19, 20, 15, 17, 16, 17]",17,shifteddirectgaze.png,j,1,1,results17,001,2026-04-14_13h25.56.182,mogelijke versie adaptive staircase builder,,2026.1.3,59.99340072586862,2026-04-14 13h25.56.472484 +0200,
4.5,ecc10pos,left,33,0,33,j,0,2.966114799999559,None,0,0,0,0,33,0,33,0,1353.2570915999986,,,,,,,,,,,,,,,1353.252540899999,1353.2570915999986,1353.2570915999986,1353.2570915999986,1354.1588381000001,1356.2257215999998,j,0,2.966114799999559,None,left,14,"[20, 19, 20, 18, 19, 17, 18, 17, 20, 19, 20, 19, 20, 15, 17, 16, 17, 14]",18,shiftedgaze_L_14.png,j,0,1,results17,001,2026-04-14_13h25.56.182,mogelijke versie adaptive staircase builder,,2026.1.3,59.99340072586862,2026-04-14 13h25.56.472484 +0200,
4.5,ecc10pos,left,34,0,34,j,0,1.540400399999271,None,0,0,0,0,34,0,34,0,1356.3387938999986,,,,,,,,,,,,,,,1356.3278656000002,1356.3387938999986,1356.3387938999986,1356.3387938999986,1357.2253875999995,1357.892332899999,j,0,1.540400399999271,None,left,15,"[20, 19, 20, 18, 19, 17, 18, 17, 20, 19, 20, 19, 20, 15, 17, 16, 17, 14]",18,shiftedgaze_L_15.png,j,0,1,results17,001,2026-04-14_13h25.56.182,mogelijke versie adaptive staircase builder,,2026.1.3,59.99340072586862,2026-04-14 13h25.56.472484 +0200,
4.5,ecc10pos,left,35,0,35,j,1,1.417339900001025,None,0,0,0,0,35,0,35,0,1357.9977935999996,,,,,,,,,,,,,,,1357.9868558999988,1357.9977935999996,1357.9977935999996,1357.9977935999996,1358.8920221999997,1359.4257257999998,j,1,1.417339900001025,None,direct,16,"[20, 19, 20, 18, 19, 17, 18, 17, 20, 19, 20, 19, 20, 15, 17, 16, 17, 14, 16]",19,shifteddirectgaze.png,j,1,1,results17,001,2026-04-14_13h25.56.182,mogelijke versie adaptive staircase builder,,2026.1.3,59.99340072586862,2026-04-14 13h25.56.472484 +0200,
4.5,ecc10pos,left,36,0,36,f,0,1.2458977000005689,None,0,0,0,0,36,0,36,0,1359.5213182999996,,,,,,,,,,,,,,,1359.5166109000002,1359.5213182999996,1359.5213182999996,1359.5213182999996,1360.4254440999994,1360.7756632,f,0,1.2458977000005689,None,direct,15,"[20, 19, 20, 18, 19, 17, 18, 17, 20, 19, 20, 19, 20, 15, 17, 16, 17, 14, 16, 15]",20,shifteddirectgaze.png,f,0,1,results17,001,2026-04-14_13h25.56.182,mogelijke versie adaptive staircase builder,,2026.1.3,59.99340072586862,2026-04-14 13h25.56.472484 +0200,
4.5,ecc10pos,left,37,0,37,j,1,1.858045499999207,None,0,0,0,0,37,0,37,0,1360.8770848999993,,,,,,,,,,,,,,,1360.8724258999991,1360.8770848999993,1360.8770848999993,1360.8770848999993,1361.775492499999,1362.7424802999994,j,1,1.858045499999207,None,direct,16,"[20, 19, 20, 18, 19, 17, 18, 17, 20, 19, 20, 19, 20, 15, 17, 16, 17, 14, 16, 15, 16]",21,shifteddirectgaze.png,j,1,1,results17,001,2026-04-14_13h25.56.182,mogelijke versie adaptive staircase builder,,2026.1.3,59.99340072586862,2026-04-14 13h25.56.472484 +0200,
4.5,ecc10pos,left,38,0,38,f,0,1.7230841999989934,None,0,0,0,0,38,0,38,0,1362.8361587,,,,,,,,,,,,,,,1362.8313780999997,1362.8361587,1362.8361587,1362.8361587,1363.7422453999989,1364.5757572000002,f,0,1.7230841999989934,None,direct,15,"[20, 19, 20, 18, 19, 17, 18, 17, 20, 19, 20, 19, 20, 15, 17, 16, 17, 14, 16, 15, 16, 15]",22,shifteddirectgaze.png,f,0,1,results17,001,2026-04-14_13h25.56.182,mogelijke versie adaptive staircase builder,,2026.1.3,59.99340072586862,2026-04-14 13h25.56.472484 +0200,
4.5,ecc10pos,left,39,0,39,j,0,2.014718399999765,None,0,0,0,0,39,0,39,0,1364.6884432999996,,,,,,,,,,,,,,,1364.6779709999992,1364.6884432999996,1364.6884432999996,1364.6884432999996,1365.5755290999987,1366.7090310000003,j,0,2.014718399999765,None,left,16,"[20, 19, 20, 18, 19, 17, 18, 17, 20, 19, 20, 19, 20, 15, 17, 16, 17, 14, 16, 15, 16, 15]",22,shiftedgaze_L_16.png,j,0,1,results17,001,2026-04-14_13h25.56.182,mogelijke versie adaptive staircase builder,,2026.1.3,59.99340072586862,2026-04-14 13h25.56.472484 +0200,
4.5,ecc10pos,left,40,0,40,f,1,1.459518300000127,None,0,0,0,0,40,0,40,0,1366.8196847,,,,,,,,,,,,,,,1366.808121,1366.8196847,1366.8196847,1366.8196847,1367.7088996999992,1368.2922517999996,f,1,1.459518300000127,None,right,17,"[20, 19, 20, 18, 19, 17, 18, 17, 20, 19, 20, 19, 20, 15, 17, 16, 17, 14, 16, 15, 16, 15, 17]",23,shiftedgaze_R_17.png,f,1,1,results17,001,2026-04-14_13h25.56.182,mogelijke versie adaptive staircase builder,,2026.1.3,59.99340072586862,2026-04-14 13h25.56.472484 +0200,
4.5,ecc10pos,left,41,0,41,j,1,1.521967799999402,None,0,0,0,0,41,0,41,0,1368.3811798999996,,,,,,,,,,,,,,,1368.376185699999,1368.3811798999996,1368.3811798999996,1368.3811798999996,1369.2924213999995,1369.9087641999995,j,1,1.521967799999402,None,direct,16,"[20, 19, 20, 18, 19, 17, 18, 17, 20, 19, 20, 19, 20, 15, 17, 16, 17, 14, 16, 15, 16, 15, 17]",23,shifteddirectgaze.png,j,1,1,results17,001,2026-04-14_13h25.56.182,mogelijke versie adaptive staircase builder,,2026.1.3,59.99340072586862,2026-04-14 13h25.56.472484 +0200,
4.5,ecc10pos,left,42,0,42,f,0,1.2660897000005207,None,0,0,0,0,42,0,42,0,1369.9974218999996,,,,,,,,,,,,,,,1369.9924864999994,1369.9974218999996,1369.9974218999996,1369.9974218999996,1370.9091192999986,1371.2760684999994,f,0,1.2660897000005207,None,direct,15,"[20, 19, 20, 18, 19, 17, 18, 17, 20, 19, 20, 19, 20, 15, 17, 16, 17, 14, 16, 15, 16, 15, 17, 15]",24,shifteddirectgaze.png,f,0,1,results17,001,2026-04-14_13h25.56.182,mogelijke versie adaptive staircase builder,,2026.1.3,59.99340072586862,2026-04-14 13h25.56.472484 +0200,
4.5,ecc10pos,left,43,0,43,j,0,1.8763155999986338,None,0,0,0,0,43,0,43,0,1371.3790095999993,,,,,,,,,,,,,,,1371.3686498999996,1371.3790095999993,1371.3790095999993,1371.3790095999993,1372.291944999999,1373.2594243999993,j,0,1.8763155999986338,None,left,16,"[20, 19, 20, 18, 19, 17, 18, 17, 20, 19, 20, 19, 20, 15, 17, 16, 17, 14, 16, 15, 16, 15, 17, 15]",24,shiftedgaze_L_16.png,j,0,1,results17,001,2026-04-14_13h25.56.182,mogelijke versie adaptive staircase builder,,2026.1.3,59.99340072586862,2026-04-14 13h25.56.472484 +0200,
4.5,ecc10pos,left,44,0,44,j,0,1.8391267000006337,None,0,0,0,0,44,0,44,0,1373.3520828,,,,,,,,,,,,,,,1373.347055799999,1373.3520828,1373.3520828,1373.3520828,1374.2591013,1375.1921763999999,j,0,1.8391267000006337,None,left,17,"[20, 19, 20, 18, 19, 17, 18, 17, 20, 19, 20, 19, 20, 15, 17, 16, 17, 14, 16, 15, 16, 15, 17, 15]",24,shiftedgaze_L_17.png,j,0,1,results17,001,2026-04-14_13h25.56.182,mogelijke versie adaptive staircase builder,,2026.1.3,59.99340072586862,2026-04-14 13h25.56.472484 +0200,
4.5,ecc10pos,left,45,0,45,f,1,1.602100000000064,None,0,0,0,0,45,0,45,0,1375.2930954000003,,,,,,,,,,,,,,,1375.2878685999985,1375.2930954000003,1375.2930954000003,1375.2930954000003,1376.1925102999994,1376.9089023999986,f,1,1.602100000000064,None,left,18,"[20, 19, 20, 18, 19, 17, 18, 17, 20, 19, 20, 19, 20, 15, 17, 16, 17, 14, 16, 15, 16, 15, 17, 15, 18]",25,shiftedgaze_L_18.png,f,1,1,results17,001,2026-04-14_13h25.56.182,mogelijke versie adaptive staircase builder,,2026.1.3,59.99340072586862,2026-04-14 13h25.56.472484 +0200,
4.5,ecc10pos,left,46,0,46,f,1,1.9015009000013379,None,0,0,0,0,46,0,46,0,1377.0016577999995,,,,,,,,,,,,,,,1376.991369199999,1377.0016577999995,1377.0016577999995,1377.0016577999995,1377.9086298000002,1378.9087683999987,f,1,1.9015009000013379,None,right,17,"[20, 19, 20, 18, 19, 17, 18, 17, 20, 19, 20, 19, 20, 15, 17, 16, 17, 14, 16, 15, 16, 15, 17, 15, 18]",25,shiftedgaze_R_17.png,f,1,1,results17,001,2026-04-14_13h25.56.182,mogelijke versie adaptive staircase builder,,2026.1.3,59.99340072586862,2026-04-14 13h25.56.472484 +0200,
4.5,ecc10pos,left,47,0,47,f,1,2.4901751999987027,None,0,0,0,0,47,0,47,0,1379.0049652999987,,,,,,,,,,,,,,,1378.9953635000002,1379.0049652999987,1379.0049652999987,1379.0049652999987,1379.9086103999998,1381.5087769000002,f,1,2.4901751999987027,None,left,16,"[20, 19, 20, 18, 19, 17, 18, 17, 20, 19, 20, 19, 20, 15, 17, 16, 17, 14, 16, 15, 16, 15, 17, 15, 18]",25,shiftedgaze_L_16.png,f,1,1,results17,001,2026-04-14_13h25.56.182,mogelijke versie adaptive staircase builder,,2026.1.3,59.99340072586862,2026-04-14 13h25.56.472484 +0200,
4.5,ecc10pos,left,48,0,48,j,0,1.643487000001187,None,0,0,0,0,48,0,48,0,1381.612353299999,,,,,,,,,,,,,,,1381.6013301000003,1381.612353299999,1381.612353299999,1381.612353299999,1382.508677599999,1383.2593956,j,0,1.643487000001187,None,left,15,"[20, 19, 20, 18, 19, 17, 18, 17, 20, 19, 20, 19, 20, 15, 17, 16, 17, 14, 16, 15, 16, 15, 17, 15, 18, 15]",26,shiftedgaze_L_15.png,j,0,1,results17,001,2026-04-14_13h25.56.182,mogelijke versie adaptive staircase builder,,2026.1.3,59.99340072586862,2026-04-14 13h25.56.472484 +0200,
4.5,ecc10pos,left,49,0,49,j,0,1.703930699999546,None,0,0,0,0,49,0,49,0,1383.359198799999,,,,,,,,,,,,,,,1383.3488840999999,1383.359198799999,1383.359198799999,1383.359198799999,1384.2588816999996,1385.0754242000003,j,0,1.703930699999546,None,right,16,"[20, 19, 20, 18, 19, 17, 18, 17, 20, 19, 20, 19, 20, 15, 17, 16, 17, 14, 16, 15, 16, 15, 17, 15, 18, 15]",26,shiftedgaze_R_16.png,j,0,1,results17,001,2026-04-14_13h25.56.182,mogelijke versie adaptive staircase builder,,2026.1.3,59.99340072586862,2026-04-14 13h25.56.472484 +0200,
4.5,ecc10pos,left,50,0,50,f,0,2.0983484999997017,None,0,0,0,0,50,0,50,0,1385.1651607999993,,,,,,,,,,,,,,,1385.160488899999,1385.1651607999993,1385.1651607999993,1385.1651607999993,1386.0753116999986,1387.2760234999987,f,0,2.0983484999997017,None,direct,17,"[20, 19, 20, 18, 19, 17, 18, 17, 20, 19, 20, 19, 20, 15, 17, 16, 17, 14, 16, 15, 16, 15, 17, 15, 18, 15]",26,shifteddirectgaze.png,f,0,1,results17,001,2026-04-14_13h25.56.182,mogelijke versie adaptive staircase builder,,2026.1.3,59.99340072586862,2026-04-14 13h25.56.472484 +0200,
4.5,ecc10pos,left,51,0,51,j,0,1.817741400000159,None,0,0,0,0,51,0,51,0,1387.3735144999991,,,,,,,,,,,,,,,1387.367705999999,1387.3735144999991,1387.3735144999991,1387.3735144999991,1388.2758037999993,1389.1921557999995,j,0,1.817741400000159,None,right,18,"[20, 19, 20, 18, 19, 17, 18, 17, 20, 19, 20, 19, 20, 15, 17, 16, 17, 14, 16, 15, 16, 15, 17, 15, 18, 15]",26,shiftedgaze_R_18.png,j,0,1,results17,001,2026-04-14_13h25.56.182,mogelijke versie adaptive staircase builder,,2026.1.3,59.99340072586862,2026-04-14 13h25.56.472484 +0200,
4.5,ecc10pos,left,52,0,52,j,0,1.3103682000000845,None,0,0,0,0,52,0,52,0,1389.2967614999998,,,,,,,,,,,,,,,1389.286401199999,1389.2967614999998,1389.2967614999998,1389.2967614999998,1390.1919416,1390.6089154000001,j,0,1.3103682000000845,None,right,19,"[20, 19, 20, 18, 19, 17, 18, 17, 20, 19, 20, 19, 20, 15, 17, 16, 17, 14, 16, 15, 16, 15, 17, 15, 18, 15]",26,shiftedgaze_R_19.png,j,0,1,results17,001,2026-04-14_13h25.56.182,mogelijke versie adaptive staircase builder,,2026.1.3,59.99340072586862,2026-04-14 13h25.56.472484 +0200,
4.5,ecc10pos,left,53,0,53,f,1,1.4579238000005716,None,0,0,0,0,53,0,53,0,1390.7252238,,,,,,,,,,,,,,,1390.7154606999993,1390.7252238,1390.7252238,1390.7252238,1391.6087267000003,1392.1921165999993,f,1,1.4579238000005716,None,right,20,"[20, 19, 20, 18, 19, 17, 18, 17, 20, 19, 20, 19, 20, 15, 17, 16, 17, 14, 16, 15, 16, 15, 17, 15, 18, 15, 20]",27,shiftedgaze_R_20.png,f,1,1,results17,001,2026-04-14_13h25.56.182,mogelijke versie adaptive staircase builder,,2026.1.3,59.99340072586862,2026-04-14 13h25.56.472484 +0200,
4.5,ecc10pos,left,54,0,54,j,0,1.6936470999989979,None,0,0,0,0,54,0,54,0,1392.2815117999999,,,,,,,,,,,,,,,1392.2720253999996,1392.2815117999999,1392.2815117999999,1392.2815117999999,1393.1924514999992,1393.9754072999986,j,0,1.6936470999989979,None,right,19,"[20, 19, 20, 18, 19, 17, 18, 17, 20, 19, 20, 19, 20, 15, 17, 16, 17, 14, 16, 15, 16, 15, 17, 15, 18, 15, 20, 19]",28,shiftedgaze_R_19.png,j,0,1,results17,001,2026-04-14_13h25.56.182,mogelijke versie adaptive staircase builder,,2026.1.3,59.99340072586862,2026-04-14 13h25.56.472484 +0200,
4.5,ecc10pos,left,55,0,55,f,0,2.8864812000010716,None,0,0,0,0,55,0,55,0,1394.0646521999988,,,,,,,,,,,,,,,1394.0552707999996,1394.0646521999988,1394.0646521999988,1394.0646521999988,1394.9752620999989,1396.958752299999,f,0,2.8864812000010716,None,direct,20,"[20, 19, 20, 18, 19, 17, 18, 17, 20, 19, 20, 19, 20, 15, 17, 16, 17, 14, 16, 15, 16, 15, 17, 15, 18, 15, 20, 19]",28,shifteddirectgaze.png,f,0,1,results17,001,2026-04-14_13h25.56.182,mogelijke versie adaptive staircase builder,,2026.1.3,59.99340072586862,2026-04-14 13h25.56.472484 +0200,
4.5,ecc10pos,left,56,0,56,j,0,1.2814865000000282,None,0,0,0,0,56,0,56,0,1397.0696376999986,,,,,,,,,,,,,,,1397.0588781999995,1397.0696376999986,1397.0696376999986,1397.0696376999986,1397.958585299999,1398.3587995999987,j,0,1.2814865000000282,None,left,20,"[20, 19, 20, 18, 19, 17, 18, 17, 20, 19, 20, 19, 20, 15, 17, 16, 17, 14, 16, 15, 16, 15, 17, 15, 18, 15, 20, 19]",28,shiftedgaze_L_20.png,j,0,1,results17,001,2026-04-14_13h25.56.182,mogelijke versie adaptive staircase builder,,2026.1.3,59.99340072586862,2026-04-14 13h25.56.472484 +0200,
4.5,ecc10pos,left,57,0,57,f,1,1.3668109999998705,None,0,0,0,0,57,0,57,0,1398.4483573999987,,,,,,,,,,,,,,,1398.4384907999993,1398.4483573999987,1398.4483573999987,1398.4483573999987,1399.358588699999,1399.8257268999987,f,1,1.3668109999998705,None,right,20,"[20, 19, 20, 18, 19, 17, 18, 17, 20, 19, 20, 19, 20, 15, 17, 16, 17, 14, 16, 15, 16, 15, 17, 15, 18, 15, 20, 19, 20]",29,shiftedgaze_R_20.png,f,1,1,results17,001,2026-04-14_13h25.56.182,mogelijke versie adaptive staircase builder,,2026.1.3,59.99340072586862,2026-04-14 13h25.56.472484 +0200,
4.5,ecc10pos,left,58,0,58,f,1,1.3796490999993694,None,0,0,0,0,58,0,58,0,1399.9395542000002,,,,,,,,,,,,,,,1399.9293308999986,1399.9395542000002,1399.9395542000002,1399.9395542000002,1400.8256444999988,1401.3256587999986,f,1,1.3796490999993694,None,left,19,"[20, 19, 20, 18, 19, 17, 18, 17, 20, 19, 20, 19, 20, 15, 17, 16, 17, 14, 16, 15, 16, 15, 17, 15, 18, 15, 20, 19, 20]",29,shiftedgaze_L_19.png,f,1,1,results17,001,2026-04-14_13h25.56.182,mogelijke versie adaptive staircase builder,,2026.1.3,59.99340072586862,2026-04-14 13h25.56.472484 +0200,
4.5,ecc10pos,left,59,0,59,f,1,2.905504700000165,None,0,0,0,0,59,0,59,0,1401.4297128999988,,,,,,,,,,,,,,,1401.4193040999999,1401.4297128999988,1401.4297128999988,1401.4297128999988,1402.3254328999992,1404.3423458999987,f,1,2.905504700000165,None,right,18,"[20, 19, 20, 18, 19, 17, 18, 17, 20, 19, 20, 19, 20, 15, 17, 16, 17, 14, 16, 15, 16, 15, 17, 15, 18, 15, 20, 19, 20]",29,shiftedgaze_R_18.png,f,1,1,results17,001,2026-04-14_13h25.56.182,mogelijke versie adaptive staircase builder,,2026.1.3,59.99340072586862,2026-04-14 13h25.56.472484 +0200,
4.5,ecc10pos,left,0,0,0,,,,,0,0,0,0,,,,,,,,,,,,,,,,,,,,,,,,,,,,,,,,,,,,,,results17,001,2026-04-14_13h25.56.182,mogelijke versie adaptive staircase builder,,2026.1.3,59.99340072586862,2026-04-14 13h25.56.472484 +0200,
12.5,ecc0,mid,0,0,0,j,0,3.476691600000777,None,0,1,1,1,0,0,0,0,1404.4744904999989,,,,,,,,,,,,,1404.3691385999991,1404.3691961999994,1404.4698308999996,1404.4744904999989,1405.3755830999999,1404.4744904999989,1404.4744904999989,1407.9589663999996,j,0,3.476691600000777,None,left,20,[],0,gaze_L_20.png,j,0,2,results17,001,2026-04-14_13h25.56.182,mogelijke versie adaptive staircase builder,,2026.1.3,59.99340072586862,2026-04-14 13h25.56.472484 +0200,
12.5,ecc0,mid,1,0,1,j,1,2.2360411999998178,None,0,1,1,1,1,0,1,0,1408.0590961999987,,,,,,,,,,,,,,,1408.054344799999,1408.0590961999987,1408.9587802999995,1408.0590961999987,1408.0590961999987,1410.3093137999986,j,1,2.2360411999998178,None,direct,20,[20],1,direct_gaze.png,j,1,2,results17,001,2026-04-14_13h25.56.182,mogelijke versie adaptive staircase builder,,2026.1.3,59.99340072586862,2026-04-14 13h25.56.472484 +0200,
12.5,ecc0,mid,2,0,2,f,1,1.857824000000619,None,0,1,1,1,2,0,2,0,1410.397670299999,,,,,,,,,,,,,,,1410.3938132000003,1410.397670299999,1411.3252608999992,1410.397670299999,1410.397670299999,1412.2590399,f,1,1.857824000000619,None,right,19,[20],1,gaze_R_19.png,f,1,2,results17,001,2026-04-14_13h25.56.182,mogelijke versie adaptive staircase builder,,2026.1.3,59.99340072586862,2026-04-14 13h25.56.472484 +0200,
12.5,ecc0,mid,3,0,3,f,1,2.8482238999986293,None,0,1,1,1,3,0,3,0,1412.3509044000002,,,,,,,,,,,,,,,1412.3469222999993,1412.3509044000002,1413.2587955999988,1412.3509044000002,1412.3509044000002,1415.2087740999996,f,1,2.8482238999986293,None,right,18,[20],1,gaze_R_18.png,f,1,2,results17,001,2026-04-14_13h25.56.182,mogelijke versie adaptive staircase builder,,2026.1.3,59.99340072586862,2026-04-14 13h25.56.472484 +0200,
12.5,ecc0,mid,4,0,4,j,0,2.644432900000538,None,0,1,1,1,4,0,4,0,1415.2987238999995,,,,,,,,,,,,,,,1415.2946334999997,1415.2987238999995,1416.2088773999985,1415.2987238999995,1415.2987238999995,1417.9587962999994,j,0,2.644432900000538,None,left,17,"[20, 17]",2,gaze_L_17.png,j,0,2,results17,001,2026-04-14_13h25.56.182,mogelijke versie adaptive staircase builder,,2026.1.3,59.99340072586862,2026-04-14 13h25.56.472484 +0200,
12.5,ecc0,mid,5,0,5,f,1,1.669911900000443,None,0,1,1,1,5,0,5,0,1418.0492297,,,,,,,,,,,,,,,1418.0449195,1418.0492297,1418.958573,1418.0492297,1418.0492297,1419.7254643999986,f,1,1.669911900000443,None,left,18,"[20, 17, 18]",3,gaze_L_18.png,f,1,2,results17,001,2026-04-14_13h25.56.182,mogelijke versie adaptive staircase builder,,2026.1.3,59.99340072586862,2026-04-14 13h25.56.472484 +0200,
12.5,ecc0,mid,6,0,6,j,1,1.6308893999994325,None,0,1,1,1,6,0,6,0,1419.8085883000003,,,,,,,,,,,,,,,1419.8043589999997,1419.8085883000003,1420.7252314999987,1419.8085883000003,1419.8085883000003,1421.4425893999996,j,1,1.6308893999994325,None,direct,17,"[20, 17, 18]",3,direct_gaze.png,j,1,2,results17,001,2026-04-14_13h25.56.182,mogelijke versie adaptive staircase builder,,2026.1.3,59.99340072586862,2026-04-14 13h25.56.472484 +0200,
12.5,ecc0,mid,7,0,7,f,1,1.8157289999999193,None,0,1,1,1,7,0,7,0,1421.5355600000003,,,,,,,,,,,,,,,1421.5315976000002,1421.5355600000003,1422.4420185,1421.5355600000003,1421.5355600000003,1423.3589292999986,f,1,1.8157289999999193,None,left,16,"[20, 17, 18]",3,gaze_L_16.png,f,1,2,results17,001,2026-04-14_13h25.56.182,mogelijke versie adaptive staircase builder,,2026.1.3,59.99340072586862,2026-04-14 13h25.56.472484 +0200,
12.5,ecc0,mid,8,0,8,j,0,1.9739421999984188,None,0,1,1,1,8,0,8,0,1423.4576066999998,,,,,,,,,,,,,,,1423.4533656000003,1423.4576066999998,1424.3585408,1423.4576066999998,1423.4576066999998,1425.4424854999997,j,0,1.9739421999984188,None,right,15,"[20, 17, 18, 15]",4,gaze_R_15.png,j,0,2,results17,001,2026-04-14_13h25.56.182,mogelijke versie adaptive staircase builder,,2026.1.3,59.99340072586862,2026-04-14 13h25.56.472484 +0200,
12.5,ecc0,mid,9,0,9,j,0,1.803870800000368,None,0,1,1,1,9,0,9,0,1425.5313541999985,,,,,,,,,,,,,,,1425.5268864999998,1425.5313541999985,1426.4585803999998,1425.5313541999985,1425.5313541999985,1427.3420561000003,j,0,1.803870800000368,None,right,16,"[20, 17, 18, 15]",4,gaze_R_16.png,j,0,2,results17,001,2026-04-14_13h25.56.182,mogelijke versie adaptive staircase builder,,2026.1.3,59.99340072586862,2026-04-14 13h25.56.472484 +0200,
12.5,ecc0,mid,10,0,10,f,1,1.9117269999987911,None,0,1,1,1,10,0,10,0,1427.423816999999,,,,,,,,,,,,,,,1427.4197551999987,1427.423816999999,1428.3422515999991,1427.423816999999,1427.423816999999,1429.3425792999988,f,1,1.9117269999987911,None,left,17,"[20, 17, 18, 15, 17]",5,gaze_L_17.png,f,1,2,results17,001,2026-04-14_13h25.56.182,mogelijke versie adaptive staircase builder,,2026.1.3,59.99340072586862,2026-04-14 13h25.56.472484 +0200,
12.5,ecc0,mid,11,0,11,j,0,2.390698999999586,None,0,1,1,1,11,0,11,0,1429.4246334,,,,,,,,,,,,,,,1429.4205215000002,1429.4246334,1430.3423243999987,1429.4246334,1429.4246334,1431.8257546999994,j,0,2.390698999999586,None,left,16,"[20, 17, 18, 15, 17, 16]",6,gaze_L_16.png,j,0,2,results17,001,2026-04-14_13h25.56.182,mogelijke versie adaptive staircase builder,,2026.1.3,59.99340072586862,2026-04-14 13h25.56.472484 +0200,
12.5,ecc0,mid,12,0,12,j,0,1.813985099999627,None,0,1,1,1,12,0,12,0,1431.9134298999998,,,,,,,,,,,,,,,1431.9093928000002,1431.9134298999998,1432.8256628999989,1431.9134298999998,1431.9134298999998,1433.7420231999986,j,0,1.813985099999627,None,right,17,"[20, 17, 18, 15, 17, 16]",6,gaze_R_17.png,j,0,2,results17,001,2026-04-14_13h25.56.182,mogelijke versie adaptive staircase builder,,2026.1.3,59.99340072586862,2026-04-14 13h25.56.472484 +0200,
12.5,ecc0,mid,13,0,13,f,1,2.0307371000017156,None,0,1,1,1,13,0,13,0,1433.8249305999998,,,,,,,,,,,,,,,1433.8210545000002,1433.8249305999998,1434.7417941999993,1433.8249305999998,1433.8249305999998,1435.8592740999993,f,1,2.0307371000017156,None,left,18,"[20, 17, 18, 15, 17, 16, 18]",7,gaze_L_18.png,f,1,2,results17,001,2026-04-14_13h25.56.182,mogelijke versie adaptive staircase builder,,2026.1.3,59.99340072586862,2026-04-14 13h25.56.472484 +0200,
12.5,ecc0,mid,14,0,14,j,1,1.5163857000006828,None,0,1,1,1,14,0,14,0,1435.9392963999999,,,,,,,,,,,,,,,1435.935467199999,1435.9392963999999,1436.8753220999988,1435.9392963999999,1435.9392963999999,1437.459116599999,j,1,1.5163857000006828,None,direct,17,"[20, 17, 18, 15, 17, 16, 18]",7,direct_gaze.png,j,1,2,results17,001,2026-04-14_13h25.56.182,mogelijke versie adaptive staircase builder,,2026.1.3,59.99340072586862,2026-04-14 13h25.56.472484 +0200,
12.5,ecc0,mid,15,0,15,f,1,1.5063119000005827,None,0,1,1,1,15,0,15,0,1437.5408714999994,,,,,,,,,,,,,,,1437.5370359999997,1437.5408714999994,1438.4587333,1437.5408714999994,1437.5408714999994,1439.058680799999,f,1,1.5063119000005827,None,right,16,"[20, 17, 18, 15, 17, 16, 18]",7,gaze_R_16.png,f,1,2,results17,001,2026-04-14_13h25.56.182,mogelijke versie adaptive staircase builder,,2026.1.3,59.99340072586862,2026-04-14 13h25.56.472484 +0200,
12.5,ecc0,mid,16,0,16,j,0,1.4976655000009487,None,0,1,1,1,16,0,16,0,1439.1497076999985,,,,,,,,,,,,,,,1439.1459067999986,1439.1497076999985,1440.0585372999994,1439.1497076999985,1439.1497076999985,1440.659267699999,j,0,1.4976655000009487,None,left,15,"[20, 17, 18, 15, 17, 16, 18, 15]",8,gaze_L_15.png,j,0,2,results17,001,2026-04-14_13h25.56.182,mogelijke versie adaptive staircase builder,,2026.1.3,59.99340072586862,2026-04-14 13h25.56.472484 +0200,
12.5,ecc0,mid,17,0,17,j,1,1.6067473000002792,None,0,1,1,1,17,0,17,0,1440.7444657999986,,,,,,,,,,,,,,,1440.7405056999996,1440.7444657999986,1441.6589590000003,1440.7444657999986,1440.7444657999986,1442.3586954999992,j,1,1.6067473000002792,None,direct,16,"[20, 17, 18, 15, 17, 16, 18, 15, 16]",9,direct_gaze.png,j,1,2,results17,001,2026-04-14_13h25.56.182,mogelijke versie adaptive staircase builder,,2026.1.3,59.99340072586862,2026-04-14 13h25.56.472484 +0200,
12.5,ecc0,mid,18,0,18,f,0,1.422648499999923,None,0,1,1,1,18,0,18,0,1442.4405424999986,,,,,,,,,,,,,,,1442.4358835000003,1442.4405424999986,1443.358592999999,1442.4405424999986,1442.4405424999986,1443.8753318,f,0,1.422648499999923,None,direct,15,"[20, 17, 18, 15, 17, 16, 18, 15, 16, 15]",10,direct_gaze.png,f,0,2,results17,001,2026-04-14_13h25.56.182,mogelijke versie adaptive staircase builder,,2026.1.3,59.99340072586862,2026-04-14 13h25.56.472484 +0200,
12.5,ecc0,mid,19,0,19,j,0,1.689474100001462,None,0,1,1,1,19,0,19,0,1443.9578874,,,,,,,,,,,,,,,1443.9538267999997,1443.9578874,1444.8752202999985,1443.9578874,1443.9578874,1445.6593335999987,j,0,1.689474100001462,None,right,16,"[20, 17, 18, 15, 17, 16, 18, 15, 16, 15]",10,gaze_R_16.png,j,0,2,results17,001,2026-04-14_13h25.56.182,mogelijke versie adaptive staircase builder,,2026.1.3,59.99340072586862,2026-04-14 13h25.56.472484 +0200,
12.5,ecc0,mid,20,0,20,j,1,1.8347121000006155,None,0,1,1,1,20,0,20,0,1445.7404797,,,,,,,,,,,,,,,1445.7365966999987,1445.7404797,1446.6751341999989,1445.7404797,1445.7404797,1447.575432399999,j,1,1.8347121000006155,None,direct,17,"[20, 17, 18, 15, 17, 16, 18, 15, 16, 15, 17]",11,direct_gaze.png,j,1,2,results17,001,2026-04-14_13h25.56.182,mogelijke versie adaptive staircase builder,,2026.1.3,59.99340072586862,2026-04-14 13h25.56.472484 +0200,
12.5,ecc0,mid,21,0,21,f,0,1.5264671000004455,None,0,1,1,1,21,0,21,0,1447.6649896,,,,,,,,,,,,,,,1447.6603266999991,1447.6649896,1448.575202099999,1447.6649896,1447.6649896,1449.1920011999991,f,0,1.5264671000004455,None,direct,16,"[20, 17, 18, 15, 17, 16, 18, 15, 16, 15, 17, 16]",12,direct_gaze.png,f,0,2,results17,001,2026-04-14_13h25.56.182,mogelijke versie adaptive staircase builder,,2026.1.3,59.99340072586862,2026-04-14 13h25.56.472484 +0200,
12.5,ecc0,mid,22,0,22,f,1,1.7676025000000664,None,0,1,1,1,22,0,22,0,1449.2715994999999,,,,,,,,,,,,,,,1449.2676167999998,1449.2715994999999,1450.1917157999997,1449.2715994999999,1449.2715994999999,1451.0419299999994,f,1,1.7676025000000664,None,right,17,"[20, 17, 18, 15, 17, 16, 18, 15, 16, 15, 17, 16, 17]",13,gaze_R_17.png,f,1,2,results17,001,2026-04-14_13h25.56.182,mogelijke versie adaptive staircase builder,,2026.1.3,59.99340072586862,2026-04-14 13h25.56.472484 +0200,
12.5,ecc0,mid,23,0,23,j,0,1.5635192999998253,None,0,1,1,1,23,0,23,0,1451.123881899999,,,,,,,,,,,,,,,1451.1197489999995,1451.123881899999,1452.042265099999,1451.123881899999,1451.123881899999,1452.6926169999988,j,0,1.5635192999998253,None,right,16,"[20, 17, 18, 15, 17, 16, 18, 15, 16, 15, 17, 16, 17, 16]",14,gaze_R_16.png,j,0,2,results17,001,2026-04-14_13h25.56.182,mogelijke versie adaptive staircase builder,,2026.1.3,59.99340072586862,2026-04-14 13h25.56.472484 +0200,
12.5,ecc0,mid,24,0,24,j,0,2.3284499999990658,None,0,1,1,1,24,0,24,0,1452.7747574999994,,,,,,,,,,,,,,,1452.770480699999,1452.7747574999994,1453.7086507999993,1452.7747574999994,1452.7747574999994,1455.1086761999995,j,0,2.3284499999990658,None,left,17,"[20, 17, 18, 15, 17, 16, 18, 15, 16, 15, 17, 16, 17, 16]",14,gaze_L_17.png,j,0,2,results17,001,2026-04-14_13h25.56.182,mogelijke versie adaptive staircase builder,,2026.1.3,59.99340072586862,2026-04-14 13h25.56.472484 +0200,
12.5,ecc0,mid,25,0,25,j,0,1.7048431000002893,None,0,1,1,1,25,0,25,0,1455.1903624999995,,,,,,,,,,,,,,,1455.1863303999999,1455.1903624999995,1456.1089849,1455.1903624999995,1455.1903624999995,1456.9087233999999,j,0,1.7048431000002893,None,left,18,"[20, 17, 18, 15, 17, 16, 18, 15, 16, 15, 17, 16, 17, 16]",14,gaze_L_18.png,j,0,2,results17,001,2026-04-14_13h25.56.182,mogelijke versie adaptive staircase builder,,2026.1.3,59.99340072586862,2026-04-14 13h25.56.472484 +0200,
12.5,ecc0,mid,26,0,26,f,1,1.3355268000013893,None,0,1,1,1,26,0,26,0,1456.9996746999986,,,,,,,,,,,,,,,1456.995396799999,1456.9996746999986,1457.9090099999994,1456.9996746999986,1456.9996746999986,1458.3419510000003,f,1,1.3355268000013893,None,left,19,"[20, 17, 18, 15, 17, 16, 18, 15, 16, 15, 17, 16, 17, 16, 19]",15,gaze_L_19.png,f,1,2,results17,001,2026-04-14_13h25.56.182,mogelijke versie adaptive staircase builder,,2026.1.3,59.99340072586862,2026-04-14 13h25.56.472484 +0200,
12.5,ecc0,mid,27,0,27,f,1,1.534291599999051,None,0,1,1,1,27,0,27,0,1458.4248441,,,,,,,,,,,,,,,1458.4205373999994,1458.4248441,1459.3423119999989,1458.4248441,1458.4248441,1459.9753912999986,f,1,1.534291599999051,None,left,18,"[20, 17, 18, 15, 17, 16, 18, 15, 16, 15, 17, 16, 17, 16, 19]",15,gaze_L_18.png,f,1,2,results17,001,2026-04-14_13h25.56.182,mogelijke versie adaptive staircase builder,,2026.1.3,59.99340072586862,2026-04-14 13h25.56.472484 +0200,
12.5,ecc0,mid,28,0,28,j,1,1.3258624999998574,None,0,1,1,1,28,0,28,0,1460.0572919999995,,,,,,,,,,,,,,,1460.053483399999,1460.0572919999995,1460.9756951,1460.0572919999995,1460.0572919999995,1461.3921203999998,j,1,1.3258624999998574,None,direct,17,"[20, 17, 18, 15, 17, 16, 18, 15, 16, 15, 17, 16, 17, 16, 19]",15,direct_gaze.png,j,1,2,results17,001,2026-04-14_13h25.56.182,mogelijke versie adaptive staircase builder,,2026.1.3,59.99340072586862,2026-04-14 13h25.56.472484 +0200,
12.5,ecc0,mid,29,0,29,f,1,1.8599391999996442,None,0,1,1,1,29,0,29,0,1461.4755843999992,,,,,,,,,,,,,,,1461.471392899999,1461.4755843999992,1462.3923103999987,1461.4755843999992,1461.4755843999992,1463.342694699999,f,1,1.8599391999996442,None,left,16,"[20, 17, 18, 15, 17, 16, 18, 15, 16, 15, 17, 16, 17, 16, 19]",15,gaze_L_16.png,f,1,2,results17,001,2026-04-14_13h25.56.182,mogelijke versie adaptive staircase builder,,2026.1.3,59.99340072586862,2026-04-14 13h25.56.472484 +0200,
12.5,ecc0,mid,30,0,30,f,1,1.822271400000318,None,0,1,1,1,30,0,30,0,1463.424938099999,,,,,,,,,,,,,,,1463.4210304999997,1463.424938099999,1464.3589813999988,1463.424938099999,1463.424938099999,1465.2590800999988,f,1,1.822271400000318,None,right,15,"[20, 17, 18, 15, 17, 16, 18, 15, 16, 15, 17, 16, 17, 16, 19]",15,gaze_R_15.png,f,1,2,results17,001,2026-04-14_13h25.56.182,mogelijke versie adaptive staircase builder,,2026.1.3,59.99340072586862,2026-04-14 13h25.56.472484 +0200,
12.5,ecc0,mid,31,0,31,j,1,1.4105254000005516,None,0,1,1,1,31,0,31,0,1465.340585599999,,,,,,,,,,,,,,,1465.3366475000003,1465.340585599999,1466.258921499999,1465.340585599999,1465.340585599999,1466.7587091999994,j,1,1.4105254000005516,None,direct,14,"[20, 17, 18, 15, 17, 16, 18, 15, 16, 15, 17, 16, 17, 16, 19]",15,direct_gaze.png,j,1,2,results17,001,2026-04-14_13h25.56.182,mogelijke versie adaptive staircase builder,,2026.1.3,59.99340072586862,2026-04-14 13h25.56.472484 +0200,
12.5,ecc0,mid,32,0,32,j,0,1.6057015999995201,None,0,1,1,1,32,0,32,0,1466.8498737999998,,,,,,,,,,,,,,,1466.8458126999994,1466.8498737999998,1467.7589812999995,1466.8498737999998,1466.8498737999998,1468.4592928999991,j,0,1.6057015999995201,None,right,13,"[20, 17, 18, 15, 17, 16, 18, 15, 16, 15, 17, 16, 17, 16, 19, 13]",16,gaze_R_13.png,j,0,2,results17,001,2026-04-14_13h25.56.182,mogelijke versie adaptive staircase builder,,2026.1.3,59.99340072586862,2026-04-14 13h25.56.472484 +0200,
12.5,ecc0,mid,33,0,33,f,1,2.2890729999999166,None,0,1,1,1,33,0,33,0,1468.5499166999998,,,,,,,,,,,,,,,1468.5459279999995,1468.5499166999998,1469.4589674999988,1468.5499166999998,1468.5499166999998,1470.8421468999986,f,1,2.2890729999999166,None,right,14,"[20, 17, 18, 15, 17, 16, 18, 15, 16, 15, 17, 16, 17, 16, 19, 13, 14]",17,gaze_R_14.png,f,1,2,results17,001,2026-04-14_13h25.56.182,mogelijke versie adaptive staircase builder,,2026.1.3,59.99340072586862,2026-04-14 13h25.56.472484 +0200,
12.5,ecc0,mid,34,0,34,j,1,1.7120930000000953,None,0,1,1,1,34,0,34,0,1470.9271000999997,,,,,,,,,,,,,,,1470.9231623999985,1470.9271000999997,1471.8417070999985,1470.9271000999997,1470.9271000999997,1472.6420409999992,j,1,1.7120930000000953,None,direct,13,"[20, 17, 18, 15, 17, 16, 18, 15, 16, 15, 17, 16, 17, 16, 19, 13, 14]",17,direct_gaze.png,j,1,2,results17,001,2026-04-14_13h25.56.182,mogelijke versie adaptive staircase builder,,2026.1.3,59.99340072586862,2026-04-14 13h25.56.472484 +0200,
12.5,ecc0,mid,35,0,35,j,0,3.125565500000448,None,0,1,1,1,35,0,35,0,1472.7296788000003,,,,,,,,,,,,,,,1472.725684699999,1472.7296788000003,1473.642364199999,1472.7296788000003,1472.7296788000003,1475.8593431999998,j,0,3.125565500000448,None,left,12,"[20, 17, 18, 15, 17, 16, 18, 15, 16, 15, 17, 16, 17, 16, 19, 13, 14, 12]",18,gaze_L_12.png,j,0,2,results17,001,2026-04-14_13h25.56.182,mogelijke versie adaptive staircase builder,,2026.1.3,59.99340072586862,2026-04-14 13h25.56.472484 +0200,
12.5,ecc0,mid,36,0,36,f,0,3.0883990000002086,None,0,1,1,1,36,0,36,0,1475.9428324,,,,,,,,,,,,,,,1475.9390310999988,1475.9428324,1476.8751782,1475.9428324,1475.9428324,1479.042157599999,f,0,3.0883990000002086,None,direct,13,"[20, 17, 18, 15, 17, 16, 18, 15, 16, 15, 17, 16, 17, 16, 19, 13, 14, 12]",18,direct_gaze.png,f,0,2,results17,001,2026-04-14_13h25.56.182,mogelijke versie adaptive staircase builder,,2026.1.3,59.99340072586862,2026-04-14 13h25.56.472484 +0200,
12.5,ecc0,mid,37,0,37,f,0,2.115737899999658,None,0,1,1,1,37,0,37,0,1479.123809499999,,,,,,,,,,,,,,,1479.1193518,1479.123809499999,1480.0418037,1479.123809499999,1479.123809499999,1481.2425547999992,f,0,2.115737899999658,None,direct,14,"[20, 17, 18, 15, 17, 16, 18, 15, 16, 15, 17, 16, 17, 16, 19, 13, 14, 12]",18,direct_gaze.png,f,0,2,results17,001,2026-04-14_13h25.56.182,mogelijke versie adaptive staircase builder,,2026.1.3,59.99340072586862,2026-04-14 13h25.56.472484 +0200,
12.5,ecc0,mid,38,0,38,j,0,1.1857744000008097,None,0,1,1,1,38,0,38,0,1481.3253606999988,,,,,,,,,,,,,,,1481.3212323999996,1481.3253606999988,1482.2418593000002,1481.3253606999988,1481.3253606999988,1482.5254296000003,j,0,1.1857744000008097,None,left,15,"[20, 17, 18, 15, 17, 16, 18, 15, 16, 15, 17, 16, 17, 16, 19, 13, 14, 12]",18,gaze_L_15.png,j,0,2,results17,001,2026-04-14_13h25.56.182,mogelijke versie adaptive staircase builder,,2026.1.3,59.99340072586862,2026-04-14 13h25.56.472484 +0200,
12.5,ecc0,mid,39,0,39,f,1,1.2058302000004915,None,0,1,1,1,39,0,39,0,1482.6093174999987,,,,,,,,,,,,,,,1482.6052825999996,1482.6093174999987,1483.5257397999994,1482.6093174999987,1482.6093174999987,1483.8254547999986,f,1,1.2058302000004915,None,right,16,"[20, 17, 18, 15, 17, 16, 18, 15, 16, 15, 17, 16, 17, 16, 19, 13, 14, 12, 16]",19,gaze_R_16.png,f,1,2,results17,001,2026-04-14_13h25.56.182,mogelijke versie adaptive staircase builder,,2026.1.3,59.99340072586862,2026-04-14 13h25.56.472484 +0200,
12.5,ecc0,mid,40,0,40,j,0,2.2753630000006524,None,0,1,1,1,40,0,40,0,1483.9077254999993,,,,,,,,,,,,,,,1483.9034348999994,1483.9077254999993,1484.8255155999996,1483.9077254999993,1483.9077254999993,1486.1920243999994,j,0,2.2753630000006524,None,left,15,"[20, 17, 18, 15, 17, 16, 18, 15, 16, 15, 17, 16, 17, 16, 19, 13, 14, 12, 16, 15]",20,gaze_L_15.png,j,0,2,results17,001,2026-04-14_13h25.56.182,mogelijke versie adaptive staircase builder,,2026.1.3,59.99340072586862,2026-04-14 13h25.56.472484 +0200,
12.5,ecc0,mid,41,0,41,j,1,1.9723004000006767,None,0,1,1,1,41,0,41,0,1486.2747339999987,,,,,,,,,,,,,,,1486.2698966999997,1486.2747339999987,1487.1924581999992,1486.2747339999987,1486.2747339999987,1488.2587752,j,1,1.9723004000006767,None,direct,16,"[20, 17, 18, 15, 17, 16, 18, 15, 16, 15, 17, 16, 17, 16, 19, 13, 14, 12, 16, 15, 16]",21,direct_gaze.png,j,1,2,results17,001,2026-04-14_13h25.56.182,mogelijke versie adaptive staircase builder,,2026.1.3,59.99340072586862,2026-04-14 13h25.56.472484 +0200,
12.5,ecc0,mid,42,0,42,f,1,1.9879894999994576,None,0,1,1,1,42,0,42,0,1488.3392017999995,,,,,,,,,,,,,,,1488.3348362999986,1488.3392017999995,1489.2585831999986,1488.3392017999995,1488.3392017999995,1490.3427606999994,f,1,1.9879894999994576,None,right,15,"[20, 17, 18, 15, 17, 16, 18, 15, 16, 15, 17, 16, 17, 16, 19, 13, 14, 12, 16, 15, 16]",21,gaze_R_15.png,f,1,2,results17,001,2026-04-14_13h25.56.182,mogelijke versie adaptive staircase builder,,2026.1.3,59.99340072586862,2026-04-14 13h25.56.472484 +0200,
12.5,ecc0,mid,43,0,43,j,0,1.613235300001179,None,0,1,1,1,43,0,43,0,1490.425913699999,,,,,,,,,,,,,,,1490.4218911999997,1490.425913699999,1491.3424144,1490.425913699999,1490.425913699999,1492.0421336999989,j,0,1.613235300001179,None,right,14,"[20, 17, 18, 15, 17, 16, 18, 15, 16, 15, 17, 16, 17, 16, 19, 13, 14, 12, 16, 15, 16, 14]",22,gaze_R_14.png,j,0,2,results17,001,2026-04-14_13h25.56.182,mogelijke versie adaptive staircase builder,,2026.1.3,59.99340072586862,2026-04-14 13h25.56.472484 +0200,
12.5,ecc0,mid,44,0,44,f,0,1.6593248000008316,None,0,1,1,1,44,0,44,0,1492.1239155999992,,,,,,,,,,,,,,,1492.1196994999991,1492.1239155999992,1493.0421816999988,1492.1239155999992,1492.1239155999992,1493.7924882999996,f,0,1.6593248000008316,None,direct,15,"[20, 17, 18, 15, 17, 16, 18, 15, 16, 15, 17, 16, 17, 16, 19, 13, 14, 12, 16, 15, 16, 14]",22,direct_gaze.png,f,0,2,results17,001,2026-04-14_13h25.56.182,mogelijke versie adaptive staircase builder,,2026.1.3,59.99340072586862,2026-04-14 13h25.56.472484 +0200,
12.5,ecc0,mid,45,0,45,j,0,1.5192883999989135,None,0,1,1,1,45,0,45,0,1493.8798835999987,,,,,,,,,,,,,,,1493.8756963999986,1493.8798835999987,1494.792215899999,1493.8798835999987,1493.8798835999987,1495.409025699999,j,0,1.5192883999989135,None,right,16,"[20, 17, 18, 15, 17, 16, 18, 15, 16, 15, 17, 16, 17, 16, 19, 13, 14, 12, 16, 15, 16, 14]",22,gaze_R_16.png,j,0,2,results17,001,2026-04-14_13h25.56.182,mogelijke versie adaptive staircase builder,,2026.1.3,59.99340072586862,2026-04-14 13h25.56.472484 +0200,
12.5,ecc0,mid,46,0,46,f,1,2.421307299999171,None,0,1,1,1,46,0,46,0,1495.4978632000002,,,,,,,,,,,,,,,1495.493489999999,1495.4978632000002,1496.4089050000002,1495.4978632000002,1495.4978632000002,1497.9258694,f,1,2.421307299999171,None,left,17,"[20, 17, 18, 15, 17, 16, 18, 15, 16, 15, 17, 16, 17, 16, 19, 13, 14, 12, 16, 15, 16, 14, 17]",23,gaze_L_17.png,f,1,2,results17,001,2026-04-14_13h25.56.182,mogelijke versie adaptive staircase builder,,2026.1.3,59.99340072586862,2026-04-14 13h25.56.472484 +0200,
12.5,ecc0,mid,47,0,47,j,0,2.370733999998265,None,0,1,1,1,47,0,47,0,1498.012417,,,,,,,,,,,,,,,1498.0080714999986,1498.012417,1498.9254927999991,1498.012417,1498.012417,1500.3924740999992,j,0,2.370733999998265,None,right,16,"[20, 17, 18, 15, 17, 16, 18, 15, 16, 15, 17, 16, 17, 16, 19, 13, 14, 12, 16, 15, 16, 14, 17, 16]",24,gaze_R_16.png,j,0,2,results17,001,2026-04-14_13h25.56.182,mogelijke versie adaptive staircase builder,,2026.1.3,59.99340072586862,2026-04-14 13h25.56.472484 +0200,
12.5,ecc0,mid,48,0,48,j,0,2.2473696999986714,None,0,1,1,1,48,0,48,0,1500.4798303999996,,,,,,,,,,,,,,,1500.4757317999993,1500.4798303999996,1501.3921075999988,1500.4798303999996,1500.4798303999996,1502.7423127000002,j,0,2.2473696999986714,None,right,17,"[20, 17, 18, 15, 17, 16, 18, 15, 16, 15, 17, 16, 17, 16, 19, 13, 14, 12, 16, 15, 16, 14, 17, 16]",24,gaze_R_17.png,j,0,2,results17,001,2026-04-14_13h25.56.182,mogelijke versie adaptive staircase builder,,2026.1.3,59.99340072586862,2026-04-14 13h25.56.472484 +0200,
12.5,ecc0,mid,49,0,49,j,0,1.833176199999798,None,0,1,1,1,49,0,49,0,1502.8300289,,,,,,,,,,,,,,,1502.8258225999998,1502.8300289,1503.7421639999993,1502.8300289,1502.8300289,1504.6757638,j,0,1.833176199999798,None,left,18,"[20, 17, 18, 15, 17, 16, 18, 15, 16, 15, 17, 16, 17, 16, 19, 13, 14, 12, 16, 15, 16, 14, 17, 16]",24,gaze_L_18.png,j,0,2,results17,001,2026-04-14_13h25.56.182,mogelijke versie adaptive staircase builder,,2026.1.3,59.99340072586862,2026-04-14 13h25.56.472484 +0200,
12.5,ecc0,mid,50,0,50,f,0,1.8930752000014763,None,0,1,1,1,50,0,50,0,1504.762129499999,,,,,,,,,,,,,,,1504.7579626999996,1504.762129499999,1505.6755035999995,1504.762129499999,1504.762129499999,1506.6591178999988,f,0,1.8930752000014763,None,direct,19,"[20, 17, 18, 15, 17, 16, 18, 15, 16, 15, 17, 16, 17, 16, 19, 13, 14, 12, 16, 15, 16, 14, 17, 16]",24,direct_gaze.png,f,0,2,results17,001,2026-04-14_13h25.56.182,mogelijke versie adaptive staircase builder,,2026.1.3,59.99340072586862,2026-04-14 13h25.56.472484 +0200,
12.5,ecc0,mid,51,0,51,j,0,1.5805636000004597,None,0,1,1,1,51,0,51,0,1506.754571399999,,,,,,,,,,,,,,,1506.7504130999987,1506.754571399999,1507.6588441999993,1506.754571399999,1506.754571399999,1508.3424343999995,j,0,1.5805636000004597,None,right,20,"[20, 17, 18, 15, 17, 16, 18, 15, 16, 15, 17, 16, 17, 16, 19, 13, 14, 12, 16, 15, 16, 14, 17, 16]",24,gaze_R_20.png,j,0,2,results17,001,2026-04-14_13h25.56.182,mogelijke versie adaptive staircase builder,,2026.1.3,59.99340072586862,2026-04-14 13h25.56.472484 +0200,
12.5,ecc0,mid,52,0,52,f,1,1.7387624000002688,None,0,1,1,1,52,0,52,0,1508.428487199999,,,,,,,,,,,,,,,1508.4242679999988,1508.428487199999,1509.3421906000003,1508.428487199999,1508.428487199999,1510.1758823,f,1,1.7387624000002688,None,right,20,"[20, 17, 18, 15, 17, 16, 18, 15, 16, 15, 17, 16, 17, 16, 19, 13, 14, 12, 16, 15, 16, 14, 17, 16, 20]",25,gaze_R_20.png,f,1,2,results17,001,2026-04-14_13h25.56.182,mogelijke versie adaptive staircase builder,,2026.1.3,59.99340072586862,2026-04-14 13h25.56.472484 +0200,
12.5,ecc0,mid,53,0,53,j,0,1.5189852999992581,None,0,1,1,1,53,0,53,0,1510.2640761999992,,,,,,,,,,,,,,,1510.259744699999,1510.2640761999992,1511.175598599999,1510.2640761999992,1510.2640761999992,1511.7925947000003,j,0,1.5189852999992581,None,left,19,"[20, 17, 18, 15, 17, 16, 18, 15, 16, 15, 17, 16, 17, 16, 19, 13, 14, 12, 16, 15, 16, 14, 17, 16, 20, 19]",26,gaze_L_19.png,j,0,2,results17,001,2026-04-14_13h25.56.182,mogelijke versie adaptive staircase builder,,2026.1.3,59.99340072586862,2026-04-14 13h25.56.472484 +0200,
12.5,ecc0,mid,54,0,54,f,0,1.633407299999817,None,0,1,1,1,54,0,54,0,1511.8858007,,,,,,,,,,,,,,,1511.880896499999,1511.8858007,1512.7920213999987,1511.8858007,1511.8858007,1513.5257275999993,f,0,1.633407299999817,None,direct,20,"[20, 17, 18, 15, 17, 16, 18, 15, 16, 15, 17, 16, 17, 16, 19, 13, 14, 12, 16, 15, 16, 14, 17, 16, 20, 19]",26,direct_gaze.png,f,0,2,results17,001,2026-04-14_13h25.56.182,mogelijke versie adaptive staircase builder,,2026.1.3,59.99340072586862,2026-04-14 13h25.56.472484 +0200,
12.5,ecc0,mid,55,0,55,f,1,1.8430216999986442,None,0,1,1,1,55,0,55,0,1513.6121144999997,,,,,,,,,,,,,,,1513.607804199999,1513.6121144999997,1514.525418199999,1513.6121144999997,1513.6121144999997,1515.4589090999998,f,1,1.8430216999986442,None,left,20,"[20, 17, 18, 15, 17, 16, 18, 15, 16, 15, 17, 16, 17, 16, 19, 13, 14, 12, 16, 15, 16, 14, 17, 16, 20, 19, 20]",27,gaze_L_20.png,f,1,2,results17,001,2026-04-14_13h25.56.182,mogelijke versie adaptive staircase builder,,2026.1.3,59.99340072586862,2026-04-14 13h25.56.472484 +0200,
12.5,ecc0,mid,56,0,56,j,0,1.6576807000001281,None,0,1,1,1,56,0,56,0,1515.5414658999998,,,,,,,,,,,,,,,1515.5374914999993,1515.5414658999998,1516.4586162999985,1515.5414658999998,1515.5414658999998,1517.2087912999996,j,0,1.6576807000001281,None,left,19,"[20, 17, 18, 15, 17, 16, 18, 15, 16, 15, 17, 16, 17, 16, 19, 13, 14, 12, 16, 15, 16, 14, 17, 16, 20, 19, 20, 19]",28,gaze_L_19.png,j,0,2,results17,001,2026-04-14_13h25.56.182,mogelijke versie adaptive staircase builder,,2026.1.3,59.99340072586862,2026-04-14 13h25.56.472484 +0200,
12.5,ecc0,mid,57,0,57,j,0,1.7167435999999725,None,0,1,1,1,57,0,57,0,1517.2904794999995,,,,,,,,,,,,,,,1517.2863466,1517.2904794999995,1518.2086124999987,1517.2904794999995,1517.2904794999995,1519.0087613999985,j,0,1.7167435999999725,None,left,20,"[20, 17, 18, 15, 17, 16, 18, 15, 16, 15, 17, 16, 17, 16, 19, 13, 14, 12, 16, 15, 16, 14, 17, 16, 20, 19, 20, 19]",28,gaze_L_20.png,j,0,2,results17,001,2026-04-14_13h25.56.182,mogelijke versie adaptive staircase builder,,2026.1.3,59.99340072586862,2026-04-14 13h25.56.472484 +0200,
12.5,ecc0,mid,58,0,58,f,1,1.5001104999992094,None,0,1,1,1,58,0,58,0,1519.0911361999988,,,,,,,,,,,,,,,1519.087125099999,1519.0911361999988,1520.0087215000003,1519.0911361999988,1519.0911361999988,1520.592129999999,f,1,1.5001104999992094,None,left,20,"[20, 17, 18, 15, 17, 16, 18, 15, 16, 15, 17, 16, 17, 16, 19, 13, 14, 12, 16, 15, 16, 14, 17, 16, 20, 19, 20, 19, 20]",29,gaze_L_20.png,f,1,2,results17,001,2026-04-14_13h25.56.182,mogelijke versie adaptive staircase builder,,2026.1.3,59.99340072586862,2026-04-14 13h25.56.472484 +0200,
12.5,ecc0,mid,59,0,59,j,0,2.0925822999997763,None,0,1,1,1,59,0,59,0,1520.6745610999988,,,,,,,,,,,,,,,1520.6705864999985,1520.6745610999988,1521.5921151000002,1520.6745610999988,1520.6745610999988,1522.775438499999,j,0,2.0925822999997763,None,right,19,"[20, 17, 18, 15, 17, 16, 18, 15, 16, 15, 17, 16, 17, 16, 19, 13, 14, 12, 16, 15, 16, 14, 17, 16, 20, 19, 20, 19, 20, 19]",30,gaze_R_19.png,j,0,2,results17,001,2026-04-14_13h25.56.182,mogelijke versie adaptive staircase builder,,2026.1.3,59.99340072586862,2026-04-14 13h25.56.472484 +0200,
12.5,ecc0,mid,1,1,0,,,,,0,1,1,1,,,,,,,,,,,,,,,,,,,,,,,,,,,,,,,,,,,,,,results17,001,2026-04-14_13h25.56.182,mogelijke versie adaptive staircase builder,,2026.1.3,59.99340072586862,2026-04-14 13h25.56.472484 +0200,
20.5,ecc10neg,right,0,0,0,f,0,2.370737999999619,None,0,2,2,2,0,0,0,0,1522.8684142000002,,,,,,,,,,,,,1522.7778320999987,1522.7778626999989,1522.8643983000002,1522.8684142000002,1522.8684142000002,1523.7920194999988,1522.8684142000002,1525.2421197999993,f,0,2.370737999999619,None,direct,20,[],0,shifteddirectgaze.png,f,0,3,results17,001,2026-04-14_13h25.56.182,mogelijke versie adaptive staircase builder,,2026.1.3,59.99340072586862,2026-04-14 13h25.56.472484 +0200,
20.5,ecc10neg,right,1,0,1,j,0,2.7570334000010916,None,0,2,2,2,1,0,1,0,1525.3301247999989,,,,,,,,,,,,,,,1525.3261681999993,1525.3301247999989,1525.3301247999989,1526.2418351999986,1525.3301247999989,1528.0922156999986,j,0,2.7570334000010916,None,left,20,[],0,shiftedgaze_L_20.png,j,0,3,results17,001,2026-04-14_13h25.56.182,mogelijke versie adaptive staircase builder,,2026.1.3,59.99340072586862,2026-04-14 13h25.56.472484 +0200,
20.5,ecc10neg,right,2,0,2,j,0,1.8896216000011918,None,0,2,2,2,2,0,2,0,1528.1739007999986,,,,,,,,,,,,,,,1528.1701366999987,1528.1739007999986,1528.1739007999986,1529.0919371,1528.1739007999986,1530.0758564999996,j,0,1.8896216000011918,None,left,20,[],0,shiftedgaze_L_20.png,j,0,3,results17,001,2026-04-14_13h25.56.182,mogelijke versie adaptive staircase builder,,2026.1.3,59.99340072586862,2026-04-14 13h25.56.472484 +0200,
20.5,ecc10neg,right,3,0,3,f,1,1.576463600000352,None,0,2,2,2,3,0,3,0,1530.1906758999994,,,,,,,,,,,,,,,1530.180317299999,1530.1906758999994,1530.1906758999994,1531.0752886999999,1530.1906758999994,1531.7754569999997,f,1,1.576463600000352,None,right,20,[20],1,shiftedgaze_R_20.png,f,1,3,results17,001,2026-04-14_13h25.56.182,mogelijke versie adaptive staircase builder,,2026.1.3,59.99340072586862,2026-04-14 13h25.56.472484 +0200,
20.5,ecc10neg,right,4,0,4,j,0,2.262576299999637,None,0,2,2,2,4,0,4,0,1531.8889560999996,,,,,,,,,,,,,,,1531.8780752999992,1531.8889560999996,1531.8889560999996,1532.7752614,1531.8889560999996,1534.159381399999,j,0,2.262576299999637,None,left,19,"[20, 19]",2,shiftedgaze_L_19.png,j,0,3,results17,001,2026-04-14_13h25.56.182,mogelijke versie adaptive staircase builder,,2026.1.3,59.99340072586862,2026-04-14 13h25.56.472484 +0200,
20.5,ecc10neg,right,5,0,5,f,1,2.4696027000009053,None,0,2,2,2,5,0,5,0,1534.249906699999,,,,,,,,,,,,,,,1534.2449761999997,1534.249906699999,1534.249906699999,1535.1751590999993,1534.249906699999,1536.7260447999997,f,1,2.4696027000009053,None,left,20,"[20, 19, 20]",3,shiftedgaze_L_20.png,f,1,3,results17,001,2026-04-14_13h25.56.182,mogelijke versie adaptive staircase builder,,2026.1.3,59.99340072586862,2026-04-14 13h25.56.472484 +0200,
20.5,ecc10neg,right,6,0,6,j,0,2.4124413000008644,None,0,2,2,2,6,0,6,0,1536.8347037000003,,,,,,,,,,,,,,,1536.824288599999,1536.8347037000003,1536.8347037000003,1537.725300099999,1536.8347037000003,1539.258878499999,j,0,2.4124413000008644,None,right,19,"[20, 19, 20, 19]",4,shiftedgaze_R_19.png,j,0,3,results17,001,2026-04-14_13h25.56.182,mogelijke versie adaptive staircase builder,,2026.1.3,59.99340072586862,2026-04-14 13h25.56.472484 +0200,
20.5,ecc10neg,right,7,0,7,j,1,1.8780704000000696,None,0,2,2,2,7,0,7,0,1539.3530732999989,,,,,,,,,,,,,,,1539.3424211000001,1539.3530732999989,1539.3530732999989,1540.2585913000003,1539.3530732999989,1541.2420837999998,j,1,1.8780704000000696,None,direct,20,"[20, 19, 20, 19, 20]",5,shifteddirectgaze.png,j,1,3,results17,001,2026-04-14_13h25.56.182,mogelijke versie adaptive staircase builder,,2026.1.3,59.99340072586862,2026-04-14 13h25.56.472484 +0200,
20.5,ecc10neg,right,8,0,8,f,0,1.9948497999994288,None,0,2,2,2,8,0,8,0,1541.3326911999993,,,,,,,,,,,,,,,1541.3278119999995,1541.3326911999993,1541.3326911999993,1542.2419563000003,1541.3326911999993,1543.342498099999,f,0,1.9948497999994288,None,direct,19,"[20, 19, 20, 19, 20, 19]",6,shifteddirectgaze.png,f,0,3,results17,001,2026-04-14_13h25.56.182,mogelijke versie adaptive staircase builder,,2026.1.3,59.99340072586862,2026-04-14 13h25.56.472484 +0200,
20.5,ecc10neg,right,9,0,9,j,0,2.6969281999990926,None,0,2,2,2,9,0,9,0,1543.430318499999,,,,,,,,,,,,,,,1543.4251581999997,1543.430318499999,1543.430318499999,1544.3423564999994,1543.430318499999,1546.1419707999994,j,0,2.6969281999990926,None,left,20,"[20, 19, 20, 19, 20, 19]",6,shiftedgaze_L_20.png,j,0,3,results17,001,2026-04-14_13h25.56.182,mogelijke versie adaptive staircase builder,,2026.1.3,59.99340072586862,2026-04-14 13h25.56.472484 +0200,
20.5,ecc10neg,right,10,0,10,f,1,1.2635090000003402,None,0,2,2,2,10,0,10,0,1546.2240591999998,,,,,,,,,,,,,,,1546.2196071999988,1546.2240591999998,1546.2240591999998,1547.1422829999992,1546.2240591999998,1547.4921507999989,f,1,1.2635090000003402,None,left,20,"[20, 19, 20, 19, 20, 19, 20]",7,shiftedgaze_L_20.png,f,1,3,results17,001,2026-04-14_13h25.56.182,mogelijke versie adaptive staircase builder,,2026.1.3,59.99340072586862,2026-04-14 13h25.56.472484 +0200,
20.5,ecc10neg,right,11,0,11,f,1,1.7862823999985267,None,0,2,2,2,11,0,11,0,1547.5889595999997,,,,,,,,,,,,,,,1547.5790975,1547.5889595999997,1547.5889595999997,1548.4922692,1547.5889595999997,1549.3755449,f,1,1.7862823999985267,None,right,19,"[20, 19, 20, 19, 20, 19, 20]",7,shiftedgaze_R_19.png,f,1,3,results17,001,2026-04-14_13h25.56.182,mogelijke versie adaptive staircase builder,,2026.1.3,59.99340072586862,2026-04-14 13h25.56.472484 +0200,
20.5,ecc10neg,right,12,0,12,j,0,1.5348744000002625,None,0,2,2,2,12,0,12,0,1549.480313,,,,,,,,,,,,,,,1549.4694652999988,1549.480313,1549.480313,1550.3756150999998,1549.480313,1551.025386199999,j,0,1.5348744000002625,None,left,18,"[20, 19, 20, 19, 20, 19, 20, 18]",8,shiftedgaze_L_18.png,j,0,3,results17,001,2026-04-14_13h25.56.182,mogelijke versie adaptive staircase builder,,2026.1.3,59.99340072586862,2026-04-14 13h25.56.472484 +0200,
20.5,ecc10neg,right,13,0,13,f,1,1.7197113000001991,None,0,2,2,2,13,0,13,0,1551.1276829999988,,,,,,,,,,,,,,,1551.1168522999997,1551.1276829999988,1551.1276829999988,1552.025703199999,1551.1276829999988,1552.8593029000003,f,1,1.7197113000001991,None,right,19,"[20, 19, 20, 19, 20, 19, 20, 18, 19]",9,shiftedgaze_R_19.png,f,1,3,results17,001,2026-04-14_13h25.56.182,mogelijke versie adaptive staircase builder,,2026.1.3,59.99340072586862,2026-04-14 13h25.56.472484 +0200,
20.5,ecc10neg,right,14,0,14,j,0,1.575979000001098,None,0,2,2,2,14,0,14,0,1552.9521949999998,,,,,,,,,,,,,,,1552.9407947,1552.9521949999998,1552.9521949999998,1553.8589909000002,1552.9521949999998,1554.5425544999998,j,0,1.575979000001098,None,left,18,"[20, 19, 20, 19, 20, 19, 20, 18, 19, 18]",10,shiftedgaze_L_18.png,j,0,3,results17,001,2026-04-14_13h25.56.182,mogelijke versie adaptive staircase builder,,2026.1.3,59.99340072586862,2026-04-14 13h25.56.472484 +0200,
20.5,ecc10neg,right,15,0,15,f,0,1.6271555999992415,None,0,2,2,2,15,0,15,0,1554.6283917,,,,,,,,,,,,,,,1554.6236603999987,1554.6283917,1554.6283917,1555.5423347999986,1554.6283917,1556.2591850999997,f,0,1.6271555999992415,None,direct,19,"[20, 19, 20, 19, 20, 19, 20, 18, 19, 18]",10,shifteddirectgaze.png,f,0,3,results17,001,2026-04-14_13h25.56.182,mogelijke versie adaptive staircase builder,,2026.1.3,59.99340072586862,2026-04-14 13h25.56.472484 +0200,
20.5,ecc10neg,right,16,0,16,j,0,2.171482499999911,None,0,2,2,2,16,0,16,0,1556.347827399999,,,,,,,,,,,,,,,1556.3430281,1556.347827399999,1556.347827399999,1557.2750873999994,1556.347827399999,1558.5257946000002,j,0,2.171482499999911,None,left,20,"[20, 19, 20, 19, 20, 19, 20, 18, 19, 18]",10,shiftedgaze_L_20.png,j,0,3,results17,001,2026-04-14_13h25.56.182,mogelijke versie adaptive staircase builder,,2026.1.3,59.99340072586862,2026-04-14 13h25.56.472484 +0200,
20.5,ecc10neg,right,17,0,17,j,0,2.484796099999585,None,0,2,2,2,17,0,17,0,1558.6267673000002,,,,,,,,,,,,,,,1558.6159486999986,1558.6267673000002,1558.6267673000002,1559.5252681000002,1558.6267673000002,1561.1257583999995,j,0,2.484796099999585,None,right,20,"[20, 19, 20, 19, 20, 19, 20, 18, 19, 18]",10,shiftedgaze_R_20.png,j,0,3,results17,001,2026-04-14_13h25.56.182,mogelijke versie adaptive staircase builder,,2026.1.3,59.99340072586862,2026-04-14 13h25.56.472484 +0200,
20.5,ecc10neg,right,18,0,18,j,1,1.9871433000007528,None,0,2,2,2,18,0,18,0,1561.2203909,,,,,,,,,,,,,,,1561.2100028999994,1561.2203909,1561.2203909,1562.1256404999986,1561.2203909,1563.209280699999,j,1,1.9871433000007528,None,direct,20,"[20, 19, 20, 19, 20, 19, 20, 18, 19, 18, 20]",11,shifteddirectgaze.png,j,1,3,results17,001,2026-04-14_13h25.56.182,mogelijke versie adaptive staircase builder,,2026.1.3,59.99340072586862,2026-04-14 13h25.56.472484 +0200,
20.5,ecc10neg,right,19,0,19,f,1,1.1943537999995897,None,0,2,2,2,19,0,19,0,1563.3092001999994,,,,,,,,,,,,,,,1563.2978963999994,1563.3092001999994,1563.3092001999994,1564.2089987999989,1563.3092001999994,1564.508874199999,f,1,1.1943537999995897,None,right,19,"[20, 19, 20, 19, 20, 19, 20, 18, 19, 18, 20]",11,shiftedgaze_R_19.png,f,1,3,results17,001,2026-04-14_13h25.56.182,mogelijke versie adaptive staircase builder,,2026.1.3,59.99340072586862,2026-04-14 13h25.56.472484 +0200,
20.5,ecc10neg,right,20,0,20,f,1,1.886310299998513,None,0,2,2,2,20,0,20,0,1564.6093029999993,,,,,,,,,,,,,,,1564.604453,1564.6093029999993,1564.6093029999993,1565.5090029999992,1564.6093029999993,1566.5093265999985,f,1,1.886310299998513,None,right,18,"[20, 19, 20, 19, 20, 19, 20, 18, 19, 18, 20]",11,shiftedgaze_R_18.png,f,1,3,results17,001,2026-04-14_13h25.56.182,mogelijke versie adaptive staircase builder,,2026.1.3,59.99340072586862,2026-04-14 13h25.56.472484 +0200,
20.5,ecc10neg,right,21,0,21,j,1,1.929123099998833,None,0,2,2,2,21,0,21,0,1566.6059454999995,,,,,,,,,,,,,,,1566.5942761999995,1566.6059454999995,1566.6059454999995,1567.5089759000002,1566.6059454999995,1568.5419476999996,j,1,1.929123099998833,None,direct,17,"[20, 19, 20, 19, 20, 19, 20, 18, 19, 18, 20]",11,shifteddirectgaze.png,j,1,3,results17,001,2026-04-14_13h25.56.182,mogelijke versie adaptive staircase builder,,2026.1.3,59.99340072586862,2026-04-14 13h25.56.472484 +0200,
20.5,ecc10neg,right,22,0,22,f,1,1.5510594999996101,None,0,2,2,2,22,0,22,0,1568.648514999999,,,,,,,,,,,,,,,1568.6369954000002,1568.648514999999,1568.648514999999,1569.5417073999997,1568.648514999999,1570.2093577999985,f,1,1.5510594999996101,None,right,16,"[20, 19, 20, 19, 20, 19, 20, 18, 19, 18, 20]",11,shiftedgaze_R_16.png,f,1,3,results17,001,2026-04-14_13h25.56.182,mogelijke versie adaptive staircase builder,,2026.1.3,59.99340072586862,2026-04-14 13h25.56.472484 +0200,
20.5,ecc10neg,right,23,0,23,f,1,1.5044338000006974,None,0,2,2,2,23,0,23,0,1570.3107703999995,,,,,,,,,,,,,,,1570.2989825999994,1570.3107703999995,1570.3107703999995,1571.2251578999985,1570.3107703999995,1571.8252711999994,f,1,1.5044338000006974,None,right,15,"[20, 19, 20, 19, 20, 19, 20, 18, 19, 18, 20]",11,shiftedgaze_R_15.png,f,1,3,results17,001,2026-04-14_13h25.56.182,mogelijke versie adaptive staircase builder,,2026.1.3,59.99340072586862,2026-04-14 13h25.56.472484 +0200,
20.5,ecc10neg,right,24,0,24,j,0,1.804823899999974,None,0,2,2,2,24,0,24,0,1571.9223767999993,,,,,,,,,,,,,,,1571.9179201999996,1571.9223767999993,1571.9223767999993,1572.8254242000003,1571.9223767999993,1573.7422979999992,j,0,1.804823899999974,None,left,14,"[20, 19, 20, 19, 20, 19, 20, 18, 19, 18, 20, 14]",12,shiftedgaze_L_14.png,j,0,3,results17,001,2026-04-14_13h25.56.182,mogelijke versie adaptive staircase builder,,2026.1.3,59.99340072586862,2026-04-14 13h25.56.472484 +0200,
20.5,ecc10neg,right,25,0,25,f,1,2.154094499999701,None,0,2,2,2,25,0,25,0,1573.8373913999985,,,,,,,,,,,,,,,1573.8329039,1573.8373913999985,1573.8373913999985,1574.7423676999988,1573.8373913999985,1575.9922076000003,f,1,2.154094499999701,None,left,15,"[20, 19, 20, 19, 20, 19, 20, 18, 19, 18, 20, 14, 15]",13,shiftedgaze_L_15.png,f,1,3,results17,001,2026-04-14_13h25.56.182,mogelijke versie adaptive staircase builder,,2026.1.3,59.99340072586862,2026-04-14 13h25.56.472484 +0200,
20.5,ecc10neg,right,26,0,26,j,0,1.7440857000001415,None,0,2,2,2,26,0,26,0,1576.079065,,,,,,,,,,,,,,,1576.074036599999,1576.079065,1576.079065,1576.9923512999994,1576.079065,1577.8256323999994,j,0,1.7440857000001415,None,left,14,"[20, 19, 20, 19, 20, 19, 20, 18, 19, 18, 20, 14, 15, 14]",14,shiftedgaze_L_14.png,j,0,3,results17,001,2026-04-14_13h25.56.182,mogelijke versie adaptive staircase builder,,2026.1.3,59.99340072586862,2026-04-14 13h25.56.472484 +0200,
20.5,ecc10neg,right,27,0,27,j,0,1.6283851000007417,None,0,2,2,2,27,0,27,0,1577.9067684000001,,,,,,,,,,,,,,,1577.9027329,1577.9067684000001,1577.9067684000001,1578.8253703999999,1577.9067684000001,1579.5419900999987,j,0,1.6283851000007417,None,left,15,"[20, 19, 20, 19, 20, 19, 20, 18, 19, 18, 20, 14, 15, 14]",14,shiftedgaze_L_15.png,j,0,3,results17,001,2026-04-14_13h25.56.182,mogelijke versie adaptive staircase builder,,2026.1.3,59.99340072586862,2026-04-14 13h25.56.472484 +0200,
20.5,ecc10neg,right,28,0,28,f,0,2.134530799999993,None,0,2,2,2,28,0,28,0,1579.6247395999999,,,,,,,,,,,,,,,1579.6207137000001,1579.6247395999999,1579.6247395999999,1580.5418008999986,1579.6247395999999,1581.7595674999993,f,0,2.134530799999993,None,direct,16,"[20, 19, 20, 19, 20, 19, 20, 18, 19, 18, 20, 14, 15, 14]",14,shifteddirectgaze.png,f,0,3,results17,001,2026-04-14_13h25.56.182,mogelijke versie adaptive staircase builder,,2026.1.3,59.99340072586862,2026-04-14 13h25.56.472484 +0200,
20.5,ecc10neg,right,29,0,29,f,1,1.8367847999998048,None,0,2,2,2,29,0,29,0,1581.8507978999987,,,,,,,,,,,,,,,1581.846596899999,1581.8507978999987,1581.8507978999987,1582.7751718,1581.8507978999987,1583.6925839999985,f,1,1.8367847999998048,None,left,17,"[20, 19, 20, 19, 20, 19, 20, 18, 19, 18, 20, 14, 15, 14, 17]",15,shiftedgaze_L_17.png,f,1,3,results17,001,2026-04-14_13h25.56.182,mogelijke versie adaptive staircase builder,,2026.1.3,59.99340072586862,2026-04-14 13h25.56.472484 +0200,
20.5,ecc10neg,right,30,0,30,j,1,1.625164200000654,None,0,2,2,2,30,0,30,0,1583.7740611999998,,,,,,,,,,,,,,,1583.7700833,1583.7740611999998,1583.7740611999998,1584.6917871999995,1583.7740611999998,1585.4086872999997,j,1,1.625164200000654,None,direct,16,"[20, 19, 20, 19, 20, 19, 20, 18, 19, 18, 20, 14, 15, 14, 17]",15,shifteddirectgaze.png,j,1,3,results17,001,2026-04-14_13h25.56.182,mogelijke versie adaptive staircase builder,,2026.1.3,59.99340072586862,2026-04-14 13h25.56.472484 +0200,
20.5,ecc10neg,right,31,0,31,j,0,1.6751008999999613,None,0,2,2,2,31,0,31,0,1585.4924498,,,,,,,,,,,,,,,1585.4884292999996,1585.4924498,1585.4924498,1586.408990599999,1585.4924498,1587.1759189999993,j,0,1.6751008999999613,None,right,15,"[20, 19, 20, 19, 20, 19, 20, 18, 19, 18, 20, 14, 15, 14, 17, 15]",16,shiftedgaze_R_15.png,j,0,3,results17,001,2026-04-14_13h25.56.182,mogelijke versie adaptive staircase builder,,2026.1.3,59.99340072586862,2026-04-14 13h25.56.472484 +0200,
20.5,ecc10neg,right,32,0,32,f,0,1.2761072999983298,None,0,2,2,2,32,0,32,0,1587.2594577,,,,,,,,,,,,,,,1587.2554295999998,1587.2594577,1587.2594577,1588.1755424000003,1587.2594577,1588.5424845999987,f,0,1.2761072999983298,None,direct,16,"[20, 19, 20, 19, 20, 19, 20, 18, 19, 18, 20, 14, 15, 14, 17, 15]",16,shifteddirectgaze.png,f,0,3,results17,001,2026-04-14_13h25.56.182,mogelijke versie adaptive staircase builder,,2026.1.3,59.99340072586862,2026-04-14 13h25.56.472484 +0200,
20.5,ecc10neg,right,33,0,33,j,1,1.2070917000000918,None,0,2,2,2,33,0,33,0,1588.6241234999998,,,,,,,,,,,,,,,1588.6199983999995,1588.6241234999998,1588.6241234999998,1589.5423285999987,1588.6241234999998,1589.8426179999988,j,1,1.2070917000000918,None,direct,17,"[20, 19, 20, 19, 20, 19, 20, 18, 19, 18, 20, 14, 15, 14, 17, 15, 17]",17,shifteddirectgaze.png,j,1,3,results17,001,2026-04-14_13h25.56.182,mogelijke versie adaptive staircase builder,,2026.1.3,59.99340072586862,2026-04-14 13h25.56.472484 +0200,
20.5,ecc10neg,right,34,0,34,f,0,1.7603471000002173,None,0,2,2,2,34,0,34,0,1589.9268333,,,,,,,,,,,,,,,1589.9227895999993,1589.9268333,1589.9268333,1590.8418998999987,1589.9268333,1591.6919841,f,0,1.7603471000002173,None,direct,16,"[20, 19, 20, 19, 20, 19, 20, 18, 19, 18, 20, 14, 15, 14, 17, 15, 17, 16]",18,shifteddirectgaze.png,f,0,3,results17,001,2026-04-14_13h25.56.182,mogelijke versie adaptive staircase builder,,2026.1.3,59.99340072586862,2026-04-14 13h25.56.472484 +0200,
20.5,ecc10neg,right,35,0,35,f,1,1.6417360000014014,None,0,2,2,2,35,0,35,0,1591.7978117000002,,,,,,,,,,,,,,,1591.7871040999999,1591.7978117000002,1591.7978117000002,1592.6923248000003,1591.7978117000002,1593.4425862999997,f,1,1.6417360000014014,None,right,17,"[20, 19, 20, 19, 20, 19, 20, 18, 19, 18, 20, 14, 15, 14, 17, 15, 17, 16, 17]",19,shiftedgaze_R_17.png,f,1,3,results17,001,2026-04-14_13h25.56.182,mogelijke versie adaptive staircase builder,,2026.1.3,59.99340072586862,2026-04-14 13h25.56.472484 +0200,
20.5,ecc10neg,right,36,0,36,j,0,1.4949016999999003,None,0,2,2,2,36,0,36,0,1593.5443304,,,,,,,,,,,,,,,1593.5337522999998,1593.5443304,1593.5443304,1594.4422913999988,1593.5443304,1595.042011399999,j,0,1.4949016999999003,None,left,16,"[20, 19, 20, 19, 20, 19, 20, 18, 19, 18, 20, 14, 15, 14, 17, 15, 17, 16, 17, 16]",20,shiftedgaze_L_16.png,j,0,3,results17,001,2026-04-14_13h25.56.182,mogelijke versie adaptive staircase builder,,2026.1.3,59.99340072586862,2026-04-14 13h25.56.472484 +0200,
20.5,ecc10neg,right,37,0,37,f,1,1.8647569000004296,None,0,2,2,2,37,0,37,0,1595.1427833999987,,,,,,,,,,,,,,,1595.131656399999,1595.1427833999987,1595.1427833999987,1596.0423143999997,1595.1427833999987,1597.0093000999987,f,1,1.8647569000004296,None,right,17,"[20, 19, 20, 19, 20, 19, 20, 18, 19, 18, 20, 14, 15, 14, 17, 15, 17, 16, 17, 16, 17]",21,shiftedgaze_R_17.png,f,1,3,results17,001,2026-04-14_13h25.56.182,mogelijke versie adaptive staircase builder,,2026.1.3,59.99340072586862,2026-04-14 13h25.56.472484 +0200,
20.5,ecc10neg,right,38,0,38,f,0,1.6749765000004118,None,0,2,2,2,38,0,38,0,1597.1002571999998,,,,,,,,,,,,,,,1597.089159199999,1597.1002571999998,1597.1002571999998,1598.0086960999997,1597.1002571999998,1598.7755013999995,f,0,1.6749765000004118,None,direct,16,"[20, 19, 20, 19, 20, 19, 20, 18, 19, 18, 20, 14, 15, 14, 17, 15, 17, 16, 17, 16, 17, 16]",22,shifteddirectgaze.png,f,0,3,results17,001,2026-04-14_13h25.56.182,mogelijke versie adaptive staircase builder,,2026.1.3,59.99340072586862,2026-04-14 13h25.56.472484 +0200,
20.5,ecc10neg,right,39,0,39,j,0,1.660654399998748,None,0,2,2,2,39,0,39,0,1598.8589460999992,,,,,,,,,,,,,,,1598.8543039999986,1598.8589460999992,1598.8589460999992,1599.7756673999993,1598.8589460999992,1600.5259475000003,j,0,1.660654399998748,None,left,17,"[20, 19, 20, 19, 20, 19, 20, 18, 19, 18, 20, 14, 15, 14, 17, 15, 17, 16, 17, 16, 17, 16]",22,shiftedgaze_L_17.png,j,0,3,results17,001,2026-04-14_13h25.56.182,mogelijke versie adaptive staircase builder,,2026.1.3,59.99340072586862,2026-04-14 13h25.56.472484 +0200,
20.5,ecc10neg,right,40,0,40,f,0,1.296761499999775,None,0,2,2,2,40,0,40,0,1600.6148087000001,,,,,,,,,,,,,,,1600.6100741999999,1600.6148087000001,1600.6148087000001,1601.5252536999997,1600.6148087000001,1601.9256855000003,f,0,1.296761499999775,None,direct,18,"[20, 19, 20, 19, 20, 19, 20, 18, 19, 18, 20, 14, 15, 14, 17, 15, 17, 16, 17, 16, 17, 16]",22,shifteddirectgaze.png,f,0,3,results17,001,2026-04-14_13h25.56.182,mogelijke versie adaptive staircase builder,,2026.1.3,59.99340072586862,2026-04-14 13h25.56.472484 +0200,
20.5,ecc10neg,right,41,0,41,f,1,2.2690973000007943,None,0,2,2,2,41,0,41,0,1602.0260128999998,,,,,,,,,,,,,,,1602.0149189999993,1602.0260128999998,1602.0260128999998,1602.9254415999985,1602.0260128999998,1604.3087849999993,f,1,2.2690973000007943,None,right,19,"[20, 19, 20, 19, 20, 19, 20, 18, 19, 18, 20, 14, 15, 14, 17, 15, 17, 16, 17, 16, 17, 16, 19]",23,shiftedgaze_R_19.png,f,1,3,results17,001,2026-04-14_13h25.56.182,mogelijke versie adaptive staircase builder,,2026.1.3,59.99340072586862,2026-04-14 13h25.56.472484 +0200,
20.5,ecc10neg,right,42,0,42,f,1,2.500171000001501,None,0,2,2,2,42,0,42,0,1604.4029742999992,,,,,,,,,,,,,,,1604.397846599999,1604.4029742999992,1604.4029742999992,1605.3085868999988,1604.4029742999992,1606.908765099999,f,1,2.500171000001501,None,right,18,"[20, 19, 20, 19, 20, 19, 20, 18, 19, 18, 20, 14, 15, 14, 17, 15, 17, 16, 17, 16, 17, 16, 19]",23,shiftedgaze_R_18.png,f,1,3,results17,001,2026-04-14_13h25.56.182,mogelijke versie adaptive staircase builder,,2026.1.3,59.99340072586862,2026-04-14 13h25.56.472484 +0200,
20.5,ecc10neg,right,43,0,43,j,0,1.1772417000011046,None,0,2,2,2,43,0,43,0,1607.0059038999989,,,,,,,,,,,,,,,1606.9946220000002,1607.0059038999989,1607.0059038999989,1607.9086150999992,1607.0059038999989,1608.1920969000003,j,0,1.1772417000011046,None,left,17,"[20, 19, 20, 19, 20, 19, 20, 18, 19, 18, 20, 14, 15, 14, 17, 15, 17, 16, 17, 16, 17, 16, 19, 17]",24,shiftedgaze_L_17.png,j,0,3,results17,001,2026-04-14_13h25.56.182,mogelijke versie adaptive staircase builder,,2026.1.3,59.99340072586862,2026-04-14 13h25.56.472484 +0200,
20.5,ecc10neg,right,44,0,44,j,0,1.6140861000003497,None,0,2,2,2,44,0,44,0,1608.2809973000003,,,,,,,,,,,,,,,1608.275895499999,1608.2809973000003,1608.2809973000003,1609.1919343999998,1608.2809973000003,1609.9088945000003,j,0,1.6140861000003497,None,left,18,"[20, 19, 20, 19, 20, 19, 20, 18, 19, 18, 20, 14, 15, 14, 17, 15, 17, 16, 17, 16, 17, 16, 19, 17]",24,shiftedgaze_L_18.png,j,0,3,results17,001,2026-04-14_13h25.56.182,mogelijke versie adaptive staircase builder,,2026.1.3,59.99340072586862,2026-04-14 13h25.56.472484 +0200,
20.5,ecc10neg,right,45,0,45,f,0,1.5954811999999947,None,0,2,2,2,45,0,45,0,1609.9957290000002,,,,,,,,,,,,,,,1609.9907705999995,1609.9957290000002,1609.9957290000002,1610.9085252999994,1609.9957290000002,1611.5922104,f,0,1.5954811999999947,None,direct,19,"[20, 19, 20, 19, 20, 19, 20, 18, 19, 18, 20, 14, 15, 14, 17, 15, 17, 16, 17, 16, 17, 16, 19, 17]",24,shifteddirectgaze.png,f,0,3,results17,001,2026-04-14_13h25.56.182,mogelijke versie adaptive staircase builder,,2026.1.3,59.99340072586862,2026-04-14 13h25.56.472484 +0200,
20.5,ecc10neg,right,46,0,46,f,1,1.2780231000015192,None,0,2,2,2,46,0,46,0,1611.6812938999992,,,,,,,,,,,,,,,1611.6762478,1611.6812938999992,1611.6812938999992,1612.5924571999985,1611.6812938999992,1612.9596917,f,1,1.2780231000015192,None,left,20,"[20, 19, 20, 19, 20, 19, 20, 18, 19, 18, 20, 14, 15, 14, 17, 15, 17, 16, 17, 16, 17, 16, 19, 17, 20]",25,shiftedgaze_L_20.png,f,1,3,results17,001,2026-04-14_13h25.56.182,mogelijke versie adaptive staircase builder,,2026.1.3,59.99340072586862,2026-04-14 13h25.56.472484 +0200,
20.5,ecc10neg,right,47,0,47,j,1,1.3349452000002202,None,0,2,2,2,47,0,47,0,1613.0486017999992,,,,,,,,,,,,,,,1613.0427765999993,1613.0486017999992,1613.0486017999992,1613.9757384999994,1613.0486017999992,1614.3927203999992,j,1,1.3349452000002202,None,direct,19,"[20, 19, 20, 19, 20, 19, 20, 18, 19, 18, 20, 14, 15, 14, 17, 15, 17, 16, 17, 16, 17, 16, 19, 17, 20]",25,shifteddirectgaze.png,j,1,3,results17,001,2026-04-14_13h25.56.182,mogelijke versie adaptive staircase builder,,2026.1.3,59.99340072586862,2026-04-14 13h25.56.472484 +0200,
20.5,ecc10neg,right,48,0,48,f,0,1.4461078999993333,None,0,2,2,2,48,0,48,0,1614.4730408999985,,,,,,,,,,,,,,,1614.4690078999993,1614.4730408999985,1614.4730408999985,1615.3920106999994,1614.4730408999985,1615.925434499999,f,0,1.4461078999993333,None,direct,18,"[20, 19, 20, 19, 20, 19, 20, 18, 19, 18, 20, 14, 15, 14, 17, 15, 17, 16, 17, 16, 17, 16, 19, 17, 20, 18]",26,shifteddirectgaze.png,f,0,3,results17,001,2026-04-14_13h25.56.182,mogelijke versie adaptive staircase builder,,2026.1.3,59.99340072586862,2026-04-14 13h25.56.472484 +0200,
20.5,ecc10neg,right,49,0,49,j,0,1.1919623000012507,None,0,2,2,2,49,0,49,0,1616.0231748999995,,,,,,,,,,,,,,,1616.0133583999996,1616.0231748999995,1616.0231748999995,1616.9254057999988,1616.0231748999995,1617.2255024999995,j,0,1.1919623000012507,None,right,19,"[20, 19, 20, 19, 20, 19, 20, 18, 19, 18, 20, 14, 15, 14, 17, 15, 17, 16, 17, 16, 17, 16, 19, 17, 20, 18]",26,shiftedgaze_R_19.png,j,0,3,results17,001,2026-04-14_13h25.56.182,mogelijke versie adaptive staircase builder,,2026.1.3,59.99340072586862,2026-04-14 13h25.56.472484 +0200,
20.5,ecc10neg,right,50,0,50,j,1,1.5437614000002213,None,0,2,2,2,50,0,50,0,1617.319282999999,,,,,,,,,,,,,,,1617.3085178000001,1617.319282999999,1617.319282999999,1618.2252577999989,1617.319282999999,1618.8753908999988,j,1,1.5437614000002213,None,direct,20,"[20, 19, 20, 19, 20, 19, 20, 18, 19, 18, 20, 14, 15, 14, 17, 15, 17, 16, 17, 16, 17, 16, 19, 17, 20, 18, 20]",27,shifteddirectgaze.png,j,1,3,results17,001,2026-04-14_13h25.56.182,mogelijke versie adaptive staircase builder,,2026.1.3,59.99340072586862,2026-04-14 13h25.56.472484 +0200,
20.5,ecc10neg,right,51,0,51,j,1,1.4032688999996026,None,0,2,2,2,51,0,51,0,1618.9638765,,,,,,,,,,,,,,,1618.9589117999985,1618.9638765,1618.9638765,1619.8755409999994,1618.9638765,1620.3754720999987,j,1,1.4032688999996026,None,direct,19,"[20, 19, 20, 19, 20, 19, 20, 18, 19, 18, 20, 14, 15, 14, 17, 15, 17, 16, 17, 16, 17, 16, 19, 17, 20, 18, 20]",27,shifteddirectgaze.png,j,1,3,results17,001,2026-04-14_13h25.56.182,mogelijke versie adaptive staircase builder,,2026.1.3,59.99340072586862,2026-04-14 13h25.56.472484 +0200,
20.5,ecc10neg,right,52,0,52,j,0,1.7877552000009018,None,0,2,2,2,52,0,52,0,1620.4597510999993,,,,,,,,,,,,,,,1620.455020899999,1620.4597510999993,1620.4597510999993,1621.3752613999986,1620.4597510999993,1622.2591792999992,j,0,1.7877552000009018,None,left,18,"[20, 19, 20, 19, 20, 19, 20, 18, 19, 18, 20, 14, 15, 14, 17, 15, 17, 16, 17, 16, 17, 16, 19, 17, 20, 18, 20, 18]",28,shiftedgaze_L_18.png,j,0,3,results17,001,2026-04-14_13h25.56.182,mogelijke versie adaptive staircase builder,,2026.1.3,59.99340072586862,2026-04-14 13h25.56.472484 +0200,
20.5,ecc10neg,right,53,0,53,j,0,1.7728224000002228,None,0,2,2,2,53,0,53,0,1622.3463222999999,,,,,,,,,,,,,,,1622.3412737999988,1622.3463222999999,1622.3463222999999,1623.2591252999991,1622.3463222999999,1624.1254831999995,j,0,1.7728224000002228,None,left,19,"[20, 19, 20, 19, 20, 19, 20, 18, 19, 18, 20, 14, 15, 14, 17, 15, 17, 16, 17, 16, 17, 16, 19, 17, 20, 18, 20, 18]",28,shiftedgaze_L_19.png,j,0,3,results17,001,2026-04-14_13h25.56.182,mogelijke versie adaptive staircase builder,,2026.1.3,59.99340072586862,2026-04-14 13h25.56.472484 +0200,
20.5,ecc10neg,right,54,0,54,f,1,1.338857000000644,None,0,2,2,2,54,0,54,0,1624.212295199999,,,,,,,,,,,,,,,1624.207474499999,1624.212295199999,1624.212295199999,1625.1252655999997,1624.212295199999,1625.5587555999991,f,1,1.338857000000644,None,left,20,"[20, 19, 20, 19, 20, 19, 20, 18, 19, 18, 20, 14, 15, 14, 17, 15, 17, 16, 17, 16, 17, 16, 19, 17, 20, 18, 20, 18, 20]",29,shiftedgaze_L_20.png,f,1,3,results17,001,2026-04-14_13h25.56.182,mogelijke versie adaptive staircase builder,,2026.1.3,59.99340072586862,2026-04-14 13h25.56.472484 +0200,
20.5,ecc10neg,right,55,0,55,j,0,1.8424171999995451,None,0,2,2,2,55,0,55,0,1625.6607203999993,,,,,,,,,,,,,,,1625.6493530999996,1625.6607203999993,1625.6607203999993,1626.5589373999992,1625.6607203999993,1627.508792499999,j,0,1.8424171999995451,None,right,19,"[20, 19, 20, 19, 20, 19, 20, 18, 19, 18, 20, 14, 15, 14, 17, 15, 17, 16, 17, 16, 17, 16, 19, 17, 20, 18, 20, 18, 20, 19]",30,shiftedgaze_R_19.png,j,0,3,results17,001,2026-04-14_13h25.56.182,mogelijke versie adaptive staircase builder,,2026.1.3,59.99340072586862,2026-04-14 13h25.56.472484 +0200,
20.5,ecc10neg,right,56,0,56,j,0,1.8439641000004485,None,0,2,2,2,56,0,56,0,1627.6032122999986,,,,,,,,,,,,,,,1627.5922489999994,1627.6032122999986,1627.6032122999986,1628.5086796999985,1627.6032122999986,1629.4586994000001,j,0,1.8439641000004485,None,left,20,"[20, 19, 20, 19, 20, 19, 20, 18, 19, 18, 20, 14, 15, 14, 17, 15, 17, 16, 17, 16, 17, 16, 19, 17, 20, 18, 20, 18, 20, 19]",30,shiftedgaze_L_20.png,j,0,3,results17,001,2026-04-14_13h25.56.182,mogelijke versie adaptive staircase builder,,2026.1.3,59.99340072586862,2026-04-14 13h25.56.472484 +0200,
20.5,ecc10neg,right,57,0,57,j,0,1.6807733999994525,None,0,2,2,2,57,0,57,0,1629.5422956000002,,,,,,,,,,,,,,,1629.5378339999988,1629.5422956000002,1629.5422956000002,1630.4585852,1629.5422956000002,1631.2254458999996,j,0,1.6807733999994525,None,left,20,"[20, 19, 20, 19, 20, 19, 20, 18, 19, 18, 20, 14, 15, 14, 17, 15, 17, 16, 17, 16, 17, 16, 19, 17, 20, 18, 20, 18, 20, 19]",30,shiftedgaze_L_20.png,j,0,3,results17,001,2026-04-14_13h25.56.182,mogelijke versie adaptive staircase builder,,2026.1.3,59.99340072586862,2026-04-14 13h25.56.472484 +0200,
20.5,ecc10neg,right,58,0,58,f,1,1.380430699999124,None,0,2,2,2,58,0,58,0,1631.3146063999993,,,,,,,,,,,,,,,1631.3099793000001,1631.3146063999993,1631.3146063999993,1632.2254443000002,1631.3146063999993,1632.7087469999988,f,1,1.380430699999124,None,left,20,"[20, 19, 20, 19, 20, 19, 20, 18, 19, 18, 20, 14, 15, 14, 17, 15, 17, 16, 17, 16, 17, 16, 19, 17, 20, 18, 20, 18, 20, 19, 20]",31,shiftedgaze_L_20.png,f,1,3,results17,001,2026-04-14_13h25.56.182,mogelijke versie adaptive staircase builder,,2026.1.3,59.99340072586862,2026-04-14 13h25.56.472484 +0200,
20.5,ecc10neg,right,59,0,59,f,1,2.211492799999178,None,0,2,2,2,59,0,59,0,1632.811687899999,,,,,,,,,,,,,,,1632.8008327999996,1632.811687899999,1632.811687899999,1633.7086237999993,1632.811687899999,1635.0260454999989,f,1,2.211492799999178,None,right,19,"[20, 19, 20, 19, 20, 19, 20, 18, 19, 18, 20, 14, 15, 14, 17, 15, 17, 16, 17, 16, 17, 16, 19, 17, 20, 18, 20, 18, 20, 19, 20]",31,shiftedgaze_R_19.png,f,1,3,results17,001,2026-04-14_13h25.56.182,mogelijke versie adaptive staircase builder,,2026.1.3,59.99340072586862,2026-04-14 13h25.56.472484 +0200,
20.5,ecc10neg,right,2,2,0,,,,,0,2,2,2,,,,,,,,,,,,,,,,,,,,,,,,,,,,,,,,,,,,,,results17,001,2026-04-14_13h25.56.182,mogelijke versie adaptive staircase builder,,2026.1.3,59.99340072586862,2026-04-14 13h25.56.472484 +0200,
