xPos,stimulusSet,whichImage,thisN,thisTrialN,thisRepN,key_resp.keys,key_resp.corr,key_resp.rt,key_resp.duration,blocks.thisRepN,blocks.thisTrialN,blocks.thisN,blocks.thisIndex,trials.thisRepN,trials.thisTrialN,trials.thisN,trials.thisIndex,thisRow.t,notes,piloting,intro.started,introinstructions.started,intro_key.started,demo_image_left.started,demo_image_middle.started,demo_image_right.started,intro.stopped,intro_key.keys,intro_key.rt,intro_key.duration,block_start.started,block_start.stopped,trial.started,key_resp.started,middle_image.started,right_image.started,left_image.started,trial.stopped,trials.key_resp.keys,trials.key_resp.corr,trials.key_resp.rt,trials.key_resp.duration,direction,angle,reversal_intensities,number_reversals,stimulus,response,correct,blockNumber,participant,session,date,expName,expVersion,psychopyVersion,frameRate,expStart,
,,,,,,,,,,,,,,,,,,,,False,0.0033418000020901673,0.006150500001240289,0.006150500001240289,0.006150500001240289,0.006150500001240289,0.006150500001240289,205.37193939999997,space,205.2201617000028,0.14407789999677334,,,,,,,,,,,,,,,,,,,,,results20,001,2026-04-14_14h42.49.253,mogelijke versie adaptive staircase builder,,2026.1.3,60.04112817317942,2026-04-14 14h42.49.509227 +0200,
4.5,ecc10pos,left,0,0,0,j,0,4.284646899999643,None,0,0,0,0,0,0,0,0,205.66961490000176,,,,,,,,,,,,,205.5674308000016,205.56748510000034,205.66671100000167,205.66961490000176,205.66961490000176,205.66961490000176,206.57168300000194,209.95457140000144,j,0,4.284646899999643,None,left,20,[],0,shiftedgaze_L_20.png,j,0,1,results20,001,2026-04-14_14h42.49.253,mogelijke versie adaptive staircase builder,,2026.1.3,60.04112817317942,2026-04-14 14h42.49.509227 +0200,
4.5,ecc10pos,left,1,0,1,j,0,4.046202099998482,None,0,0,0,0,1,0,1,0,210.04424270000163,,,,,,,,,,,,,,,210.04025739999997,210.04424270000163,210.04424270000163,210.04424270000163,210.95459950000077,214.10524179999993,j,0,4.046202099998482,None,left,20,[],0,shiftedgaze_L_20.png,j,0,1,results20,001,2026-04-14_14h42.49.253,mogelijke versie adaptive staircase builder,,2026.1.3,60.04112817317942,2026-04-14 14h42.49.509227 +0200,
4.5,ecc10pos,left,2,0,2,f,1,4.258301199999551,None,0,0,0,0,2,0,2,0,214.2479346,,,,,,,,,,,,,,,214.2451417000011,214.2479346,214.2479346,214.2479346,215.10499270000219,218.5215356000008,f,1,4.258301199999551,None,right,20,[20],1,shiftedgaze_R_20.png,f,1,1,results20,001,2026-04-14_14h42.49.253,mogelijke versie adaptive staircase builder,,2026.1.3,60.04112817317942,2026-04-14 14h42.49.509227 +0200,
4.5,ecc10pos,left,3,0,3,f,0,2.843972599999688,None,0,0,0,0,3,0,3,0,218.60635000000184,,,,,,,,,,,,,,,218.60236040000018,218.60635000000184,218.60635000000184,218.60635000000184,219.52147790000163,221.4551023999993,f,0,2.843972599999688,None,direct,19,"[20, 19]",2,shifteddirectgaze.png,f,0,1,results20,001,2026-04-14_14h42.49.253,mogelijke versie adaptive staircase builder,,2026.1.3,60.04112817317942,2026-04-14 14h42.49.509227 +0200,
4.5,ecc10pos,left,4,0,4,j,0,3.481237100000726,None,0,0,0,0,4,0,4,0,221.55317769999965,,,,,,,,,,,,,,,221.54312690000006,221.55317769999965,221.55317769999965,221.55317769999965,222.454520700001,225.03842359999908,j,0,3.481237100000726,None,left,20,"[20, 19]",2,shiftedgaze_L_20.png,j,0,1,results20,001,2026-04-14_14h42.49.253,mogelijke versie adaptive staircase builder,,2026.1.3,60.04112817317942,2026-04-14 14h42.49.509227 +0200,
4.5,ecc10pos,left,5,0,5,f,1,5.283029400001396,None,0,0,0,0,5,0,5,0,225.12714760000017,,,,,,,,,,,,,,,225.1230710000018,225.12714760000017,225.12714760000017,225.12714760000017,226.03840560000026,230.4214460000003,f,1,5.283029400001396,None,left,20,"[20, 19, 20]",3,shiftedgaze_L_20.png,f,1,1,results20,001,2026-04-14_14h42.49.253,mogelijke versie adaptive staircase builder,,2026.1.3,60.04112817317942,2026-04-14 14h42.49.509227 +0200,
4.5,ecc10pos,left,6,0,6,j,0,5.2757574999995995,None,0,0,0,0,6,0,6,0,230.51844320000237,,,,,,,,,,,,,,,230.51424889999907,230.51844320000237,230.51844320000237,230.51844320000237,231.421268099999,235.80482300000222,j,0,5.2757574999995995,None,left,19,"[20, 19, 20, 19]",4,shiftedgaze_L_19.png,j,0,1,results20,001,2026-04-14_14h42.49.253,mogelijke versie adaptive staircase builder,,2026.1.3,60.04112817317942,2026-04-14 14h42.49.509227 +0200,
4.5,ecc10pos,left,7,0,7,f,1,3.2855846999991627,None,0,0,0,0,7,0,7,0,235.90118150000126,,,,,,,,,,,,,,,235.89137390000178,235.90118150000126,235.90118150000126,235.90118150000126,236.8046347999989,239.1887033999992,f,1,3.2855846999991627,None,right,20,"[20, 19, 20, 19, 20]",5,shiftedgaze_R_20.png,f,1,1,results20,001,2026-04-14_14h42.49.253,mogelijke versie adaptive staircase builder,,2026.1.3,60.04112817317942,2026-04-14 14h42.49.509227 +0200,
4.5,ecc10pos,left,8,0,8,j,0,3.416754599998967,None,0,0,0,0,8,0,8,0,239.28958350000175,,,,,,,,,,,,,,,239.27974929999982,239.28958350000175,239.28958350000175,239.28958350000175,240.18798640000023,242.72194669999953,j,0,3.416754599998967,None,left,19,"[20, 19, 20, 19, 20, 19]",6,shiftedgaze_L_19.png,j,0,1,results20,001,2026-04-14_14h42.49.253,mogelijke versie adaptive staircase builder,,2026.1.3,60.04112817317942,2026-04-14 14h42.49.509227 +0200,
4.5,ecc10pos,left,9,0,9,f,1,5.063407499997993,None,0,0,0,0,9,0,9,0,242.8108342000014,,,,,,,,,,,,,,,242.80672880000202,242.8108342000014,242.8108342000014,242.8108342000014,243.72157460000017,247.88820779999878,f,1,5.063407499997993,None,left,20,"[20, 19, 20, 19, 20, 19, 20]",7,shiftedgaze_L_20.png,f,1,1,results20,001,2026-04-14_14h42.49.253,mogelijke versie adaptive staircase builder,,2026.1.3,60.04112817317942,2026-04-14 14h42.49.509227 +0200,
4.5,ecc10pos,left,10,0,10,j,1,3.530524999998306,None,0,0,0,0,10,0,10,0,247.98365660000127,,,,,,,,,,,,,,,247.97378369999933,247.98365660000127,247.98365660000127,247.98365660000127,248.88788000000204,251.52145060000112,j,1,3.530524999998306,None,direct,19,"[20, 19, 20, 19, 20, 19, 20]",7,shifteddirectgaze.png,j,1,1,results20,001,2026-04-14_14h42.49.253,mogelijke versie adaptive staircase builder,,2026.1.3,60.04112817317942,2026-04-14 14h42.49.509227 +0200,
4.5,ecc10pos,left,11,0,11,f,1,15.21116720000282,None,0,0,0,0,11,0,11,0,251.63902130000133,,,,,,,,,,,,,,,251.6295949000014,251.63902130000133,251.63902130000133,251.63902130000133,252.5212954999988,266.8548327999997,f,1,15.21116720000282,None,left,18,"[20, 19, 20, 19, 20, 19, 20]",7,shiftedgaze_L_18.png,f,1,1,results20,001,2026-04-14_14h42.49.253,mogelijke versie adaptive staircase builder,,2026.1.3,60.04112817317942,2026-04-14 14h42.49.509227 +0200,
4.5,ecc10pos,left,12,0,12,j,0,2.7649110999991535,None,0,0,0,0,12,0,12,0,266.9571591999993,,,,,,,,,,,,,,,266.9473356000017,266.9571591999993,266.9571591999993,266.9571591999993,267.8546363000023,269.73813209999935,j,0,2.7649110999991535,None,right,17,"[20, 19, 20, 19, 20, 19, 20, 17]",8,shiftedgaze_R_17.png,j,0,1,results20,001,2026-04-14_14h42.49.253,mogelijke versie adaptive staircase builder,,2026.1.3,60.04112817317942,2026-04-14 14h42.49.509227 +0200,
4.5,ecc10pos,left,13,0,13,f,1,2.4704490000003716,None,0,0,0,0,13,0,13,0,269.82790690000184,,,,,,,,,,,,,,,269.82391669999924,269.82790690000184,269.82790690000184,269.82790690000184,270.7379542999988,272.30471070000203,f,1,2.4704490000003716,None,right,18,"[20, 19, 20, 19, 20, 19, 20, 17, 18]",9,shiftedgaze_R_18.png,f,1,1,results20,001,2026-04-14_14h42.49.253,mogelijke versie adaptive staircase builder,,2026.1.3,60.04112817317942,2026-04-14 14h42.49.509227 +0200,
4.5,ecc10pos,left,14,0,14,f,1,2.909317800000281,None,0,0,0,0,14,0,14,0,272.38874040000155,,,,,,,,,,,,,,,272.38447760000054,272.38874040000155,272.38874040000155,272.38874040000155,273.30511789999946,275.3048062000016,f,1,2.909317800000281,None,right,17,"[20, 19, 20, 19, 20, 19, 20, 17, 18]",9,shiftedgaze_R_17.png,f,1,1,results20,001,2026-04-14_14h42.49.253,mogelijke versie adaptive staircase builder,,2026.1.3,60.04112817317942,2026-04-14 14h42.49.509227 +0200,
4.5,ecc10pos,left,15,0,15,f,1,2.877409600001556,None,0,0,0,0,15,0,15,0,275.41275529999984,,,,,,,,,,,,,,,275.4034423000012,275.41275529999984,275.41275529999984,275.41275529999984,276.30480330000137,278.30549370000153,f,1,2.877409600001556,None,left,16,"[20, 19, 20, 19, 20, 19, 20, 17, 18]",9,shiftedgaze_L_16.png,f,1,1,results20,001,2026-04-14_14h42.49.253,mogelijke versie adaptive staircase builder,,2026.1.3,60.04112817317942,2026-04-14 14h42.49.509227 +0200,
4.5,ecc10pos,left,16,0,16,j,0,2.889306500001112,None,0,0,0,0,16,0,16,0,278.40878090000115,,,,,,,,,,,,,,,278.39810959999886,278.40878090000115,278.40878090000115,278.40878090000115,279.3212534000013,281.30496539999876,j,0,2.889306500001112,None,right,15,"[20, 19, 20, 19, 20, 19, 20, 17, 18, 15]",10,shiftedgaze_R_15.png,j,0,1,results20,001,2026-04-14_14h42.49.253,mogelijke versie adaptive staircase builder,,2026.1.3,60.04112817317942,2026-04-14 14h42.49.509227 +0200,
4.5,ecc10pos,left,17,0,17,f,0,2.33692720000181,None,0,0,0,0,17,0,17,0,281.3932458999989,,,,,,,,,,,,,,,281.38926229999925,281.3932458999989,281.3932458999989,281.3932458999989,282.30449299999964,283.7387705000001,f,0,2.33692720000181,None,direct,16,"[20, 19, 20, 19, 20, 19, 20, 17, 18, 15]",10,shifteddirectgaze.png,f,0,1,results20,001,2026-04-14_14h42.49.253,mogelijke versie adaptive staircase builder,,2026.1.3,60.04112817317942,2026-04-14 14h42.49.509227 +0200,
4.5,ecc10pos,left,18,0,18,j,0,2.997535300000891,None,0,0,0,0,18,0,18,0,283.84463139999934,,,,,,,,,,,,,,,283.8351694000012,283.84463139999934,283.84463139999934,283.84463139999934,284.73815970000214,286.8548570000021,j,0,2.997535300000891,None,left,17,"[20, 19, 20, 19, 20, 19, 20, 17, 18, 15]",10,shiftedgaze_L_17.png,j,0,1,results20,001,2026-04-14_14h42.49.253,mogelijke versie adaptive staircase builder,,2026.1.3,60.04112817317942,2026-04-14 14h42.49.509227 +0200,
4.5,ecc10pos,left,19,0,19,f,0,3.156197099997371,None,0,0,0,0,19,0,19,0,286.95018600000185,,,,,,,,,,,,,,,286.94064920000164,286.95018600000185,286.95018600000185,286.95018600000185,287.8546357000014,290.1217027999992,f,0,3.156197099997371,None,direct,18,"[20, 19, 20, 19, 20, 19, 20, 17, 18, 15]",10,shifteddirectgaze.png,f,0,1,results20,001,2026-04-14_14h42.49.253,mogelijke versie adaptive staircase builder,,2026.1.3,60.04112817317942,2026-04-14 14h42.49.509227 +0200,
4.5,ecc10pos,left,20,0,20,f,1,4.11933389999831,None,0,0,0,0,20,0,20,0,290.2190425000008,,,,,,,,,,,,,,,290.20943289999923,290.2190425000008,290.2190425000008,290.2190425000008,291.12126999999964,294.33875460000127,f,1,4.11933389999831,None,left,19,"[20, 19, 20, 19, 20, 19, 20, 17, 18, 15, 19]",11,shiftedgaze_L_19.png,f,1,1,results20,001,2026-04-14_14h42.49.253,mogelijke versie adaptive staircase builder,,2026.1.3,60.04112817317942,2026-04-14 14h42.49.509227 +0200,
4.5,ecc10pos,left,21,0,21,j,1,2.7209043000002566,None,0,0,0,0,21,0,21,0,294.4333535000005,,,,,,,,,,,,,,,294.422503400001,294.4333535000005,294.4333535000005,294.4333535000005,295.3381330000011,297.1546178999997,j,1,2.7209043000002566,None,direct,18,"[20, 19, 20, 19, 20, 19, 20, 17, 18, 15, 19]",11,shifteddirectgaze.png,j,1,1,results20,001,2026-04-14_14h42.49.253,mogelijke versie adaptive staircase builder,,2026.1.3,60.04112817317942,2026-04-14 14h42.49.509227 +0200,
4.5,ecc10pos,left,22,0,22,f,1,2.7023442999998224,None,0,0,0,0,22,0,22,0,297.26021330000003,,,,,,,,,,,,,,,297.2509073000001,297.26021330000003,297.26021330000003,297.26021330000003,298.1550399000007,299.9717407999997,f,1,2.7023442999998224,None,left,17,"[20, 19, 20, 19, 20, 19, 20, 17, 18, 15, 19]",11,shiftedgaze_L_17.png,f,1,1,results20,001,2026-04-14_14h42.49.253,mogelijke versie adaptive staircase builder,,2026.1.3,60.04112817317942,2026-04-14 14h42.49.509227 +0200,
4.5,ecc10pos,left,23,0,23,f,1,2.8180973999988055,None,0,0,0,0,23,0,23,0,300.0805435000002,,,,,,,,,,,,,,,300.0706704000004,300.0805435000002,300.0805435000002,300.0805435000002,300.98836270000174,302.9052770999988,f,1,2.8180973999988055,None,right,16,"[20, 19, 20, 19, 20, 19, 20, 17, 18, 15, 19]",11,shiftedgaze_R_16.png,f,1,1,results20,001,2026-04-14_14h42.49.253,mogelijke versie adaptive staircase builder,,2026.1.3,60.04112817317942,2026-04-14 14h42.49.509227 +0200,
4.5,ecc10pos,left,24,0,24,j,0,2.3211670000018785,None,0,0,0,0,24,0,24,0,303.01699740000186,,,,,,,,,,,,,,,303.0075943000011,303.01699740000186,303.01699740000186,303.01699740000186,303.90506789999927,305.3383455000003,j,0,2.3211670000018785,None,left,15,"[20, 19, 20, 19, 20, 19, 20, 17, 18, 15, 19, 15]",12,shiftedgaze_L_15.png,j,0,1,results20,001,2026-04-14_14h42.49.253,mogelijke versie adaptive staircase builder,,2026.1.3,60.04112817317942,2026-04-14 14h42.49.509227 +0200,
4.5,ecc10pos,left,25,0,25,j,0,2.7223095999979705,None,0,0,0,0,25,0,25,0,305.44812810000076,,,,,,,,,,,,,,,305.4386450999991,305.44812810000076,305.44812810000076,305.44812810000076,306.3381518999995,308.17224930000157,j,0,2.7223095999979705,None,left,16,"[20, 19, 20, 19, 20, 19, 20, 17, 18, 15, 19, 15]",12,shiftedgaze_L_16.png,j,0,1,results20,001,2026-04-14_14h42.49.253,mogelijke versie adaptive staircase builder,,2026.1.3,60.04112817317942,2026-04-14 14h42.49.509227 +0200,
4.5,ecc10pos,left,26,0,26,f,0,2.096897200000967,None,0,0,0,0,26,0,26,0,308.2735261000016,,,,,,,,,,,,,,,308.2637759999998,308.2735261000016,308.2735261000016,308.2735261000016,309.1715699000015,310.3722952999997,f,0,2.096897200000967,None,direct,17,"[20, 19, 20, 19, 20, 19, 20, 17, 18, 15, 19, 15]",12,shifteddirectgaze.png,f,0,1,results20,001,2026-04-14_14h42.49.253,mogelijke versie adaptive staircase builder,,2026.1.3,60.04112817317942,2026-04-14 14h42.49.509227 +0200,
4.5,ecc10pos,left,27,0,27,j,1,3.5454059000003326,None,0,0,0,0,27,0,27,0,310.4571609000013,,,,,,,,,,,,,,,310.45317250000153,310.4571609000013,310.4571609000013,310.4571609000013,311.38791670000137,314.0052600000017,j,1,3.5454059000003326,None,direct,18,"[20, 19, 20, 19, 20, 19, 20, 17, 18, 15, 19, 15, 18]",13,shifteddirectgaze.png,j,1,1,results20,001,2026-04-14_14h42.49.253,mogelijke versie adaptive staircase builder,,2026.1.3,60.04112817317942,2026-04-14 14h42.49.509227 +0200,
4.5,ecc10pos,left,28,0,28,f,1,2.884417000001122,None,0,0,0,0,28,0,28,0,314.10221150000143,,,,,,,,,,,,,,,314.0924120000018,314.10221150000143,314.10221150000143,314.10221150000143,315.0212199000016,316.98852110000007,f,1,2.884417000001122,None,left,17,"[20, 19, 20, 19, 20, 19, 20, 17, 18, 15, 19, 15, 18]",13,shiftedgaze_L_17.png,f,1,1,results20,001,2026-04-14_14h42.49.253,mogelijke versie adaptive staircase builder,,2026.1.3,60.04112817317942,2026-04-14 14h42.49.509227 +0200,
4.5,ecc10pos,left,29,0,29,j,1,3.0094979999994393,None,0,0,0,0,29,0,29,0,317.0810713999999,,,,,,,,,,,,,,,317.07114360000196,317.0810713999999,317.0810713999999,317.0810713999999,317.9883431999988,320.1054280999997,j,1,3.0094979999994393,None,direct,16,"[20, 19, 20, 19, 20, 19, 20, 17, 18, 15, 19, 15, 18]",13,shifteddirectgaze.png,j,1,1,results20,001,2026-04-14_14h42.49.253,mogelijke versie adaptive staircase builder,,2026.1.3,60.04112817317942,2026-04-14 14h42.49.509227 +0200,
4.5,ecc10pos,left,30,0,30,f,1,3.075725099999545,None,0,0,0,0,30,0,30,0,320.1988760999993,,,,,,,,,,,,,,,320.1896694999996,320.1988760999993,320.1988760999993,320.1988760999993,321.1047963000019,323.28866990000097,f,1,3.075725099999545,None,left,15,"[20, 19, 20, 19, 20, 19, 20, 17, 18, 15, 19, 15, 18]",13,shiftedgaze_L_15.png,f,1,1,results20,001,2026-04-14_14h42.49.253,mogelijke versie adaptive staircase builder,,2026.1.3,60.04112817317942,2026-04-14 14h42.49.509227 +0200,
4.5,ecc10pos,left,31,0,31,f,0,3.516436199999589,None,0,0,0,0,31,0,31,0,323.3819872000022,,,,,,,,,,,,,,,323.37262510000073,323.3819872000022,323.3819872000022,323.3819872000022,324.3045275000004,326.9052445000016,f,0,3.516436199999589,None,direct,14,"[20, 19, 20, 19, 20, 19, 20, 17, 18, 15, 19, 15, 18, 14]",14,shifteddirectgaze.png,f,0,1,results20,001,2026-04-14_14h42.49.253,mogelijke versie adaptive staircase builder,,2026.1.3,60.04112817317942,2026-04-14 14h42.49.509227 +0200,
4.5,ecc10pos,left,32,0,32,j,1,3.004676999997173,None,0,0,0,0,32,0,32,0,326.9899125000011,,,,,,,,,,,,,,,326.98599119999926,326.9899125000011,326.9899125000011,326.9899125000011,327.9048354000006,330.0050690999997,j,1,3.004676999997173,None,direct,15,"[20, 19, 20, 19, 20, 19, 20, 17, 18, 15, 19, 15, 18, 14, 15]",15,shifteddirectgaze.png,j,1,1,results20,001,2026-04-14_14h42.49.253,mogelijke versie adaptive staircase builder,,2026.1.3,60.04112817317942,2026-04-14 14h42.49.509227 +0200,
4.5,ecc10pos,left,33,0,33,f,0,3.017951100002392,None,0,0,0,0,33,0,33,0,330.0884355999988,,,,,,,,,,,,,,,330.08436580000125,330.0884355999988,330.0884355999988,330.0884355999988,331.0045508000003,333.12190439999904,f,0,3.017951100002392,None,direct,14,"[20, 19, 20, 19, 20, 19, 20, 17, 18, 15, 19, 15, 18, 14, 15, 14]",16,shifteddirectgaze.png,f,0,1,results20,001,2026-04-14_14h42.49.253,mogelijke versie adaptive staircase builder,,2026.1.3,60.04112817317942,2026-04-14 14h42.49.509227 +0200,
4.5,ecc10pos,left,34,0,34,j,0,4.2419507000013255,None,0,0,0,0,34,0,34,0,333.2162601000018,,,,,,,,,,,,,,,333.20676620000086,333.2162601000018,333.2162601000018,333.2162601000018,334.1217643000018,337.47132070000225,j,0,4.2419507000013255,None,left,15,"[20, 19, 20, 19, 20, 19, 20, 17, 18, 15, 19, 15, 18, 14, 15, 14]",16,shiftedgaze_L_15.png,j,0,1,results20,001,2026-04-14_14h42.49.253,mogelijke versie adaptive staircase builder,,2026.1.3,60.04112817317942,2026-04-14 14h42.49.509227 +0200,
4.5,ecc10pos,left,35,0,35,f,1,4.847632599998178,None,0,0,0,0,35,0,35,0,337.5625536000007,,,,,,,,,,,,,,,337.5529601999988,337.5625536000007,337.5625536000007,337.5625536000007,338.47115080000003,342.4213856999995,f,1,4.847632599998178,None,right,16,"[20, 19, 20, 19, 20, 19, 20, 17, 18, 15, 19, 15, 18, 14, 15, 14, 16]",17,shiftedgaze_R_16.png,f,1,1,results20,001,2026-04-14_14h42.49.253,mogelijke versie adaptive staircase builder,,2026.1.3,60.04112817317942,2026-04-14 14h42.49.509227 +0200,
4.5,ecc10pos,left,36,0,36,j,1,3.985904599998321,None,0,0,0,0,36,0,36,0,342.5046523000019,,,,,,,,,,,,,,,342.50079760000153,342.5046523000019,342.5046523000019,342.5046523000019,343.4214675000003,346.5052891000014,j,1,3.985904599998321,None,direct,15,"[20, 19, 20, 19, 20, 19, 20, 17, 18, 15, 19, 15, 18, 14, 15, 14, 16]",17,shifteddirectgaze.png,j,1,1,results20,001,2026-04-14_14h42.49.253,mogelijke versie adaptive staircase builder,,2026.1.3,60.04112817317942,2026-04-14 14h42.49.509227 +0200,
4.5,ecc10pos,left,37,0,37,f,1,3.2370918999986316,None,0,0,0,0,37,0,37,0,346.5970942000022,,,,,,,,,,,,,,,346.59290469999905,346.5970942000022,346.5970942000022,346.5970942000022,347.5210847999988,349.83824449999884,f,1,3.2370918999986316,None,left,14,"[20, 19, 20, 19, 20, 19, 20, 17, 18, 15, 19, 15, 18, 14, 15, 14, 16]",17,shiftedgaze_L_14.png,f,1,1,results20,001,2026-04-14_14h42.49.253,mogelijke versie adaptive staircase builder,,2026.1.3,60.04112817317942,2026-04-14 14h42.49.509227 +0200,
4.5,ecc10pos,left,38,0,38,f,1,3.0614088000002084,None,0,0,0,0,38,0,38,0,349.9408040999988,,,,,,,,,,,,,,,349.93681410000136,349.9408040999988,349.9408040999988,349.9408040999988,350.83778520000124,353.0046626000003,f,1,3.0614088000002084,None,right,13,"[20, 19, 20, 19, 20, 19, 20, 17, 18, 15, 19, 15, 18, 14, 15, 14, 16]",17,shiftedgaze_R_13.png,f,1,1,results20,001,2026-04-14_14h42.49.253,mogelijke versie adaptive staircase builder,,2026.1.3,60.04112817317942,2026-04-14 14h42.49.509227 +0200,
4.5,ecc10pos,left,39,0,39,j,0,3.166016600000148,None,0,0,0,0,39,0,39,0,353.1080820999996,,,,,,,,,,,,,,,353.1040826999997,353.1080820999996,353.1080820999996,353.1080820999996,354.005406100001,356.288574000002,j,0,3.166016600000148,None,left,12,"[20, 19, 20, 19, 20, 19, 20, 17, 18, 15, 19, 15, 18, 14, 15, 14, 16, 12]",18,shiftedgaze_L_12.png,j,0,1,results20,001,2026-04-14_14h42.49.253,mogelijke versie adaptive staircase builder,,2026.1.3,60.04112817317942,2026-04-14 14h42.49.509227 +0200,
4.5,ecc10pos,left,40,0,40,j,0,3.761797999999544,None,0,0,0,0,40,0,40,0,356.39242020000165,,,,,,,,,,,,,,,356.3883483999998,356.39242020000165,356.39242020000165,356.39242020000165,357.2878669999991,360.15470180000193,j,0,3.761797999999544,None,left,13,"[20, 19, 20, 19, 20, 19, 20, 17, 18, 15, 19, 15, 18, 14, 15, 14, 16, 12]",18,shiftedgaze_L_13.png,j,0,1,results20,001,2026-04-14_14h42.49.253,mogelijke versie adaptive staircase builder,,2026.1.3,60.04112817317942,2026-04-14 14h42.49.509227 +0200,
4.5,ecc10pos,left,41,0,41,f,1,2.3712349999987055,None,0,0,0,0,41,0,41,0,360.246919600002,,,,,,,,,,,,,,,360.24260499999946,360.246919600002,360.246919600002,360.246919600002,361.1545384000019,362.62150119999933,f,1,2.3712349999987055,None,right,14,"[20, 19, 20, 19, 20, 19, 20, 17, 18, 15, 19, 15, 18, 14, 15, 14, 16, 12, 14]",19,shiftedgaze_R_14.png,f,1,1,results20,001,2026-04-14_14h42.49.253,mogelijke versie adaptive staircase builder,,2026.1.3,60.04112817317942,2026-04-14 14h42.49.509227 +0200,
4.5,ecc10pos,left,42,0,42,f,0,2.679842599998665,None,0,0,0,0,42,0,42,0,362.70624529999986,,,,,,,,,,,,,,,362.70222880000074,362.70624529999986,362.70624529999986,362.70624529999986,363.6217910000014,365.3880534000018,f,0,2.679842599998665,None,direct,13,"[20, 19, 20, 19, 20, 19, 20, 17, 18, 15, 19, 15, 18, 14, 15, 14, 16, 12, 14, 13]",20,shifteddirectgaze.png,f,0,1,results20,001,2026-04-14_14h42.49.253,mogelijke versie adaptive staircase builder,,2026.1.3,60.04112817317942,2026-04-14 14h42.49.509227 +0200,
4.5,ecc10pos,left,43,0,43,j,1,2.1688929999982065,None,0,0,0,0,43,0,43,0,365.47317810000095,,,,,,,,,,,,,,,365.4691946000021,365.47317810000095,365.47317810000095,365.47317810000095,366.3879416999989,367.6547654999995,j,1,2.1688929999982065,None,direct,14,"[20, 19, 20, 19, 20, 19, 20, 17, 18, 15, 19, 15, 18, 14, 15, 14, 16, 12, 14, 13, 14]",21,shifteddirectgaze.png,j,1,1,results20,001,2026-04-14_14h42.49.253,mogelijke versie adaptive staircase builder,,2026.1.3,60.04112817317942,2026-04-14 14h42.49.509227 +0200,
4.5,ecc10pos,left,44,0,44,f,0,2.1430981999983487,None,0,0,0,0,44,0,44,0,367.73908329999904,,,,,,,,,,,,,,,367.73476819999996,367.73908329999904,367.73908329999904,367.73908329999904,368.65463140000065,369.8881115000004,f,0,2.1430981999983487,None,direct,13,"[20, 19, 20, 19, 20, 19, 20, 17, 18, 15, 19, 15, 18, 14, 15, 14, 16, 12, 14, 13, 14, 13]",22,shifteddirectgaze.png,f,0,1,results20,001,2026-04-14_14h42.49.253,mogelijke versie adaptive staircase builder,,2026.1.3,60.04112817317942,2026-04-14 14h42.49.509227 +0200,
4.5,ecc10pos,left,45,0,45,j,1,2.246546700000181,None,0,0,0,0,45,0,45,0,369.9715006000006,,,,,,,,,,,,,,,369.96743380000044,369.9715006000006,369.9715006000006,369.9715006000006,370.8879933999997,372.2215577999996,j,1,2.246546700000181,None,direct,14,"[20, 19, 20, 19, 20, 19, 20, 17, 18, 15, 19, 15, 18, 14, 15, 14, 16, 12, 14, 13, 14, 13, 14]",23,shifteddirectgaze.png,j,1,1,results20,001,2026-04-14_14h42.49.253,mogelijke versie adaptive staircase builder,,2026.1.3,60.04112817317942,2026-04-14 14h42.49.509227 +0200,
4.5,ecc10pos,left,46,0,46,f,0,2.744325100000424,None,0,0,0,0,46,0,46,0,372.3058486000009,,,,,,,,,,,,,,,372.3016810000008,372.3058486000009,372.3058486000009,372.3058486000009,373.221184500002,375.0547555000012,f,0,2.744325100000424,None,direct,13,"[20, 19, 20, 19, 20, 19, 20, 17, 18, 15, 19, 15, 18, 14, 15, 14, 16, 12, 14, 13, 14, 13, 14, 13]",24,shifteddirectgaze.png,f,0,1,results20,001,2026-04-14_14h42.49.253,mogelijke versie adaptive staircase builder,,2026.1.3,60.04112817317942,2026-04-14 14h42.49.509227 +0200,
4.5,ecc10pos,left,47,0,47,j,0,2.990574100000231,None,0,0,0,0,47,0,47,0,375.13997129999916,,,,,,,,,,,,,,,375.13585800000146,375.13997129999916,375.13997129999916,375.13997129999916,376.0546107000009,378.13853070000187,j,0,2.990574100000231,None,right,14,"[20, 19, 20, 19, 20, 19, 20, 17, 18, 15, 19, 15, 18, 14, 15, 14, 16, 12, 14, 13, 14, 13, 14, 13]",24,shiftedgaze_R_14.png,j,0,1,results20,001,2026-04-14_14h42.49.253,mogelijke versie adaptive staircase builder,,2026.1.3,60.04112817317942,2026-04-14 14h42.49.509227 +0200,
4.5,ecc10pos,left,48,0,48,f,0,3.3228679000021657,None,0,0,0,0,48,0,48,0,378.2232143000001,,,,,,,,,,,,,,,378.21912599999996,378.2232143000001,378.2232143000001,378.2232143000001,379.13850190000085,381.55478810000204,f,0,3.3228679000021657,None,direct,15,"[20, 19, 20, 19, 20, 19, 20, 17, 18, 15, 19, 15, 18, 14, 15, 14, 16, 12, 14, 13, 14, 13, 14, 13]",24,shifteddirectgaze.png,f,0,1,results20,001,2026-04-14_14h42.49.253,mogelijke versie adaptive staircase builder,,2026.1.3,60.04112817317942,2026-04-14 14h42.49.509227 +0200,
4.5,ecc10pos,left,49,0,49,j,0,1.8379610999982106,None,0,0,0,0,49,0,49,0,381.6602138999988,,,,,,,,,,,,,,,381.65018390000114,381.6602138999988,381.6602138999988,381.6602138999988,382.5549054000003,383.5048205999992,j,0,1.8379610999982106,None,left,16,"[20, 19, 20, 19, 20, 19, 20, 17, 18, 15, 19, 15, 18, 14, 15, 14, 16, 12, 14, 13, 14, 13, 14, 13]",24,shiftedgaze_L_16.png,j,0,1,results20,001,2026-04-14_14h42.49.253,mogelijke versie adaptive staircase builder,,2026.1.3,60.04112817317942,2026-04-14 14h42.49.509227 +0200,
4.5,ecc10pos,left,50,0,50,f,0,1.9749999000014213,None,0,0,0,0,50,0,50,0,383.6031397000006,,,,,,,,,,,,,,,383.59289139999964,383.6031397000006,383.6031397000006,383.6031397000006,384.5045874999996,385.5888054999996,f,0,1.9749999000014213,None,direct,17,"[20, 19, 20, 19, 20, 19, 20, 17, 18, 15, 19, 15, 18, 14, 15, 14, 16, 12, 14, 13, 14, 13, 14, 13]",24,shifteddirectgaze.png,f,0,1,results20,001,2026-04-14_14h42.49.253,mogelijke versie adaptive staircase builder,,2026.1.3,60.04112817317942,2026-04-14 14h42.49.509227 +0200,
4.5,ecc10pos,left,51,0,51,j,0,2.2320302999978594,None,0,0,0,0,51,0,51,0,385.69008490000124,,,,,,,,,,,,,,,385.68021489999956,385.69008490000124,385.69008490000124,385.69008490000124,386.587954300001,387.92248590000236,j,0,2.2320302999978594,None,left,18,"[20, 19, 20, 19, 20, 19, 20, 17, 18, 15, 19, 15, 18, 14, 15, 14, 16, 12, 14, 13, 14, 13, 14, 13]",24,shiftedgaze_L_18.png,j,0,1,results20,001,2026-04-14_14h42.49.253,mogelijke versie adaptive staircase builder,,2026.1.3,60.04112817317942,2026-04-14 14h42.49.509227 +0200,
4.5,ecc10pos,left,52,0,52,f,1,2.369021200000134,None,0,0,0,0,52,0,52,0,388.01713740000196,,,,,,,,,,,,,,,388.0127560000001,388.01713740000196,388.01713740000196,388.01713740000196,388.93799260000014,390.3881987999994,f,1,2.369021200000134,None,left,19,"[20, 19, 20, 19, 20, 19, 20, 17, 18, 15, 19, 15, 18, 14, 15, 14, 16, 12, 14, 13, 14, 13, 14, 13, 19]",25,shiftedgaze_L_19.png,f,1,1,results20,001,2026-04-14_14h42.49.253,mogelijke versie adaptive staircase builder,,2026.1.3,60.04112817317942,2026-04-14 14h42.49.509227 +0200,
4.5,ecc10pos,left,53,0,53,f,1,2.5754024000016216,None,0,0,0,0,53,0,53,0,390.48277099999905,,,,,,,,,,,,,,,390.47797450000144,390.48277099999905,390.48277099999905,390.48277099999905,391.3882276000004,393.0714775000015,f,1,2.5754024000016216,None,left,18,"[20, 19, 20, 19, 20, 19, 20, 17, 18, 15, 19, 15, 18, 14, 15, 14, 16, 12, 14, 13, 14, 13, 14, 13, 19]",25,shiftedgaze_L_18.png,f,1,1,results20,001,2026-04-14_14h42.49.253,mogelijke versie adaptive staircase builder,,2026.1.3,60.04112817317942,2026-04-14 14h42.49.509227 +0200,
4.5,ecc10pos,left,54,0,54,j,0,2.5010941000000457,None,0,0,0,0,54,0,54,0,393.16520709999895,,,,,,,,,,,,,,,393.1603006000005,393.16520709999895,393.16520709999895,393.16520709999895,394.07180190000145,395.6718553999999,j,0,2.5010941000000457,None,left,17,"[20, 19, 20, 19, 20, 19, 20, 17, 18, 15, 19, 15, 18, 14, 15, 14, 16, 12, 14, 13, 14, 13, 14, 13, 19, 17]",26,shiftedgaze_L_17.png,j,0,1,results20,001,2026-04-14_14h42.49.253,mogelijke versie adaptive staircase builder,,2026.1.3,60.04112817317942,2026-04-14 14h42.49.509227 +0200,
4.5,ecc10pos,left,55,0,55,j,0,2.0591934000003675,None,0,0,0,0,55,0,55,0,395.76702020000084,,,,,,,,,,,,,,,395.75715950000085,395.76702020000084,395.76702020000084,395.76702020000084,396.68771729999935,397.8381999000012,j,0,2.0591934000003675,None,right,18,"[20, 19, 20, 19, 20, 19, 20, 17, 18, 15, 19, 15, 18, 14, 15, 14, 16, 12, 14, 13, 14, 13, 14, 13, 19, 17]",26,shiftedgaze_R_18.png,j,0,1,results20,001,2026-04-14_14h42.49.253,mogelijke versie adaptive staircase builder,,2026.1.3,60.04112817317942,2026-04-14 14h42.49.509227 +0200,
4.5,ecc10pos,left,56,0,56,j,1,2.37605959999928,None,0,0,0,0,56,0,56,0,397.93805070000235,,,,,,,,,,,,,,,397.9329789000003,397.93805070000235,397.93805070000235,397.93805070000235,398.8376433000012,400.3214420000004,j,1,2.37605959999928,None,direct,19,"[20, 19, 20, 19, 20, 19, 20, 17, 18, 15, 19, 15, 18, 14, 15, 14, 16, 12, 14, 13, 14, 13, 14, 13, 19, 17, 19]",27,shifteddirectgaze.png,j,1,1,results20,001,2026-04-14_14h42.49.253,mogelijke versie adaptive staircase builder,,2026.1.3,60.04112817317942,2026-04-14 14h42.49.509227 +0200,
4.5,ecc10pos,left,57,0,57,f,1,2.9229267000009713,None,0,0,0,0,57,0,57,0,400.43132360000163,,,,,,,,,,,,,,,400.42087390000233,400.43132360000163,400.43132360000163,400.43132360000163,401.3215186000016,403.3547624000021,f,1,2.9229267000009713,None,left,18,"[20, 19, 20, 19, 20, 19, 20, 17, 18, 15, 19, 15, 18, 14, 15, 14, 16, 12, 14, 13, 14, 13, 14, 13, 19, 17, 19]",27,shiftedgaze_L_18.png,f,1,1,results20,001,2026-04-14_14h42.49.253,mogelijke versie adaptive staircase builder,,2026.1.3,60.04112817317942,2026-04-14 14h42.49.509227 +0200,
4.5,ecc10pos,left,58,0,58,j,0,2.423833199998626,None,0,0,0,0,58,0,58,0,403.4587216,,,,,,,,,,,,,,,403.4481460999996,403.4587216,403.4587216,403.4587216,404.3551441000018,405.8887945999995,j,0,2.423833199998626,None,right,17,"[20, 19, 20, 19, 20, 19, 20, 17, 18, 15, 19, 15, 18, 14, 15, 14, 16, 12, 14, 13, 14, 13, 14, 13, 19, 17, 19, 17]",28,shiftedgaze_R_17.png,j,0,1,results20,001,2026-04-14_14h42.49.253,mogelijke versie adaptive staircase builder,,2026.1.3,60.04112817317942,2026-04-14 14h42.49.509227 +0200,
4.5,ecc10pos,left,59,0,59,j,0,2.6758637000020826,None,0,0,0,0,59,0,59,0,405.98268680000183,,,,,,,,,,,,,,,405.97328149999885,405.98268680000183,405.98268680000183,405.98268680000183,406.9046616000014,408.6721068000006,j,0,2.6758637000020826,None,left,18,"[20, 19, 20, 19, 20, 19, 20, 17, 18, 15, 19, 15, 18, 14, 15, 14, 16, 12, 14, 13, 14, 13, 14, 13, 19, 17, 19, 17]",28,shiftedgaze_L_18.png,j,0,1,results20,001,2026-04-14_14h42.49.253,mogelijke versie adaptive staircase builder,,2026.1.3,60.04112817317942,2026-04-14 14h42.49.509227 +0200,
4.5,ecc10pos,left,0,0,0,,,,,0,0,0,0,,,,,,,,,,,,,,,,,,,,,,,,,,,,,,,,,,,,,,results20,001,2026-04-14_14h42.49.253,mogelijke versie adaptive staircase builder,,2026.1.3,60.04112817317942,2026-04-14 14h42.49.509227 +0200,
12.5,ecc0,mid,0,0,0,f,1,5.440314999999828,None,0,1,1,1,0,0,0,0,408.76997200000187,,,,,,,,,,,,,408.67445130000124,408.67447990000073,408.7582306000004,408.76997200000187,409.6878735999999,408.76997200000187,408.76997200000187,414.22164519999933,f,1,5.440314999999828,None,right,20,[],0,gaze_R_20.png,f,1,2,results20,001,2026-04-14_14h42.49.253,mogelijke versie adaptive staircase builder,,2026.1.3,60.04112817317942,2026-04-14 14h42.49.509227 +0200,
12.5,ecc0,mid,1,0,1,j,0,2.594148899999709,None,0,1,1,1,1,0,1,0,414.3044766000021,,,,,,,,,,,,,,,414.3002047000009,414.3044766000021,415.2213293999994,414.3044766000021,414.3044766000021,416.9054756000005,j,0,2.594148899999709,None,left,19,[19],1,gaze_L_19.png,j,0,2,results20,001,2026-04-14_14h42.49.253,mogelijke versie adaptive staircase builder,,2026.1.3,60.04112817317942,2026-04-14 14h42.49.509227 +0200,
12.5,ecc0,mid,2,0,2,f,1,2.294772799999919,None,0,1,1,1,2,0,2,0,416.987826200002,,,,,,,,,,,,,,,416.9839610000017,416.987826200002,417.90517739999996,416.987826200002,416.987826200002,419.288608400002,f,1,2.294772799999919,None,right,20,"[19, 20]",2,gaze_R_20.png,f,1,2,results20,001,2026-04-14_14h42.49.253,mogelijke versie adaptive staircase builder,,2026.1.3,60.04112817317942,2026-04-14 14h42.49.509227 +0200,
12.5,ecc0,mid,3,0,3,j,0,2.7838011999992887,None,0,1,1,1,3,0,3,0,419.37072570000237,,,,,,,,,,,,,,,419.36670909999884,419.37072570000237,420.2883679000006,419.37072570000237,419.37072570000237,422.1554591000022,j,0,2.7838011999992887,None,right,19,"[19, 20, 19]",3,gaze_R_19.png,j,0,2,results20,001,2026-04-14_14h42.49.253,mogelijke versie adaptive staircase builder,,2026.1.3,60.04112817317942,2026-04-14 14h42.49.509227 +0200,
12.5,ecc0,mid,4,0,4,j,1,2.2443010000024515,None,0,1,1,1,4,0,4,0,422.2380598000018,,,,,,,,,,,,,,,422.23416720000023,422.2380598000018,423.1550458999991,422.2380598000018,422.2380598000018,424.4886794000013,j,1,2.2443010000024515,None,direct,20,"[19, 20, 19, 20]",4,direct_gaze.png,j,1,2,results20,001,2026-04-14_14h42.49.253,mogelijke versie adaptive staircase builder,,2026.1.3,60.04112817317942,2026-04-14 14h42.49.509227 +0200,
12.5,ecc0,mid,5,0,5,f,1,2.96593539999958,None,0,1,1,1,5,0,5,0,424.57216250000056,,,,,,,,,,,,,,,424.56787780000013,424.57216250000056,425.48833509999895,424.57216250000056,424.57216250000056,427.5547480999994,f,1,2.96593539999958,None,right,19,"[19, 20, 19, 20]",4,gaze_R_19.png,f,1,2,results20,001,2026-04-14_14h42.49.253,mogelijke versie adaptive staircase builder,,2026.1.3,60.04112817317942,2026-04-14 14h42.49.509227 +0200,
12.5,ecc0,mid,6,0,6,j,1,2.9899804000015138,None,0,1,1,1,6,0,6,0,427.6362211000014,,,,,,,,,,,,,,,427.632231399999,427.6362211000014,428.5549895000004,427.6362211000014,427.6362211000014,430.63803800000096,j,1,2.9899804000015138,None,direct,18,"[19, 20, 19, 20]",4,direct_gaze.png,j,1,2,results20,001,2026-04-14_14h42.49.253,mogelijke versie adaptive staircase builder,,2026.1.3,60.04112817317942,2026-04-14 14h42.49.509227 +0200,
12.5,ecc0,mid,7,0,7,f,1,2.52963969999837,None,0,1,1,1,7,0,7,0,430.7205943000008,,,,,,,,,,,,,,,430.7166853999988,430.7205943000008,431.6378698000008,430.7205943000008,430.7205943000008,433.25470250000217,f,1,2.52963969999837,None,left,17,"[19, 20, 19, 20]",4,gaze_L_17.png,f,1,2,results20,001,2026-04-14_14h42.49.253,mogelijke versie adaptive staircase builder,,2026.1.3,60.04112817317942,2026-04-14 14h42.49.509227 +0200,
12.5,ecc0,mid,8,0,8,f,1,2.1300846000012825,None,0,1,1,1,8,0,8,0,433.33655630000067,,,,,,,,,,,,,,,433.3327200999993,433.33655630000067,434.25504400000136,433.33655630000067,433.33655630000067,435.4719393000014,f,1,2.1300846000012825,None,right,16,"[19, 20, 19, 20]",4,gaze_R_16.png,f,1,2,results20,001,2026-04-14_14h42.49.253,mogelijke versie adaptive staircase builder,,2026.1.3,60.04112817317942,2026-04-14 14h42.49.509227 +0200,
12.5,ecc0,mid,9,0,9,j,0,1.6640721000003396,None,0,1,1,1,9,0,9,0,435.55409470000086,,,,,,,,,,,,,,,435.5501136999992,435.55409470000086,436.4716422999991,435.55409470000086,435.55409470000086,437.221158700002,j,0,1.6640721000003396,None,right,15,"[19, 20, 19, 20, 15]",5,gaze_R_15.png,j,0,2,results20,001,2026-04-14_14h42.49.253,mogelijke versie adaptive staircase builder,,2026.1.3,60.04112817317942,2026-04-14 14h42.49.509227 +0200,
12.5,ecc0,mid,10,0,10,f,1,1.9307671999995364,None,0,1,1,1,10,0,10,0,437.3035330999992,,,,,,,,,,,,,,,437.2997230000001,437.3035330999992,438.22124650000114,437.3035330999992,437.3035330999992,439.2386570000017,f,1,1.9307671999995364,None,right,16,"[19, 20, 19, 20, 15, 16]",6,gaze_R_16.png,f,1,2,results20,001,2026-04-14_14h42.49.253,mogelijke versie adaptive staircase builder,,2026.1.3,60.04112817317942,2026-04-14 14h42.49.509227 +0200,
12.5,ecc0,mid,11,0,11,j,0,2.2098531999981788,None,0,1,1,1,11,0,11,0,439.3203629000018,,,,,,,,,,,,,,,439.3164245000007,439.3203629000018,440.2383657999999,439.3203629000018,439.3203629000018,441.5380839999998,j,0,2.2098531999981788,None,left,15,"[19, 20, 19, 20, 15, 16, 15]",7,gaze_L_15.png,j,0,2,results20,001,2026-04-14_14h42.49.253,mogelijke versie adaptive staircase builder,,2026.1.3,60.04112817317942,2026-04-14 14h42.49.509227 +0200,
12.5,ecc0,mid,12,0,12,j,0,2.365325300001132,None,0,1,1,1,12,0,12,0,441.62156329999925,,,,,,,,,,,,,,,441.6173884000018,441.62156329999925,442.5381425000014,441.62156329999925,441.62156329999925,443.98867470000187,j,0,2.365325300001132,None,right,16,"[19, 20, 19, 20, 15, 16, 15]",7,gaze_R_16.png,j,0,2,results20,001,2026-04-14_14h42.49.253,mogelijke versie adaptive staircase builder,,2026.1.3,60.04112817317942,2026-04-14 14h42.49.509227 +0200,
12.5,ecc0,mid,13,0,13,j,1,2.906971500000509,None,0,1,1,1,13,0,13,0,444.0716180999989,,,,,,,,,,,,,,,444.0675443,444.0716180999989,444.98829939999996,444.0716180999989,444.0716180999989,446.9885037999993,j,1,2.906971500000509,None,direct,17,"[19, 20, 19, 20, 15, 16, 15, 17]",8,direct_gaze.png,j,1,2,results20,001,2026-04-14_14h42.49.253,mogelijke versie adaptive staircase builder,,2026.1.3,60.04112817317942,2026-04-14 14h42.49.509227 +0200,
12.5,ecc0,mid,14,0,14,f,1,1.6507085000012012,None,0,1,1,1,14,0,14,0,447.0714991999994,,,,,,,,,,,,,,,447.06744049999907,447.0714991999994,448.00454009999885,447.0714991999994,447.0714991999994,448.73849990000235,f,1,1.6507085000012012,None,right,16,"[19, 20, 19, 20, 15, 16, 15, 17]",8,gaze_R_16.png,f,1,2,results20,001,2026-04-14_14h42.49.253,mogelijke versie adaptive staircase builder,,2026.1.3,60.04112817317942,2026-04-14 14h42.49.509227 +0200,
12.5,ecc0,mid,15,0,15,f,1,2.3329281999976956,None,0,1,1,1,15,0,15,0,448.8216625999994,,,,,,,,,,,,,,,448.817887600002,448.8216625999994,449.75456680000207,448.8216625999994,448.8216625999994,451.1554876000009,f,1,2.3329281999976956,None,right,15,"[19, 20, 19, 20, 15, 16, 15, 17]",8,gaze_R_15.png,f,1,2,results20,001,2026-04-14_14h42.49.253,mogelijke versie adaptive staircase builder,,2026.1.3,60.04112817317942,2026-04-14 14h42.49.509227 +0200,
12.5,ecc0,mid,16,0,16,f,1,2.3479613000017707,None,0,1,1,1,16,0,16,0,451.2389331000013,,,,,,,,,,,,,,,451.2347946000009,451.2389331000013,452.1710907000015,451.2389331000013,451.2389331000013,453.58863610000117,f,1,2.3479613000017707,None,right,14,"[19, 20, 19, 20, 15, 16, 15, 17]",8,gaze_R_14.png,f,1,2,results20,001,2026-04-14_14h42.49.253,mogelijke versie adaptive staircase builder,,2026.1.3,60.04112817317942,2026-04-14 14h42.49.509227 +0200,
12.5,ecc0,mid,17,0,17,j,0,2.139291700001195,None,0,1,1,1,17,0,17,0,453.67138630000045,,,,,,,,,,,,,,,453.6672158000001,453.67138630000045,454.588223499999,453.67138630000045,453.67138630000045,455.82197820000147,j,0,2.139291700001195,None,left,13,"[19, 20, 19, 20, 15, 16, 15, 17, 13]",9,gaze_L_13.png,j,0,2,results20,001,2026-04-14_14h42.49.253,mogelijke versie adaptive staircase builder,,2026.1.3,60.04112817317942,2026-04-14 14h42.49.509227 +0200,
12.5,ecc0,mid,18,0,18,j,0,2.577004799997667,None,0,1,1,1,18,0,18,0,455.90525720000005,,,,,,,,,,,,,,,455.9013051000002,455.90525720000005,456.82166549999965,455.90525720000005,455.90525720000005,458.4880594000024,j,0,2.577004799997667,None,left,14,"[19, 20, 19, 20, 15, 16, 15, 17, 13]",9,gaze_L_14.png,j,0,2,results20,001,2026-04-14_14h42.49.253,mogelijke versie adaptive staircase builder,,2026.1.3,60.04112817317942,2026-04-14 14h42.49.509227 +0200,
12.5,ecc0,mid,19,0,19,j,0,3.6392828000025474,None,0,1,1,1,19,0,19,0,458.57097860000067,,,,,,,,,,,,,,,458.5669220000018,458.57097860000067,459.4880006000021,458.57097860000067,458.57097860000067,462.22131400000217,j,0,3.6392828000025474,None,left,15,"[19, 20, 19, 20, 15, 16, 15, 17, 13]",9,gaze_L_15.png,j,0,2,results20,001,2026-04-14_14h42.49.253,mogelijke versie adaptive staircase builder,,2026.1.3,60.04112817317942,2026-04-14 14h42.49.509227 +0200,
12.5,ecc0,mid,20,0,20,f,0,1.9068921999969461,None,0,1,1,1,20,0,20,0,462.30322589999923,,,,,,,,,,,,,,,462.2995168000016,462.30322589999923,463.22121369999877,462.30322589999923,462.30322589999923,464.221674299999,f,0,1.9068921999969461,None,direct,16,"[19, 20, 19, 20, 15, 16, 15, 17, 13]",9,direct_gaze.png,f,0,2,results20,001,2026-04-14_14h42.49.253,mogelijke versie adaptive staircase builder,,2026.1.3,60.04112817317942,2026-04-14 14h42.49.509227 +0200,
12.5,ecc0,mid,21,0,21,f,1,2.402280000002065,None,0,1,1,1,21,0,21,0,464.3041488000017,,,,,,,,,,,,,,,464.30026910000015,464.3041488000017,465.2216875000013,464.3041488000017,464.3041488000017,466.7219442000023,f,1,2.402280000002065,None,right,17,"[19, 20, 19, 20, 15, 16, 15, 17, 13, 17]",10,gaze_R_17.png,f,1,2,results20,001,2026-04-14_14h42.49.253,mogelijke versie adaptive staircase builder,,2026.1.3,60.04112817317942,2026-04-14 14h42.49.509227 +0200,
12.5,ecc0,mid,22,0,22,j,0,2.0050980000014533,None,0,1,1,1,22,0,22,0,466.80551449999984,,,,,,,,,,,,,,,466.8016738000006,466.80551449999984,467.737890700002,466.80551449999984,466.80551449999984,468.8219452000012,j,0,2.0050980000014533,None,left,16,"[19, 20, 19, 20, 15, 16, 15, 17, 13, 17, 16]",11,gaze_L_16.png,j,0,2,results20,001,2026-04-14_14h42.49.253,mogelijke versie adaptive staircase builder,,2026.1.3,60.04112817317942,2026-04-14 14h42.49.509227 +0200,
12.5,ecc0,mid,23,0,23,f,1,2.3538231999991694,None,0,1,1,1,23,0,23,0,468.90434240000104,,,,,,,,,,,,,,,468.9003739,468.90434240000104,469.8214372000002,468.90434240000104,468.90434240000104,471.2715433000012,f,1,2.3538231999991694,None,right,17,"[19, 20, 19, 20, 15, 16, 15, 17, 13, 17, 16, 17]",12,gaze_R_17.png,f,1,2,results20,001,2026-04-14_14h42.49.253,mogelijke versie adaptive staircase builder,,2026.1.3,60.04112817317942,2026-04-14 14h42.49.509227 +0200,
12.5,ecc0,mid,24,0,24,f,1,3.28756969999813,None,0,1,1,1,24,0,24,0,471.35445360000085,,,,,,,,,,,,,,,471.35045900000114,471.35445360000085,472.27116810000007,471.35445360000085,471.35445360000085,474.6546656999999,f,1,3.28756969999813,None,left,16,"[19, 20, 19, 20, 15, 16, 15, 17, 13, 17, 16, 17]",12,gaze_L_16.png,f,1,2,results20,001,2026-04-14_14h42.49.253,mogelijke versie adaptive staircase builder,,2026.1.3,60.04112817317942,2026-04-14 14h42.49.509227 +0200,
12.5,ecc0,mid,25,0,25,j,0,2.509438000000955,None,0,1,1,1,25,0,25,0,474.74063620000015,,,,,,,,,,,,,,,474.73684090000097,474.74063620000015,475.6547391000022,474.74063620000015,474.74063620000015,477.2550626000011,j,0,2.509438000000955,None,left,15,"[19, 20, 19, 20, 15, 16, 15, 17, 13, 17, 16, 17, 15]",13,gaze_L_15.png,j,0,2,results20,001,2026-04-14_14h42.49.253,mogelijke versie adaptive staircase builder,,2026.1.3,60.04112817317942,2026-04-14 14h42.49.509227 +0200,
12.5,ecc0,mid,26,0,26,f,1,2.437817599999107,None,0,1,1,1,26,0,26,0,477.3484200000021,,,,,,,,,,,,,,,477.34449999999924,477.3484200000021,478.2547615000003,477.3484200000021,477.3484200000021,479.7885188,f,1,2.437817599999107,None,right,16,"[19, 20, 19, 20, 15, 16, 15, 17, 13, 17, 16, 17, 15, 16]",14,gaze_R_16.png,f,1,2,results20,001,2026-04-14_14h42.49.253,mogelijke versie adaptive staircase builder,,2026.1.3,60.04112817317942,2026-04-14 14h42.49.509227 +0200,
12.5,ecc0,mid,27,0,27,j,0,3.0155162000010023,None,0,1,1,1,27,0,27,0,479.8826294999999,,,,,,,,,,,,,,,479.8786203000018,479.8826294999999,480.78817830000116,479.8826294999999,479.8826294999999,482.9050872000007,j,0,3.0155162000010023,None,right,15,"[19, 20, 19, 20, 15, 16, 15, 17, 13, 17, 16, 17, 15, 16, 15]",15,gaze_R_15.png,j,0,2,results20,001,2026-04-14_14h42.49.253,mogelijke versie adaptive staircase builder,,2026.1.3,60.04112817317942,2026-04-14 14h42.49.509227 +0200,
12.5,ecc0,mid,28,0,28,f,1,3.403133899999375,None,0,1,1,1,28,0,28,0,482.99944329999926,,,,,,,,,,,,,,,482.9953075000012,482.99944329999926,483.90493250000145,482.99944329999926,482.99944329999926,486.4054536000003,f,1,3.403133899999375,None,left,16,"[19, 20, 19, 20, 15, 16, 15, 17, 13, 17, 16, 17, 15, 16, 15, 16]",16,gaze_L_16.png,f,1,2,results20,001,2026-04-14_14h42.49.253,mogelijke versie adaptive staircase builder,,2026.1.3,60.04112817317942,2026-04-14 14h42.49.509227 +0200,
12.5,ecc0,mid,29,0,29,f,1,2.330308699998568,None,0,1,1,1,29,0,29,0,486.4878673000021,,,,,,,,,,,,,,,486.48367549999966,486.4878673000021,487.4051392000001,486.4878673000021,486.4878673000021,488.82145690000107,f,1,2.330308699998568,None,right,15,"[19, 20, 19, 20, 15, 16, 15, 17, 13, 17, 16, 17, 15, 16, 15, 16]",16,gaze_R_15.png,f,1,2,results20,001,2026-04-14_14h42.49.253,mogelijke versie adaptive staircase builder,,2026.1.3,60.04112817317942,2026-04-14 14h42.49.509227 +0200,
12.5,ecc0,mid,30,0,30,j,0,2.1378755000005185,None,0,1,1,1,30,0,30,0,488.9041821999999,,,,,,,,,,,,,,,488.9001954000014,488.9041821999999,489.8213450000003,488.9041821999999,488.9041821999999,491.05479040000137,j,0,2.1378755000005185,None,left,14,"[19, 20, 19, 20, 15, 16, 15, 17, 13, 17, 16, 17, 15, 16, 15, 16, 14]",17,gaze_L_14.png,j,0,2,results20,001,2026-04-14_14h42.49.253,mogelijke versie adaptive staircase builder,,2026.1.3,60.04112817317942,2026-04-14 14h42.49.509227 +0200,
12.5,ecc0,mid,31,0,31,f,1,1.8877396000025328,None,0,1,1,1,31,0,31,0,491.1384416000001,,,,,,,,,,,,,,,491.1343254000021,491.1384416000001,492.05461490000016,491.1384416000001,491.1384416000001,493.0381935000005,f,1,1.8877396000025328,None,left,15,"[19, 20, 19, 20, 15, 16, 15, 17, 13, 17, 16, 17, 15, 16, 15, 16, 14, 15]",18,gaze_L_15.png,f,1,2,results20,001,2026-04-14_14h42.49.253,mogelijke versie adaptive staircase builder,,2026.1.3,60.04112817317942,2026-04-14 14h42.49.509227 +0200,
12.5,ecc0,mid,32,0,32,f,1,2.031194200000755,None,0,1,1,1,32,0,32,0,493.12330139999904,,,,,,,,,,,,,,,493.1191667000021,493.12330139999904,494.0379415999996,493.12330139999904,493.12330139999904,495.15541550000125,f,1,2.031194200000755,None,left,14,"[19, 20, 19, 20, 15, 16, 15, 17, 13, 17, 16, 17, 15, 16, 15, 16, 14, 15]",18,gaze_L_14.png,f,1,2,results20,001,2026-04-14_14h42.49.253,mogelijke versie adaptive staircase builder,,2026.1.3,60.04112817317942,2026-04-14 14h42.49.509227 +0200,
12.5,ecc0,mid,33,0,33,f,0,2.8760494999987714,None,0,1,1,1,33,0,33,0,495.2382512000004,,,,,,,,,,,,,,,495.2342724000009,495.2382512000004,496.1548040000016,495.2382512000004,495.2382512000004,498.1219200000014,f,0,2.8760494999987714,None,direct,13,"[19, 20, 19, 20, 15, 16, 15, 17, 13, 17, 16, 17, 15, 16, 15, 16, 14, 15, 13]",19,direct_gaze.png,f,0,2,results20,001,2026-04-14_14h42.49.253,mogelijke versie adaptive staircase builder,,2026.1.3,60.04112817317942,2026-04-14 14h42.49.509227 +0200,
12.5,ecc0,mid,34,0,34,j,0,2.3257737000021734,None,0,1,1,1,34,0,34,0,498.2045805000016,,,,,,,,,,,,,,,498.20051859999876,498.2045805000016,499.12178060000224,498.2045805000016,498.2045805000016,500.5381576,j,0,2.3257737000021734,None,left,14,"[19, 20, 19, 20, 15, 16, 15, 17, 13, 17, 16, 17, 15, 16, 15, 16, 14, 15, 13]",19,gaze_L_14.png,j,0,2,results20,001,2026-04-14_14h42.49.253,mogelijke versie adaptive staircase builder,,2026.1.3,60.04112817317942,2026-04-14 14h42.49.509227 +0200,
12.5,ecc0,mid,35,0,35,j,0,1.772351499999786,None,0,1,1,1,35,0,35,0,500.62221860000136,,,,,,,,,,,,,,,500.6179967999997,500.62221860000136,501.53813459999947,500.62221860000136,500.62221860000136,502.40533660000074,j,0,1.772351499999786,None,left,15,"[19, 20, 19, 20, 15, 16, 15, 17, 13, 17, 16, 17, 15, 16, 15, 16, 14, 15, 13]",19,gaze_L_15.png,j,0,2,results20,001,2026-04-14_14h42.49.253,mogelijke versie adaptive staircase builder,,2026.1.3,60.04112817317942,2026-04-14 14h42.49.509227 +0200,
12.5,ecc0,mid,36,0,36,j,0,1.9381713000002492,None,0,1,1,1,36,0,36,0,502.48790089999966,,,,,,,,,,,,,,,502.4838778000012,502.48790089999966,503.42123530000026,502.48790089999966,502.48790089999966,504.43803240000125,j,0,1.9381713000002492,None,right,16,"[19, 20, 19, 20, 15, 16, 15, 17, 13, 17, 16, 17, 15, 16, 15, 16, 14, 15, 13]",19,gaze_R_16.png,j,0,2,results20,001,2026-04-14_14h42.49.253,mogelijke versie adaptive staircase builder,,2026.1.3,60.04112817317942,2026-04-14 14h42.49.509227 +0200,
12.5,ecc0,mid,37,0,37,f,0,1.6568248000003223,None,0,1,1,1,37,0,37,0,504.52129530000093,,,,,,,,,,,,,,,504.51756749999913,504.52129530000093,505.43799489999947,504.52129530000093,504.52129530000093,506.18818140000076,f,0,1.6568248000003223,None,direct,17,"[19, 20, 19, 20, 15, 16, 15, 17, 13, 17, 16, 17, 15, 16, 15, 16, 14, 15, 13]",19,direct_gaze.png,f,0,2,results20,001,2026-04-14_14h42.49.253,mogelijke versie adaptive staircase builder,,2026.1.3,60.04112817317942,2026-04-14 14h42.49.509227 +0200,
12.5,ecc0,mid,38,0,38,f,0,2.0110549999990326,None,0,1,1,1,38,0,38,0,506.2710165999997,,,,,,,,,,,,,,,506.2671083999994,506.2710165999997,507.187886300002,506.2710165999997,506.2710165999997,508.2881266000004,f,0,2.0110549999990326,None,direct,18,"[19, 20, 19, 20, 15, 16, 15, 17, 13, 17, 16, 17, 15, 16, 15, 16, 14, 15, 13]",19,direct_gaze.png,f,0,2,results20,001,2026-04-14_14h42.49.253,mogelijke versie adaptive staircase builder,,2026.1.3,60.04112817317942,2026-04-14 14h42.49.509227 +0200,
12.5,ecc0,mid,39,0,39,j,0,2.423934599999484,None,0,1,1,1,39,0,39,0,508.37010100000043,,,,,,,,,,,,,,,508.366254200002,508.37010100000043,509.2884367000006,508.37010100000043,508.37010100000043,510.80506510000123,j,0,2.423934599999484,None,left,19,"[19, 20, 19, 20, 15, 16, 15, 17, 13, 17, 16, 17, 15, 16, 15, 16, 14, 15, 13]",19,gaze_L_19.png,j,0,2,results20,001,2026-04-14_14h42.49.253,mogelijke versie adaptive staircase builder,,2026.1.3,60.04112817317942,2026-04-14 14h42.49.509227 +0200,
12.5,ecc0,mid,40,0,40,j,0,1.911509900000965,None,0,1,1,1,40,0,40,0,510.8986662999996,,,,,,,,,,,,,,,510.8945750999992,510.8986662999996,511.8045306999993,510.8986662999996,510.8986662999996,512.8213911999992,j,0,1.911509900000965,None,left,20,"[19, 20, 19, 20, 15, 16, 15, 17, 13, 17, 16, 17, 15, 16, 15, 16, 14, 15, 13]",19,gaze_L_20.png,j,0,2,results20,001,2026-04-14_14h42.49.253,mogelijke versie adaptive staircase builder,,2026.1.3,60.04112817317942,2026-04-14 14h42.49.509227 +0200,
12.5,ecc0,mid,41,0,41,f,1,1.8539359999995213,None,0,1,1,1,41,0,41,0,512.916423300001,,,,,,,,,,,,,,,512.9123502000002,512.916423300001,513.821072499999,512.916423300001,512.916423300001,514.7715045000004,f,1,1.8539359999995213,None,left,20,"[19, 20, 19, 20, 15, 16, 15, 17, 13, 17, 16, 17, 15, 16, 15, 16, 14, 15, 13, 20]",20,gaze_L_20.png,f,1,2,results20,001,2026-04-14_14h42.49.253,mogelijke versie adaptive staircase builder,,2026.1.3,60.04112817317942,2026-04-14 14h42.49.509227 +0200,
12.5,ecc0,mid,42,0,42,f,1,2.2346556999982568,None,0,1,1,1,42,0,42,0,514.8555515000007,,,,,,,,,,,,,,,514.8517304000015,514.8555515000007,515.7712866000002,514.8555515000007,514.8555515000007,517.1048769000008,f,1,2.2346556999982568,None,right,19,"[19, 20, 19, 20, 15, 16, 15, 17, 13, 17, 16, 17, 15, 16, 15, 16, 14, 15, 13, 20]",20,gaze_R_19.png,f,1,2,results20,001,2026-04-14_14h42.49.253,mogelijke versie adaptive staircase builder,,2026.1.3,60.04112817317942,2026-04-14 14h42.49.509227 +0200,
12.5,ecc0,mid,43,0,43,j,0,1.7901772999975947,None,0,1,1,1,43,0,43,0,517.1879948999995,,,,,,,,,,,,,,,517.1839102000013,517.1879948999995,518.1045240000021,517.1879948999995,517.1879948999995,518.9881408000001,j,0,1.7901772999975947,None,left,18,"[19, 20, 19, 20, 15, 16, 15, 17, 13, 17, 16, 17, 15, 16, 15, 16, 14, 15, 13, 20, 18]",21,gaze_L_18.png,j,0,2,results20,001,2026-04-14_14h42.49.253,mogelijke versie adaptive staircase builder,,2026.1.3,60.04112817317942,2026-04-14 14h42.49.509227 +0200,
12.5,ecc0,mid,44,0,44,j,1,1.7483432000008179,None,0,1,1,1,44,0,44,0,519.0698413999999,,,,,,,,,,,,,,,519.0659651000024,519.0698413999999,519.9884674999994,519.0698413999999,519.0698413999999,520.8213897000023,j,1,1.7483432000008179,None,direct,19,"[19, 20, 19, 20, 15, 16, 15, 17, 13, 17, 16, 17, 15, 16, 15, 16, 14, 15, 13, 20, 18, 19]",22,direct_gaze.png,j,1,2,results20,001,2026-04-14_14h42.49.253,mogelijke versie adaptive staircase builder,,2026.1.3,60.04112817317942,2026-04-14 14h42.49.509227 +0200,
12.5,ecc0,mid,45,0,45,f,1,1.5766350999983842,None,0,1,1,1,45,0,45,0,520.9056381000009,,,,,,,,,,,,,,,520.9015757000016,520.9056381000009,521.8216009999996,520.9056381000009,520.9056381000009,522.4884186999989,f,1,1.5766350999983842,None,right,18,"[19, 20, 19, 20, 15, 16, 15, 17, 13, 17, 16, 17, 15, 16, 15, 16, 14, 15, 13, 20, 18, 19]",22,gaze_R_18.png,f,1,2,results20,001,2026-04-14_14h42.49.253,mogelijke versie adaptive staircase builder,,2026.1.3,60.04112817317942,2026-04-14 14h42.49.509227 +0200,
12.5,ecc0,mid,46,0,46,j,0,2.0719759999992675,None,0,1,1,1,46,0,46,0,522.5702361000003,,,,,,,,,,,,,,,522.5662340999988,522.5702361000003,523.5047811000004,522.5702361000003,522.5702361000003,524.6553067999994,j,0,2.0719759999992675,None,left,17,"[19, 20, 19, 20, 15, 16, 15, 17, 13, 17, 16, 17, 15, 16, 15, 16, 14, 15, 13, 20, 18, 19, 17]",23,gaze_L_17.png,j,0,2,results20,001,2026-04-14_14h42.49.253,mogelijke versie adaptive staircase builder,,2026.1.3,60.04112817317942,2026-04-14 14h42.49.509227 +0200,
12.5,ecc0,mid,47,0,47,f,1,2.408320400001685,None,0,1,1,1,47,0,47,0,524.7378724000009,,,,,,,,,,,,,,,524.7339517,524.7378724000009,525.6718456000017,524.7378724000009,524.7378724000009,527.1548275999994,f,1,2.408320400001685,None,right,18,"[19, 20, 19, 20, 15, 16, 15, 17, 13, 17, 16, 17, 15, 16, 15, 16, 14, 15, 13, 20, 18, 19, 17, 18]",24,gaze_R_18.png,f,1,2,results20,001,2026-04-14_14h42.49.253,mogelijke versie adaptive staircase builder,,2026.1.3,60.04112817317942,2026-04-14 14h42.49.509227 +0200,
12.5,ecc0,mid,48,0,48,j,1,2.87696440000218,None,0,1,1,1,48,0,48,0,527.237653799999,,,,,,,,,,,,,,,527.2336436000005,527.237653799999,528.1546342000001,527.237653799999,527.237653799999,530.1219339000017,j,1,2.87696440000218,None,direct,17,"[19, 20, 19, 20, 15, 16, 15, 17, 13, 17, 16, 17, 15, 16, 15, 16, 14, 15, 13, 20, 18, 19, 17, 18]",24,direct_gaze.png,j,1,2,results20,001,2026-04-14_14h42.49.253,mogelijke versie adaptive staircase builder,,2026.1.3,60.04112817317942,2026-04-14 14h42.49.509227 +0200,
12.5,ecc0,mid,49,0,49,j,0,1.775161500001559,None,0,1,1,1,49,0,49,0,530.2031571000007,,,,,,,,,,,,,,,530.1989573999999,530.2031571000007,531.1378723000016,530.2031571000007,530.2031571000007,531.9883584000017,j,0,1.775161500001559,None,right,16,"[19, 20, 19, 20, 15, 16, 15, 17, 13, 17, 16, 17, 15, 16, 15, 16, 14, 15, 13, 20, 18, 19, 17, 18, 16]",25,gaze_R_16.png,j,0,2,results20,001,2026-04-14_14h42.49.253,mogelijke versie adaptive staircase builder,,2026.1.3,60.04112817317942,2026-04-14 14h42.49.509227 +0200,
12.5,ecc0,mid,50,0,50,f,1,1.7407736999994086,None,0,1,1,1,50,0,50,0,532.069469500002,,,,,,,,,,,,,,,532.0654520999997,532.069469500002,533.0048573000022,532.069469500002,532.069469500002,533.8213776000011,f,1,1.7407736999994086,None,left,17,"[19, 20, 19, 20, 15, 16, 15, 17, 13, 17, 16, 17, 15, 16, 15, 16, 14, 15, 13, 20, 18, 19, 17, 18, 16, 17]",26,gaze_L_17.png,f,1,2,results20,001,2026-04-14_14h42.49.253,mogelijke versie adaptive staircase builder,,2026.1.3,60.04112817317942,2026-04-14 14h42.49.509227 +0200,
12.5,ecc0,mid,51,0,51,f,1,1.7956650000014633,None,0,1,1,1,51,0,51,0,533.9025698000005,,,,,,,,,,,,,,,533.8986428999997,533.9025698000005,534.8213944999989,533.9025698000005,533.9025698000005,535.7047282999993,f,1,1.7956650000014633,None,right,16,"[19, 20, 19, 20, 15, 16, 15, 17, 13, 17, 16, 17, 15, 16, 15, 16, 14, 15, 13, 20, 18, 19, 17, 18, 16, 17]",26,gaze_R_16.png,f,1,2,results20,001,2026-04-14_14h42.49.253,mogelijke versie adaptive staircase builder,,2026.1.3,60.04112817317942,2026-04-14 14h42.49.509227 +0200,
12.5,ecc0,mid,52,0,52,j,0,2.5413549000004423,None,0,1,1,1,52,0,52,0,535.7889006000005,,,,,,,,,,,,,,,535.7851044000017,535.7889006000005,536.704602400001,535.7889006000005,535.7889006000005,538.3380064000012,j,0,2.5413549000004423,None,left,15,"[19, 20, 19, 20, 15, 16, 15, 17, 13, 17, 16, 17, 15, 16, 15, 16, 14, 15, 13, 20, 18, 19, 17, 18, 16, 17, 15]",27,gaze_L_15.png,j,0,2,results20,001,2026-04-14_14h42.49.253,mogelijke versie adaptive staircase builder,,2026.1.3,60.04112817317942,2026-04-14 14h42.49.509227 +0200,
12.5,ecc0,mid,53,0,53,f,0,2.0622385000024224,None,0,1,1,1,53,0,53,0,538.4203721000013,,,,,,,,,,,,,,,538.4164932000022,538.4203721000013,539.338291600001,538.4203721000013,538.4203721000013,540.4885638000014,f,0,2.0622385000024224,None,direct,16,"[19, 20, 19, 20, 15, 16, 15, 17, 13, 17, 16, 17, 15, 16, 15, 16, 14, 15, 13, 20, 18, 19, 17, 18, 16, 17, 15]",27,direct_gaze.png,f,0,2,results20,001,2026-04-14_14h42.49.253,mogelijke versie adaptive staircase builder,,2026.1.3,60.04112817317942,2026-04-14 14h42.49.509227 +0200,
12.5,ecc0,mid,54,0,54,j,0,2.85536090000096,None,0,1,1,1,54,0,54,0,540.5710878999998,,,,,,,,,,,,,,,540.5670051000016,540.5710878999998,541.4883416000011,540.5710878999998,540.5710878999998,543.4384716999994,j,0,2.85536090000096,None,right,17,"[19, 20, 19, 20, 15, 16, 15, 17, 13, 17, 16, 17, 15, 16, 15, 16, 14, 15, 13, 20, 18, 19, 17, 18, 16, 17, 15]",27,gaze_R_17.png,j,0,2,results20,001,2026-04-14_14h42.49.253,mogelijke versie adaptive staircase builder,,2026.1.3,60.04112817317942,2026-04-14 14h42.49.509227 +0200,
12.5,ecc0,mid,55,0,55,f,1,1.4962116999995487,None,0,1,1,1,55,0,55,0,543.5219590000015,,,,,,,,,,,,,,,543.5179807000022,543.5219590000015,544.4379369999988,543.5219590000015,543.5219590000015,545.0213774000003,f,1,1.4962116999995487,None,left,18,"[19, 20, 19, 20, 15, 16, 15, 17, 13, 17, 16, 17, 15, 16, 15, 16, 14, 15, 13, 20, 18, 19, 17, 18, 16, 17, 15, 18]",28,gaze_L_18.png,f,1,2,results20,001,2026-04-14_14h42.49.253,mogelijke versie adaptive staircase builder,,2026.1.3,60.04112817317942,2026-04-14 14h42.49.509227 +0200,
12.5,ecc0,mid,56,0,56,f,1,1.939373599998362,None,0,1,1,1,56,0,56,0,545.103253199999,,,,,,,,,,,,,,,545.0989087000016,545.103253199999,546.0215974999992,545.103253199999,545.103253199999,547.0550642999988,f,1,1.939373599998362,None,right,17,"[19, 20, 19, 20, 15, 16, 15, 17, 13, 17, 16, 17, 15, 16, 15, 16, 14, 15, 13, 20, 18, 19, 17, 18, 16, 17, 15, 18]",28,gaze_R_17.png,f,1,2,results20,001,2026-04-14_14h42.49.253,mogelijke versie adaptive staircase builder,,2026.1.3,60.04112817317942,2026-04-14 14h42.49.509227 +0200,
12.5,ecc0,mid,57,0,57,j,1,1.5205668000016885,None,0,1,1,1,57,0,57,0,547.1377797999994,,,,,,,,,,,,,,,547.1337970999994,547.1377797999994,548.054752,547.1377797999994,547.1377797999994,548.6713975999992,j,1,1.5205668000016885,None,direct,16,"[19, 20, 19, 20, 15, 16, 15, 17, 13, 17, 16, 17, 15, 16, 15, 16, 14, 15, 13, 20, 18, 19, 17, 18, 16, 17, 15, 18]",28,direct_gaze.png,j,1,2,results20,001,2026-04-14_14h42.49.253,mogelijke versie adaptive staircase builder,,2026.1.3,60.04112817317942,2026-04-14 14h42.49.509227 +0200,
12.5,ecc0,mid,58,0,58,j,1,1.711456499997439,None,0,1,1,1,58,0,58,0,548.7551529000011,,,,,,,,,,,,,,,548.7512702000022,548.7551529000011,549.6716129000015,548.7551529000011,548.7551529000011,550.4717923999997,j,1,1.711456499997439,None,direct,15,"[19, 20, 19, 20, 15, 16, 15, 17, 13, 17, 16, 17, 15, 16, 15, 16, 14, 15, 13, 20, 18, 19, 17, 18, 16, 17, 15, 18]",28,direct_gaze.png,j,1,2,results20,001,2026-04-14_14h42.49.253,mogelijke versie adaptive staircase builder,,2026.1.3,60.04112817317942,2026-04-14 14h42.49.509227 +0200,
12.5,ecc0,mid,59,0,59,f,0,1.9111364000018511,None,0,1,1,1,59,0,59,0,550.5551314000004,,,,,,,,,,,,,,,550.5512206000021,550.5551314000004,551.4716361999999,550.5551314000004,550.5551314000004,552.4714305000016,f,0,1.9111364000018511,None,direct,14,"[19, 20, 19, 20, 15, 16, 15, 17, 13, 17, 16, 17, 15, 16, 15, 16, 14, 15, 13, 20, 18, 19, 17, 18, 16, 17, 15, 18, 14]",29,direct_gaze.png,f,0,2,results20,001,2026-04-14_14h42.49.253,mogelijke versie adaptive staircase builder,,2026.1.3,60.04112817317942,2026-04-14 14h42.49.509227 +0200,
12.5,ecc0,mid,1,1,0,,,,,0,1,1,1,,,,,,,,,,,,,,,,,,,,,,,,,,,,,,,,,,,,,,results20,001,2026-04-14_14h42.49.253,mogelijke versie adaptive staircase builder,,2026.1.3,60.04112817317942,2026-04-14 14h42.49.509227 +0200,
20.5,ecc10neg,right,0,0,0,f,1,5.248294799999712,None,0,2,2,2,0,0,0,0,552.5779403000015,,,,,,,,,,,,,552.4738725999996,552.4739026999996,552.5670256000012,552.5779403000015,552.5779403000015,553.4883880000016,552.5779403000015,557.838082000002,f,1,5.248294799999712,None,right,20,[],0,shiftedgaze_R_20.png,f,1,3,results20,001,2026-04-14_14h42.49.253,mogelijke versie adaptive staircase builder,,2026.1.3,60.04112817317942,2026-04-14 14h42.49.509227 +0200,
20.5,ecc10neg,right,1,0,1,j,0,1.991641399999935,None,0,2,2,2,1,0,1,0,557.9305526999997,,,,,,,,,,,,,,,557.9193335999989,557.9305526999997,557.9305526999997,558.8380701000024,557.9305526999997,559.9386441999995,j,0,1.991641399999935,None,left,19,[19],1,shiftedgaze_L_19.png,j,0,3,results20,001,2026-04-14_14h42.49.253,mogelijke versie adaptive staircase builder,,2026.1.3,60.04112817317942,2026-04-14 14h42.49.509227 +0200,
20.5,ecc10neg,right,2,0,2,j,1,2.1610583000001498,None,0,2,2,2,2,0,2,0,560.0257153999992,,,,,,,,,,,,,,,560.0212986000006,560.0257153999992,560.0257153999992,560.9383511000015,560.0257153999992,562.1885423999993,j,1,2.1610583000001498,None,direct,20,"[19, 20]",2,shifteddirectgaze.png,j,1,3,results20,001,2026-04-14_14h42.49.253,mogelijke versie adaptive staircase builder,,2026.1.3,60.04112817317942,2026-04-14 14h42.49.509227 +0200,
20.5,ecc10neg,right,3,0,3,j,1,1.6868622999973013,None,0,2,2,2,3,0,3,0,562.2757646999999,,,,,,,,,,,,,,,562.2709438999991,562.2757646999999,562.2757646999999,563.2044663000015,562.2757646999999,563.9717762,j,1,1.6868622999973013,None,direct,19,"[19, 20]",2,shifteddirectgaze.png,j,1,3,results20,001,2026-04-14_14h42.49.253,mogelijke versie adaptive staircase builder,,2026.1.3,60.04112817317942,2026-04-14 14h42.49.509227 +0200,
20.5,ecc10neg,right,4,0,4,f,1,1.9497024000011152,None,0,2,2,2,4,0,4,0,564.0689979999988,,,,,,,,,,,,,,,564.0593918000013,564.0689979999988,564.0689979999988,564.9717034000023,564.0689979999988,566.0219529000024,f,1,1.9497024000011152,None,right,18,"[19, 20]",2,shiftedgaze_R_18.png,f,1,3,results20,001,2026-04-14_14h42.49.253,mogelijke versie adaptive staircase builder,,2026.1.3,60.04112817317942,2026-04-14 14h42.49.509227 +0200,
20.5,ecc10neg,right,5,0,5,f,1,1.7794508000006317,None,0,2,2,2,5,0,5,0,566.1267060999999,,,,,,,,,,,,,,,566.1157029999995,566.1267060999999,566.1267060999999,567.0214029999988,566.1267060999999,567.9212721000004,f,1,1.7794508000006317,None,left,17,"[19, 20]",2,shiftedgaze_L_17.png,f,1,3,results20,001,2026-04-14_14h42.49.253,mogelijke versie adaptive staircase builder,,2026.1.3,60.04112817317942,2026-04-14 14h42.49.509227 +0200,
20.5,ecc10neg,right,6,0,6,j,1,1.4952994999985094,None,0,2,2,2,6,0,6,0,568.0034830000004,,,,,,,,,,,,,,,567.9991445000014,568.0034830000004,568.0034830000004,568.9212325000008,568.0034830000004,569.504963899999,j,1,1.4952994999985094,None,direct,16,"[19, 20]",2,shifteddirectgaze.png,j,1,3,results20,001,2026-04-14_14h42.49.253,mogelijke versie adaptive staircase builder,,2026.1.3,60.04112817317942,2026-04-14 14h42.49.509227 +0200,
20.5,ecc10neg,right,7,0,7,j,1,2.54298469999776,None,0,2,2,2,7,0,7,0,569.5872600000002,,,,,,,,,,,,,,,569.5832886999997,569.5872600000002,569.5872600000002,570.5049752000014,569.5872600000002,572.1379382000014,j,1,2.54298469999776,None,direct,15,"[19, 20]",2,shifteddirectgaze.png,j,1,3,results20,001,2026-04-14_14h42.49.253,mogelijke versie adaptive staircase builder,,2026.1.3,60.04112817317942,2026-04-14 14h42.49.509227 +0200,
20.5,ecc10neg,right,8,0,8,j,0,1.9242604999999458,None,0,2,2,2,8,0,8,0,572.2223640000011,,,,,,,,,,,,,,,572.2181509000002,572.2223640000011,572.2223640000011,573.1380653000015,572.2223640000011,574.1553155000001,j,0,1.9242604999999458,None,left,14,"[19, 20, 14]",3,shiftedgaze_L_14.png,j,0,3,results20,001,2026-04-14_14h42.49.253,mogelijke versie adaptive staircase builder,,2026.1.3,60.04112817317942,2026-04-14 14h42.49.509227 +0200,
20.5,ecc10neg,right,9,0,9,j,1,2.7799219000007724,None,0,2,2,2,9,0,9,0,574.2385140000006,,,,,,,,,,,,,,,574.2343115000003,574.2385140000006,574.2385140000006,575.1550167000023,574.2385140000006,577.0215525999993,j,1,2.7799219000007724,None,direct,15,"[19, 20, 14, 15]",4,shifteddirectgaze.png,j,1,3,results20,001,2026-04-14_14h42.49.253,mogelijke versie adaptive staircase builder,,2026.1.3,60.04112817317942,2026-04-14 14h42.49.509227 +0200,
20.5,ecc10neg,right,10,0,10,f,1,2.0425622000002477,None,0,2,2,2,10,0,10,0,577.1038413000024,,,,,,,,,,,,,,,577.0998424999998,577.1038413000024,577.1038413000024,578.0216255000014,577.1038413000024,579.1549142000003,f,1,2.0425622000002477,None,left,14,"[19, 20, 14, 15]",4,shiftedgaze_L_14.png,f,1,3,results20,001,2026-04-14_14h42.49.253,mogelijke versie adaptive staircase builder,,2026.1.3,60.04112817317942,2026-04-14 14h42.49.509227 +0200,
20.5,ecc10neg,right,11,0,11,f,1,2.774603899997601,None,0,2,2,2,11,0,11,0,579.2355723000001,,,,,,,,,,,,,,,579.2315921000009,579.2355723000001,579.2355723000001,580.1550010999999,579.2355723000001,582.0213678,f,1,2.774603899997601,None,left,13,"[19, 20, 14, 15]",4,shiftedgaze_L_13.png,f,1,3,results20,001,2026-04-14_14h42.49.253,mogelijke versie adaptive staircase builder,,2026.1.3,60.04112817317942,2026-04-14 14h42.49.509227 +0200,
20.5,ecc10neg,right,12,0,12,j,0,3.193578399997932,None,0,2,2,2,12,0,12,0,582.1285680000001,,,,,,,,,,,,,,,582.1182485999998,582.1285680000001,582.1285680000001,583.0217331000022,582.1285680000001,585.3385939,j,0,3.193578399997932,None,right,12,"[19, 20, 14, 15, 12]",5,shiftedgaze_R_12.png,j,0,3,results20,001,2026-04-14_14h42.49.253,mogelijke versie adaptive staircase builder,,2026.1.3,60.04112817317942,2026-04-14 14h42.49.509227 +0200,
20.5,ecc10neg,right,13,0,13,f,1,1.7959496999974363,None,0,2,2,2,13,0,13,0,585.4306462999994,,,,,,,,,,,,,,,585.4213555999995,585.4306462999994,585.4306462999994,586.3551313999997,585.4306462999994,587.2382435,f,1,1.7959496999974363,None,right,13,"[19, 20, 14, 15, 12, 13]",6,shiftedgaze_R_13.png,f,1,3,results20,001,2026-04-14_14h42.49.253,mogelijke versie adaptive staircase builder,,2026.1.3,60.04112817317942,2026-04-14 14h42.49.509227 +0200,
20.5,ecc10neg,right,14,0,14,f,0,1.912298200000805,None,0,2,2,2,14,0,14,0,587.3222070000011,,,,,,,,,,,,,,,587.317998999999,587.3222070000011,587.3222070000011,588.2383582000002,587.3222070000011,589.2387268999992,f,0,1.912298200000805,None,direct,12,"[19, 20, 14, 15, 12, 13, 12]",7,shifteddirectgaze.png,f,0,3,results20,001,2026-04-14_14h42.49.253,mogelijke versie adaptive staircase builder,,2026.1.3,60.04112817317942,2026-04-14 14h42.49.509227 +0200,
20.5,ecc10neg,right,15,0,15,j,0,1.5824781000010262,None,0,2,2,2,15,0,15,0,589.3236206000001,,,,,,,,,,,,,,,589.3194217000018,589.3236206000001,589.3236206000001,590.2545643000012,589.3236206000001,590.9220332000004,j,0,1.5824781000010262,None,left,13,"[19, 20, 14, 15, 12, 13, 12]",7,shiftedgaze_L_13.png,j,0,3,results20,001,2026-04-14_14h42.49.253,mogelijke versie adaptive staircase builder,,2026.1.3,60.04112817317942,2026-04-14 14h42.49.509227 +0200,
20.5,ecc10neg,right,16,0,16,f,0,1.7391419000014139,None,0,2,2,2,16,0,16,0,591.0069643999996,,,,,,,,,,,,,,,591.0028139000024,591.0069643999996,591.0069643999996,591.9213645000018,591.0069643999996,592.7546686999995,f,0,1.7391419000014139,None,direct,14,"[19, 20, 14, 15, 12, 13, 12]",7,shifteddirectgaze.png,f,0,3,results20,001,2026-04-14_14h42.49.253,mogelijke versie adaptive staircase builder,,2026.1.3,60.04112817317942,2026-04-14 14h42.49.509227 +0200,
20.5,ecc10neg,right,17,0,17,j,0,1.4928412000008393,None,0,2,2,2,17,0,17,0,592.8373265000009,,,,,,,,,,,,,,,592.8332375999998,592.8373265000009,592.8373265000009,593.7547046,592.8373265000009,594.3380342000019,j,0,1.4928412000008393,None,left,15,"[19, 20, 14, 15, 12, 13, 12]",7,shiftedgaze_L_15.png,j,0,3,results20,001,2026-04-14_14h42.49.253,mogelijke versie adaptive staircase builder,,2026.1.3,60.04112817317942,2026-04-14 14h42.49.509227 +0200,
20.5,ecc10neg,right,18,0,18,j,0,2.581046700001025,None,0,2,2,2,18,0,18,0,594.4213830000008,,,,,,,,,,,,,,,594.4171788999993,594.4213830000008,594.4213830000008,595.3379719000004,594.4213830000008,597.0048506999992,j,0,2.581046700001025,None,left,16,"[19, 20, 14, 15, 12, 13, 12]",7,shiftedgaze_L_16.png,j,0,3,results20,001,2026-04-14_14h42.49.253,mogelijke versie adaptive staircase builder,,2026.1.3,60.04112817317942,2026-04-14 14h42.49.509227 +0200,
20.5,ecc10neg,right,19,0,19,f,1,2.164213000000018,None,0,2,2,2,19,0,19,0,597.1103260000018,,,,,,,,,,,,,,,597.0996139999988,597.1103260000018,597.1103260000018,598.0047075000002,597.1103260000018,599.2888521999994,f,1,2.164213000000018,None,right,17,"[19, 20, 14, 15, 12, 13, 12, 17]",8,shiftedgaze_R_17.png,f,1,3,results20,001,2026-04-14_14h42.49.253,mogelijke versie adaptive staircase builder,,2026.1.3,60.04112817317942,2026-04-14 14h42.49.509227 +0200,
20.5,ecc10neg,right,20,0,20,f,0,2.222564499999862,None,0,2,2,2,20,0,20,0,599.3796197000011,,,,,,,,,,,,,,,599.369475800002,599.3796197000011,599.3796197000011,600.3046241000011,599.3796197000011,601.6048470999995,f,0,2.222564499999862,None,direct,16,"[19, 20, 14, 15, 12, 13, 12, 17, 16]",9,shifteddirectgaze.png,f,0,3,results20,001,2026-04-14_14h42.49.253,mogelijke versie adaptive staircase builder,,2026.1.3,60.04112817317942,2026-04-14 14h42.49.509227 +0200,
20.5,ecc10neg,right,21,0,21,j,0,1.637873600000603,None,0,2,2,2,21,0,21,0,601.7002300000022,,,,,,,,,,,,,,,601.6961045999997,601.7002300000022,601.7002300000022,602.604795700001,601.7002300000022,603.3383992999989,j,0,1.637873600000603,None,left,17,"[19, 20, 14, 15, 12, 13, 12, 17, 16]",9,shiftedgaze_L_17.png,j,0,3,results20,001,2026-04-14_14h42.49.253,mogelijke versie adaptive staircase builder,,2026.1.3,60.04112817317942,2026-04-14 14h42.49.509227 +0200,
20.5,ecc10neg,right,22,0,22,j,0,1.8333269000031578,None,0,2,2,2,22,0,22,0,603.4248556999992,,,,,,,,,,,,,,,603.4197827999997,603.4248556999992,603.4248556999992,604.338425599999,603.4248556999992,605.2714908999988,j,0,1.8333269000031578,None,left,18,"[19, 20, 14, 15, 12, 13, 12, 17, 16]",9,shiftedgaze_L_18.png,j,0,3,results20,001,2026-04-14_14h42.49.253,mogelijke versie adaptive staircase builder,,2026.1.3,60.04112817317942,2026-04-14 14h42.49.509227 +0200,
20.5,ecc10neg,right,23,0,23,f,0,2.0372290999985125,None,0,2,2,2,23,0,23,0,605.3573025000005,,,,,,,,,,,,,,,605.3533246000006,605.3573025000005,605.3573025000005,606.2716449,605.3573025000005,607.4051918000005,f,0,2.0372290999985125,None,direct,19,"[19, 20, 14, 15, 12, 13, 12, 17, 16]",9,shifteddirectgaze.png,f,0,3,results20,001,2026-04-14_14h42.49.253,mogelijke versie adaptive staircase builder,,2026.1.3,60.04112817317942,2026-04-14 14h42.49.509227 +0200,
20.5,ecc10neg,right,24,0,24,f,0,1.5041149999997288,None,0,2,2,2,24,0,24,0,607.4900454999988,,,,,,,,,,,,,,,607.485979699999,607.4900454999988,607.4900454999988,608.4048264000012,607.4900454999988,609.0051316999998,f,0,1.5041149999997288,None,direct,20,"[19, 20, 14, 15, 12, 13, 12, 17, 16]",9,shifteddirectgaze.png,f,0,3,results20,001,2026-04-14_14h42.49.253,mogelijke versie adaptive staircase builder,,2026.1.3,60.04112817317942,2026-04-14 14h42.49.509227 +0200,
20.5,ecc10neg,right,25,0,25,f,0,1.681603000000905,None,0,2,2,2,25,0,25,0,609.0888618999998,,,,,,,,,,,,,,,609.0847938000006,609.0888618999998,609.0888618999998,610.0046433999996,609.0888618999998,610.7723031999994,f,0,1.681603000000905,None,direct,20,"[19, 20, 14, 15, 12, 13, 12, 17, 16]",9,shifteddirectgaze.png,f,0,3,results20,001,2026-04-14_14h42.49.253,mogelijke versie adaptive staircase builder,,2026.1.3,60.04112817317942,2026-04-14 14h42.49.509227 +0200,
20.5,ecc10neg,right,26,0,26,j,0,2.129371999999421,None,0,2,2,2,26,0,26,0,610.8568154999994,,,,,,,,,,,,,,,610.8527949999989,610.8568154999994,610.8568154999994,611.7879702999999,610.8568154999994,612.9877602000015,j,0,2.129371999999421,None,left,20,"[19, 20, 14, 15, 12, 13, 12, 17, 16]",9,shiftedgaze_L_20.png,j,0,3,results20,001,2026-04-14_14h42.49.253,mogelijke versie adaptive staircase builder,,2026.1.3,60.04112817317942,2026-04-14 14h42.49.509227 +0200,
20.5,ecc10neg,right,27,0,27,f,1,1.5866290000012668,None,0,2,2,2,27,0,27,0,613.0879167999992,,,,,,,,,,,,,,,613.0787528000001,613.0879167999992,613.0879167999992,613.9881781000004,613.0879167999992,614.6887792000016,f,1,1.5866290000012668,None,right,20,"[19, 20, 14, 15, 12, 13, 12, 17, 16, 20]",10,shiftedgaze_R_20.png,f,1,3,results20,001,2026-04-14_14h42.49.253,mogelijke versie adaptive staircase builder,,2026.1.3,60.04112817317942,2026-04-14 14h42.49.509227 +0200,
20.5,ecc10neg,right,28,0,28,j,0,1.9550428000002285,None,0,2,2,2,28,0,28,0,614.7830701000021,,,,,,,,,,,,,,,614.7729779000001,614.7830701000021,614.7830701000021,615.6880359999996,614.7830701000021,616.7383983,j,0,1.9550428000002285,None,left,19,"[19, 20, 14, 15, 12, 13, 12, 17, 16, 20, 19]",11,shiftedgaze_L_19.png,j,0,3,results20,001,2026-04-14_14h42.49.253,mogelijke versie adaptive staircase builder,,2026.1.3,60.04112817317942,2026-04-14 14h42.49.509227 +0200,
20.5,ecc10neg,right,29,0,29,f,1,2.438767600000574,None,0,2,2,2,29,0,29,0,616.835827400002,,,,,,,,,,,,,,,616.8261044999999,616.835827400002,616.835827400002,617.7381353000019,616.835827400002,619.2885371000011,f,1,2.438767600000574,None,right,20,"[19, 20, 14, 15, 12, 13, 12, 17, 16, 20, 19, 20]",12,shiftedgaze_R_20.png,f,1,3,results20,001,2026-04-14_14h42.49.253,mogelijke versie adaptive staircase builder,,2026.1.3,60.04112817317942,2026-04-14 14h42.49.509227 +0200,
20.5,ecc10neg,right,30,0,30,f,1,1.9885113999989699,None,0,2,2,2,30,0,30,0,619.3819576000024,,,,,,,,,,,,,,,619.3718774000008,619.3819576000024,619.3819576000024,620.2879627000002,619.3819576000024,621.3722978000005,f,1,1.9885113999989699,None,left,19,"[19, 20, 14, 15, 12, 13, 12, 17, 16, 20, 19, 20]",12,shiftedgaze_L_19.png,f,1,3,results20,001,2026-04-14_14h42.49.253,mogelijke versie adaptive staircase builder,,2026.1.3,60.04112817317942,2026-04-14 14h42.49.509227 +0200,
20.5,ecc10neg,right,31,0,31,f,1,1.6897391999991669,None,0,2,2,2,31,0,31,0,621.4723264999993,,,,,,,,,,,,,,,621.4627924000015,621.4723264999993,621.4723264999993,622.3881954999997,621.4723264999993,623.1714878000021,f,1,1.6897391999991669,None,right,18,"[19, 20, 14, 15, 12, 13, 12, 17, 16, 20, 19, 20]",12,shiftedgaze_R_18.png,f,1,3,results20,001,2026-04-14_14h42.49.253,mogelijke versie adaptive staircase builder,,2026.1.3,60.04112817317942,2026-04-14 14h42.49.509227 +0200,
20.5,ecc10neg,right,32,0,32,f,1,1.6908423000022594,None,0,2,2,2,32,0,32,0,623.2633768000014,,,,,,,,,,,,,,,623.2592622000011,623.2633768000014,623.2633768000014,624.1717535999996,623.2633768000014,624.954763400001,f,1,1.6908423000022594,None,right,17,"[19, 20, 14, 15, 12, 13, 12, 17, 16, 20, 19, 20]",12,shiftedgaze_R_17.png,f,1,3,results20,001,2026-04-14_14h42.49.253,mogelijke versie adaptive staircase builder,,2026.1.3,60.04112817317942,2026-04-14 14h42.49.509227 +0200,
20.5,ecc10neg,right,33,0,33,f,1,1.779237999999168,None,0,2,2,2,33,0,33,0,625.046961,,,,,,,,,,,,,,,625.0427286000013,625.046961,625.046961,625.9546708000016,625.046961,626.8381528999998,f,1,1.779237999999168,None,right,16,"[19, 20, 14, 15, 12, 13, 12, 17, 16, 20, 19, 20]",12,shiftedgaze_R_16.png,f,1,3,results20,001,2026-04-14_14h42.49.253,mogelijke versie adaptive staircase builder,,2026.1.3,60.04112817317942,2026-04-14 14h42.49.509227 +0200,
20.5,ecc10neg,right,34,0,34,j,1,1.7644810999991023,None,0,2,2,2,34,0,34,0,626.933695300002,,,,,,,,,,,,,,,626.9237565000003,626.933695300002,626.933695300002,627.8379873000013,626.933695300002,628.7047910000001,j,1,1.7644810999991023,None,direct,15,"[19, 20, 14, 15, 12, 13, 12, 17, 16, 20, 19, 20]",12,shifteddirectgaze.png,j,1,3,results20,001,2026-04-14_14h42.49.253,mogelijke versie adaptive staircase builder,,2026.1.3,60.04112817317942,2026-04-14 14h42.49.509227 +0200,
20.5,ecc10neg,right,35,0,35,j,0,1.8514975999969465,None,0,2,2,2,35,0,35,0,628.7910612000014,,,,,,,,,,,,,,,628.7871118000003,628.7910612000014,628.7910612000014,629.7051448999991,628.7910612000014,630.6554619000017,j,0,1.8514975999969465,None,left,14,"[19, 20, 14, 15, 12, 13, 12, 17, 16, 20, 19, 20, 14]",13,shiftedgaze_L_14.png,j,0,3,results20,001,2026-04-14_14h42.49.253,mogelijke versie adaptive staircase builder,,2026.1.3,60.04112817317942,2026-04-14 14h42.49.509227 +0200,
20.5,ecc10neg,right,36,0,36,f,1,1.6619472999991558,None,0,2,2,2,36,0,36,0,630.7402340000008,,,,,,,,,,,,,,,630.735641700001,630.7402340000008,630.7402340000008,631.6712549000003,630.7402340000008,632.4047801000015,f,1,1.6619472999991558,None,right,15,"[19, 20, 14, 15, 12, 13, 12, 17, 16, 20, 19, 20, 14, 15]",14,shiftedgaze_R_15.png,f,1,3,results20,001,2026-04-14_14h42.49.253,mogelijke versie adaptive staircase builder,,2026.1.3,60.04112817317942,2026-04-14 14h42.49.509227 +0200,
20.5,ecc10neg,right,37,0,37,f,1,1.922777200001292,None,0,2,2,2,37,0,37,0,632.487634699999,,,,,,,,,,,,,,,632.4836436000005,632.487634699999,632.487634699999,633.4045925999999,632.487634699999,634.4220917999992,f,1,1.922777200001292,None,right,14,"[19, 20, 14, 15, 12, 13, 12, 17, 16, 20, 19, 20, 14, 15]",14,shiftedgaze_R_14.png,f,1,3,results20,001,2026-04-14_14h42.49.253,mogelijke versie adaptive staircase builder,,2026.1.3,60.04112817317942,2026-04-14 14h42.49.509227 +0200,
20.5,ecc10neg,right,38,0,38,j,0,1.8092843999984325,None,0,2,2,2,38,0,38,0,634.5052653999992,,,,,,,,,,,,,,,634.501271699999,634.5052653999992,634.5052653999992,635.4217609000007,634.5052653999992,636.3220743999991,j,0,1.8092843999984325,None,left,13,"[19, 20, 14, 15, 12, 13, 12, 17, 16, 20, 19, 20, 14, 15, 13]",15,shiftedgaze_L_13.png,j,0,3,results20,001,2026-04-14_14h42.49.253,mogelijke versie adaptive staircase builder,,2026.1.3,60.04112817317942,2026-04-14 14h42.49.509227 +0200,
20.5,ecc10neg,right,39,0,39,f,1,1.9091040000021167,None,0,2,2,2,39,0,39,0,636.4051188000012,,,,,,,,,,,,,,,636.4010563000011,636.4051188000012,636.4051188000012,637.3217403000017,636.4051188000012,638.3214941000006,f,1,1.9091040000021167,None,right,14,"[19, 20, 14, 15, 12, 13, 12, 17, 16, 20, 19, 20, 14, 15, 13, 14]",16,shiftedgaze_R_14.png,f,1,3,results20,001,2026-04-14_14h42.49.253,mogelijke versie adaptive staircase builder,,2026.1.3,60.04112817317942,2026-04-14 14h42.49.509227 +0200,
20.5,ecc10neg,right,40,0,40,f,0,1.5664756000005582,None,0,2,2,2,40,0,40,0,638.403766200001,,,,,,,,,,,,,,,638.3996640000005,638.403766200001,638.403766200001,639.3212878000013,638.403766200001,639.9718004999995,f,0,1.5664756000005582,None,direct,13,"[19, 20, 14, 15, 12, 13, 12, 17, 16, 20, 19, 20, 14, 15, 13, 14, 13]",17,shifteddirectgaze.png,f,0,3,results20,001,2026-04-14_14h42.49.253,mogelijke versie adaptive staircase builder,,2026.1.3,60.04112817317942,2026-04-14 14h42.49.509227 +0200,
20.5,ecc10neg,right,41,0,41,f,1,1.7950063999996928,None,0,2,2,2,41,0,41,0,640.0551823999995,,,,,,,,,,,,,,,640.0510228000021,640.0551823999995,640.0551823999995,640.9713257000003,640.0551823999995,641.8548011000021,f,1,1.7950063999996928,None,right,14,"[19, 20, 14, 15, 12, 13, 12, 17, 16, 20, 19, 20, 14, 15, 13, 14, 13, 14]",18,shiftedgaze_R_14.png,f,1,3,results20,001,2026-04-14_14h42.49.253,mogelijke versie adaptive staircase builder,,2026.1.3,60.04112817317942,2026-04-14 14h42.49.509227 +0200,
20.5,ecc10neg,right,42,0,42,j,0,2.088939900000696,None,0,2,2,2,42,0,42,0,641.9371701000018,,,,,,,,,,,,,,,641.9332825999991,641.9371701000018,641.9371701000018,642.854682600002,641.9371701000018,644.0381364000023,j,0,2.088939900000696,None,left,13,"[19, 20, 14, 15, 12, 13, 12, 17, 16, 20, 19, 20, 14, 15, 13, 14, 13, 14, 13]",19,shiftedgaze_L_13.png,j,0,3,results20,001,2026-04-14_14h42.49.253,mogelijke versie adaptive staircase builder,,2026.1.3,60.04112817317942,2026-04-14 14h42.49.509227 +0200,
20.5,ecc10neg,right,43,0,43,f,1,1.737304000002041,None,0,2,2,2,43,0,43,0,644.1209123000008,,,,,,,,,,,,,,,644.1169188999993,644.1209123000008,644.1209123000008,645.0379691999988,644.1209123000008,645.871406000002,f,1,1.737304000002041,None,left,14,"[19, 20, 14, 15, 12, 13, 12, 17, 16, 20, 19, 20, 14, 15, 13, 14, 13, 14, 13, 14]",20,shiftedgaze_L_14.png,f,1,3,results20,001,2026-04-14_14h42.49.253,mogelijke versie adaptive staircase builder,,2026.1.3,60.04112817317942,2026-04-14 14h42.49.509227 +0200,
20.5,ecc10neg,right,44,0,44,f,0,1.8137070999982825,None,0,2,2,2,44,0,44,0,645.9563043999988,,,,,,,,,,,,,,,645.9523689000016,645.9563043999988,645.9563043999988,646.8717901000018,645.9563043999988,647.771399199999,f,0,1.8137070999982825,None,direct,13,"[19, 20, 14, 15, 12, 13, 12, 17, 16, 20, 19, 20, 14, 15, 13, 14, 13, 14, 13, 14, 13]",21,shifteddirectgaze.png,f,0,3,results20,001,2026-04-14_14h42.49.253,mogelijke versie adaptive staircase builder,,2026.1.3,60.04112817317942,2026-04-14 14h42.49.509227 +0200,
20.5,ecc10neg,right,45,0,45,f,1,1.876249100001587,None,0,2,2,2,45,0,45,0,647.8539855000017,,,,,,,,,,,,,,,647.8498504999989,647.8539855000017,647.8539855000017,648.7712761000003,647.8539855000017,649.7380690999998,f,1,1.876249100001587,None,right,14,"[19, 20, 14, 15, 12, 13, 12, 17, 16, 20, 19, 20, 14, 15, 13, 14, 13, 14, 13, 14, 13, 14]",22,shiftedgaze_R_14.png,f,1,3,results20,001,2026-04-14_14h42.49.253,mogelijke versie adaptive staircase builder,,2026.1.3,60.04112817317942,2026-04-14 14h42.49.509227 +0200,
20.5,ecc10neg,right,46,0,46,j,0,1.9164825000007113,None,0,2,2,2,46,0,46,0,649.8216276000021,,,,,,,,,,,,,,,649.8171270000021,649.8216276000021,649.8216276000021,650.7381523000004,649.8216276000021,651.7549758000023,j,0,1.9164825000007113,None,left,13,"[19, 20, 14, 15, 12, 13, 12, 17, 16, 20, 19, 20, 14, 15, 13, 14, 13, 14, 13, 14, 13, 14, 13]",23,shiftedgaze_L_13.png,j,0,3,results20,001,2026-04-14_14h42.49.253,mogelijke versie adaptive staircase builder,,2026.1.3,60.04112817317942,2026-04-14 14h42.49.509227 +0200,
20.5,ecc10neg,right,47,0,47,f,0,1.7081268000001728,None,0,2,2,2,47,0,47,0,651.8382870999994,,,,,,,,,,,,,,,651.8346504000001,651.8382870999994,651.8382870999994,652.7545250000003,651.8382870999994,653.5553742000011,f,0,1.7081268000001728,None,direct,14,"[19, 20, 14, 15, 12, 13, 12, 17, 16, 20, 19, 20, 14, 15, 13, 14, 13, 14, 13, 14, 13, 14, 13]",23,shifteddirectgaze.png,f,0,3,results20,001,2026-04-14_14h42.49.253,mogelijke versie adaptive staircase builder,,2026.1.3,60.04112817317942,2026-04-14 14h42.49.509227 +0200,
20.5,ecc10neg,right,48,0,48,f,0,2.044184700000187,None,0,2,2,2,48,0,48,0,653.6379731000015,,,,,,,,,,,,,,,653.6337535999992,653.6379731000015,653.6379731000015,654.5550125000009,653.6379731000015,655.6880567000007,f,0,2.044184700000187,None,direct,15,"[19, 20, 14, 15, 12, 13, 12, 17, 16, 20, 19, 20, 14, 15, 13, 14, 13, 14, 13, 14, 13, 14, 13]",23,shifteddirectgaze.png,f,0,3,results20,001,2026-04-14_14h42.49.253,mogelijke versie adaptive staircase builder,,2026.1.3,60.04112817317942,2026-04-14 14h42.49.509227 +0200,
20.5,ecc10neg,right,49,0,49,f,1,1.9753992000005383,None,0,2,2,2,49,0,49,0,655.7708746999997,,,,,,,,,,,,,,,655.7669310000019,655.7708746999997,655.7708746999997,656.6883591000005,655.7708746999997,657.7547565000023,f,1,1.9753992000005383,None,left,16,"[19, 20, 14, 15, 12, 13, 12, 17, 16, 20, 19, 20, 14, 15, 13, 14, 13, 14, 13, 14, 13, 14, 13, 16]",24,shiftedgaze_L_16.png,f,1,3,results20,001,2026-04-14_14h42.49.253,mogelijke versie adaptive staircase builder,,2026.1.3,60.04112817317942,2026-04-14 14h42.49.509227 +0200,
20.5,ecc10neg,right,50,0,50,j,0,1.46089099999881,None,0,2,2,2,50,0,50,0,657.8375116999996,,,,,,,,,,,,,,,657.8334845999998,657.8375116999996,657.8375116999996,658.7551755999993,657.8375116999996,659.3053069000016,j,0,1.46089099999881,None,left,15,"[19, 20, 14, 15, 12, 13, 12, 17, 16, 20, 19, 20, 14, 15, 13, 14, 13, 14, 13, 14, 13, 14, 13, 16, 15]",25,shiftedgaze_L_15.png,j,0,3,results20,001,2026-04-14_14h42.49.253,mogelijke versie adaptive staircase builder,,2026.1.3,60.04112817317942,2026-04-14 14h42.49.509227 +0200,
20.5,ecc10neg,right,51,0,51,j,0,1.5084227999977884,None,0,2,2,2,51,0,51,0,659.389803500002,,,,,,,,,,,,,,,659.3858020000007,659.389803500002,659.389803500002,660.3050248,659.389803500002,660.9047124999997,j,0,1.5084227999977884,None,left,16,"[19, 20, 14, 15, 12, 13, 12, 17, 16, 20, 19, 20, 14, 15, 13, 14, 13, 14, 13, 14, 13, 14, 13, 16, 15]",25,shiftedgaze_L_16.png,j,0,3,results20,001,2026-04-14_14h42.49.253,mogelijke versie adaptive staircase builder,,2026.1.3,60.04112817317942,2026-04-14 14h42.49.509227 +0200,
20.5,ecc10neg,right,52,0,52,j,0,1.5194970999982615,None,0,2,2,2,52,0,52,0,660.9870762999999,,,,,,,,,,,,,,,660.9828799999996,660.9870762999999,660.9870762999999,661.904841800002,660.9870762999999,662.5216025000009,j,0,1.5194970999982615,None,left,17,"[19, 20, 14, 15, 12, 13, 12, 17, 16, 20, 19, 20, 14, 15, 13, 14, 13, 14, 13, 14, 13, 14, 13, 16, 15]",25,shiftedgaze_L_17.png,j,0,3,results20,001,2026-04-14_14h42.49.253,mogelijke versie adaptive staircase builder,,2026.1.3,60.04112817317942,2026-04-14 14h42.49.509227 +0200,
20.5,ecc10neg,right,53,0,53,f,1,1.523568599997816,None,0,2,2,2,53,0,53,0,662.6311117000005,,,,,,,,,,,,,,,662.6200480000007,662.6311117000005,662.6311117000005,663.5214971999994,662.6311117000005,664.1555593000012,f,1,1.523568599997816,None,right,18,"[19, 20, 14, 15, 12, 13, 12, 17, 16, 20, 19, 20, 14, 15, 13, 14, 13, 14, 13, 14, 13, 14, 13, 16, 15, 18]",26,shiftedgaze_R_18.png,f,1,3,results20,001,2026-04-14_14h42.49.253,mogelijke versie adaptive staircase builder,,2026.1.3,60.04112817317942,2026-04-14 14h42.49.509227 +0200,
20.5,ecc10neg,right,54,0,54,j,1,1.5877150000014808,None,0,2,2,2,54,0,54,0,664.2465168999988,,,,,,,,,,,,,,,664.2366757000018,664.2465168999988,664.2465168999988,665.1549985999991,664.2465168999988,665.8378740000007,j,1,1.5877150000014808,None,direct,17,"[19, 20, 14, 15, 12, 13, 12, 17, 16, 20, 19, 20, 14, 15, 13, 14, 13, 14, 13, 14, 13, 14, 13, 16, 15, 18]",26,shifteddirectgaze.png,j,1,3,results20,001,2026-04-14_14h42.49.253,mogelijke versie adaptive staircase builder,,2026.1.3,60.04112817317942,2026-04-14 14h42.49.509227 +0200,
20.5,ecc10neg,right,55,0,55,f,1,1.3219763000015519,None,0,2,2,2,55,0,55,0,665.9366111999989,,,,,,,,,,,,,,,665.9263329999994,665.9366111999989,665.9366111999989,666.838291,665.9366111999989,667.271925699999,f,1,1.3219763000015519,None,right,16,"[19, 20, 14, 15, 12, 13, 12, 17, 16, 20, 19, 20, 14, 15, 13, 14, 13, 14, 13, 14, 13, 14, 13, 16, 15, 18]",26,shiftedgaze_R_16.png,f,1,3,results20,001,2026-04-14_14h42.49.253,mogelijke versie adaptive staircase builder,,2026.1.3,60.04112817317942,2026-04-14 14h42.49.509227 +0200,
20.5,ecc10neg,right,56,0,56,j,0,1.62962300000072,None,0,2,2,2,56,0,56,0,667.3650192000023,,,,,,,,,,,,,,,667.3551504999996,667.3650192000023,667.3650192000023,668.2716791999992,667.3650192000023,669.0053391000001,j,0,1.62962300000072,None,left,15,"[19, 20, 14, 15, 12, 13, 12, 17, 16, 20, 19, 20, 14, 15, 13, 14, 13, 14, 13, 14, 13, 14, 13, 16, 15, 18, 15]",27,shiftedgaze_L_15.png,j,0,3,results20,001,2026-04-14_14h42.49.253,mogelijke versie adaptive staircase builder,,2026.1.3,60.04112817317942,2026-04-14 14h42.49.509227 +0200,
20.5,ecc10neg,right,57,0,57,f,1,1.5950819999998203,None,0,2,2,2,57,0,57,0,669.1032730000006,,,,,,,,,,,,,,,669.0932099999991,669.1032730000006,669.1032730000006,670.0047588000016,669.1032730000006,670.7053350000024,f,1,1.5950819999998203,None,right,16,"[19, 20, 14, 15, 12, 13, 12, 17, 16, 20, 19, 20, 14, 15, 13, 14, 13, 14, 13, 14, 13, 14, 13, 16, 15, 18, 15, 16]",28,shiftedgaze_R_16.png,f,1,3,results20,001,2026-04-14_14h42.49.253,mogelijke versie adaptive staircase builder,,2026.1.3,60.04112817317942,2026-04-14 14h42.49.509227 +0200,
20.5,ecc10neg,right,58,0,58,f,1,1.4291650999984995,None,0,2,2,2,58,0,58,0,670.7970705000007,,,,,,,,,,,,,,,670.7871153000015,670.7970705000007,670.7970705000007,671.7049966000013,670.7970705000007,672.238015400002,f,1,1.4291650999984995,None,left,15,"[19, 20, 14, 15, 12, 13, 12, 17, 16, 20, 19, 20, 14, 15, 13, 14, 13, 14, 13, 14, 13, 14, 13, 16, 15, 18, 15, 16]",28,shiftedgaze_L_15.png,f,1,3,results20,001,2026-04-14_14h42.49.253,mogelijke versie adaptive staircase builder,,2026.1.3,60.04112817317942,2026-04-14 14h42.49.509227 +0200,
20.5,ecc10neg,right,59,0,59,f,1,1.4386524000001373,None,0,2,2,2,59,0,59,0,672.323780900002,,,,,,,,,,,,,,,672.3198248000008,672.323780900002,672.323780900002,673.2378562000013,672.323780900002,673.7719509999988,f,1,1.4386524000001373,None,left,14,"[19, 20, 14, 15, 12, 13, 12, 17, 16, 20, 19, 20, 14, 15, 13, 14, 13, 14, 13, 14, 13, 14, 13, 16, 15, 18, 15, 16]",28,shiftedgaze_L_14.png,f,1,3,results20,001,2026-04-14_14h42.49.253,mogelijke versie adaptive staircase builder,,2026.1.3,60.04112817317942,2026-04-14 14h42.49.509227 +0200,
20.5,ecc10neg,right,2,2,0,,,,,0,2,2,2,,,,,,,,,,,,,,,,,,,,,,,,,,,,,,,,,,,,,,results20,001,2026-04-14_14h42.49.253,mogelijke versie adaptive staircase builder,,2026.1.3,60.04112817317942,2026-04-14 14h42.49.509227 +0200,
