xPos,stimulusSet,whichImage,thisN,thisTrialN,thisRepN,key_resp.keys,key_resp.corr,key_resp.rt,key_resp.duration,blocks.thisRepN,blocks.thisTrialN,blocks.thisN,blocks.thisIndex,trials.thisRepN,trials.thisTrialN,trials.thisN,trials.thisIndex,thisRow.t,notes,piloting,intro.started,introinstructions.started,intro_key.started,demo_image_left.started,demo_image_middle.started,demo_image_right.started,intro.stopped,intro_key.keys,intro_key.rt,intro_key.duration,block_start.started,block_start.stopped,trial.started,key_resp.started,middle_image.started,right_image.started,left_image.started,trial.stopped,trials.key_resp.keys,trials.key_resp.corr,trials.key_resp.rt,trials.key_resp.duration,direction,angle,reversal_intensities,number_reversals,stimulus,response,correct,blockNumber,participant,session,date,expName,expVersion,psychopyVersion,frameRate,expStart,
,,,,,,,,,,,,,,,,,,,,False,0.003391199999896344,0.08183490000010352,0.08183490000010352,0.08183490000010352,0.08183490000010352,0.08183490000010352,1164.4624470000017,space,1164.2248118999996,0.14398660000006203,,,,,,,,,,,,,,,,,,,,,results22,001,2026-04-14_15h14.25.177,mogelijke versie adaptive staircase builder,,2026.1.3,59.977280606357326,2026-04-14 15h14.25.467099 +0200,
4.5,ecc10pos,left,0,0,0,f,0,5.0113947999998345,None,0,0,0,0,0,0,0,0,1164.7756188000021,,,,,,,,,,,,,1164.6703406000015,1164.6703933999997,1164.771808900001,1164.7756188000021,1164.7756188000021,1164.7756188000021,1165.6794507000013,1169.7963167999987,f,0,5.0113947999998345,None,direct,20,[],0,shifteddirectgaze.png,f,0,1,results22,001,2026-04-14_15h14.25.177,mogelijke versie adaptive staircase builder,,2026.1.3,59.977280606357326,2026-04-14 15h14.25.467099 +0200,
4.5,ecc10pos,left,1,0,1,f,0,2.9328734000009717,None,0,0,0,0,1,0,1,0,1169.8858075999997,,,,,,,,,,,,,,,1169.8820873000004,1169.8858075999997,1169.8858075999997,1169.8858075999997,1170.7958343999999,1172.8292046999995,f,0,2.9328734000009717,None,direct,20,[],0,shifteddirectgaze.png,f,0,1,results22,001,2026-04-14_15h14.25.177,mogelijke versie adaptive staircase builder,,2026.1.3,59.977280606357326,2026-04-14 15h14.25.467099 +0200,
4.5,ecc10pos,left,2,0,2,f,1,2.8625503000002936,None,0,0,0,0,2,0,2,0,1172.9241724000021,,,,,,,,,,,,,,,1172.9202129000005,1172.9241724000021,1172.9241724000021,1172.9241724000021,1173.8289153000005,1175.7959561999996,f,1,2.8625503000002936,None,right,20,[20],1,shiftedgaze_R_20.png,f,1,1,results22,001,2026-04-14_15h14.25.177,mogelijke versie adaptive staircase builder,,2026.1.3,59.977280606357326,2026-04-14 15h14.25.467099 +0200,
4.5,ecc10pos,left,3,0,3,f,0,2.9589573000012024,None,0,0,0,0,3,0,3,0,1175.8836671999998,,,,,,,,,,,,,,,1175.8795756,1175.8836671999998,1175.8836671999998,1175.8836671999998,1176.7959811,1178.8460722000018,f,0,2.9589573000012024,None,direct,19,"[20, 19]",2,shifteddirectgaze.png,f,0,1,results22,001,2026-04-14_15h14.25.177,mogelijke versie adaptive staircase builder,,2026.1.3,59.977280606357326,2026-04-14 15h14.25.467099 +0200,
4.5,ecc10pos,left,4,0,4,f,1,2.812682300002052,None,0,0,0,0,4,0,4,0,1179.0220111000017,,,,,,,,,,,,,,,1179.0191683000012,1179.0220111000017,1179.0220111000017,1179.0220111000017,1179.8456478000007,1181.8458443000018,f,1,2.812682300002052,None,left,20,"[20, 19, 20]",3,shiftedgaze_L_20.png,f,1,1,results22,001,2026-04-14_15h14.25.177,mogelijke versie adaptive staircase builder,,2026.1.3,59.977280606357326,2026-04-14 15h14.25.467099 +0200,
4.5,ecc10pos,left,5,0,5,f,0,2.813189299999067,None,0,0,0,0,5,0,5,0,1181.9496708000006,,,,,,,,,,,,,,,1181.939732499999,1181.9496708000006,1181.9496708000006,1181.9496708000006,1182.845764400001,1184.763242000001,f,0,2.813189299999067,None,direct,19,"[20, 19, 20, 19]",4,shifteddirectgaze.png,f,0,1,results22,001,2026-04-14_15h14.25.177,mogelijke versie adaptive staircase builder,,2026.1.3,59.977280606357326,2026-04-14 15h14.25.467099 +0200,
4.5,ecc10pos,left,6,0,6,f,1,2.4419547999968927,None,0,0,0,0,6,0,6,0,1184.8729033000018,,,,,,,,,,,,,,,1184.8635353999998,1184.8729033000018,1184.8729033000018,1184.8729033000018,1185.7791548999994,1187.3298705000016,f,1,2.4419547999968927,None,left,20,"[20, 19, 20, 19, 20]",5,shiftedgaze_L_20.png,f,1,1,results22,001,2026-04-14_15h14.25.177,mogelijke versie adaptive staircase builder,,2026.1.3,59.977280606357326,2026-04-14 15h14.25.467099 +0200,
4.5,ecc10pos,left,7,0,7,f,0,2.379439399999683,None,0,0,0,0,7,0,7,0,1187.4235842000016,,,,,,,,,,,,,,,1187.4134730000005,1187.4235842000016,1187.4235842000016,1187.4235842000016,1188.3456530000003,1189.8127921000014,f,0,2.379439399999683,None,direct,19,"[20, 19, 20, 19, 20, 19]",6,shifteddirectgaze.png,f,0,1,results22,001,2026-04-14_15h14.25.177,mogelijke versie adaptive staircase builder,,2026.1.3,59.977280606357326,2026-04-14 15h14.25.467099 +0200,
4.5,ecc10pos,left,8,0,8,f,1,2.3649310000000696,None,0,0,0,0,8,0,8,0,1189.9021257999993,,,,,,,,,,,,,,,1189.8978463000021,1189.9021257999993,1189.9021257999993,1189.9021257999993,1190.812900500001,1192.2797385000013,f,1,2.3649310000000696,None,right,20,"[20, 19, 20, 19, 20, 19, 20]",7,shiftedgaze_R_20.png,f,1,1,results22,001,2026-04-14_15h14.25.177,mogelijke versie adaptive staircase builder,,2026.1.3,59.977280606357326,2026-04-14 15h14.25.467099 +0200,
4.5,ecc10pos,left,9,0,9,f,1,2.0268904000004113,None,0,0,0,0,9,0,9,0,1192.3917131999988,,,,,,,,,,,,,,,1192.3807340000021,1192.3917131999988,1192.3917131999988,1192.3917131999988,1193.2795160999995,1194.4293118999994,f,1,2.0268904000004113,None,left,19,"[20, 19, 20, 19, 20, 19, 20]",7,shiftedgaze_L_19.png,f,1,1,results22,001,2026-04-14_15h14.25.177,mogelijke versie adaptive staircase builder,,2026.1.3,59.977280606357326,2026-04-14 15h14.25.467099 +0200,
4.5,ecc10pos,left,10,0,10,f,1,2.6121271000010893,None,0,0,0,0,10,0,10,0,1194.5428549999997,,,,,,,,,,,,,,,1194.5297775,1194.5428549999997,1194.5428549999997,1194.5428549999997,1195.428924300002,1197.162987300002,f,1,2.6121271000010893,None,right,18,"[20, 19, 20, 19, 20, 19, 20]",7,shiftedgaze_R_18.png,f,1,1,results22,001,2026-04-14_15h14.25.177,mogelijke versie adaptive staircase builder,,2026.1.3,59.977280606357326,2026-04-14 15h14.25.467099 +0200,
4.5,ecc10pos,left,11,0,11,f,1,2.3805089999987104,None,0,0,0,0,11,0,11,0,1197.2541650999992,,,,,,,,,,,,,,,1197.2501716000006,1197.2541650999992,1197.2541650999992,1197.2541650999992,1198.1629727,1199.6458258999992,f,1,2.3805089999987104,None,right,17,"[20, 19, 20, 19, 20, 19, 20]",7,shiftedgaze_R_17.png,f,1,1,results22,001,2026-04-14_15h14.25.177,mogelijke versie adaptive staircase builder,,2026.1.3,59.977280606357326,2026-04-14 15h14.25.467099 +0200,
4.5,ecc10pos,left,12,0,12,f,0,2.2157603000014205,None,0,0,0,0,12,0,12,0,1199.739296300002,,,,,,,,,,,,,,,1199.7348796000006,1199.739296300002,1199.739296300002,1199.739296300002,1200.6460121000018,1201.963120700002,f,0,2.2157603000014205,None,direct,16,"[20, 19, 20, 19, 20, 19, 20, 16]",8,shifteddirectgaze.png,f,0,1,results22,001,2026-04-14_15h14.25.177,mogelijke versie adaptive staircase builder,,2026.1.3,59.977280606357326,2026-04-14 15h14.25.467099 +0200,
4.5,ecc10pos,left,13,0,13,f,1,1.895253300001059,None,0,0,0,0,13,0,13,0,1202.067332300001,,,,,,,,,,,,,,,1202.0576526000004,1202.067332300001,1202.067332300001,1202.067332300001,1202.9789830000009,1203.9627474000008,f,1,1.895253300001059,None,left,17,"[20, 19, 20, 19, 20, 19, 20, 16, 17]",9,shiftedgaze_L_17.png,f,1,1,results22,001,2026-04-14_15h14.25.177,mogelijke versie adaptive staircase builder,,2026.1.3,59.977280606357326,2026-04-14 15h14.25.467099 +0200,
4.5,ecc10pos,left,14,0,14,f,0,2.7874215000010736,None,0,0,0,0,14,0,14,0,1204.0635513000016,,,,,,,,,,,,,,,1204.0530075999995,1204.0635513000016,1204.0635513000016,1204.0635513000016,1204.9622808000022,1206.8626457999999,f,0,2.7874215000010736,None,direct,16,"[20, 19, 20, 19, 20, 19, 20, 16, 17, 16]",10,shifteddirectgaze.png,f,0,1,results22,001,2026-04-14_15h14.25.177,mogelijke versie adaptive staircase builder,,2026.1.3,59.977280606357326,2026-04-14 15h14.25.467099 +0200,
4.5,ecc10pos,left,15,0,15,f,1,2.514481900001556,None,0,0,0,0,15,0,15,0,1206.9525939000014,,,,,,,,,,,,,,,1206.9475153999992,1206.9525939000014,1206.9525939000014,1206.9525939000014,1207.862709699999,1209.479535999999,f,1,2.514481900001556,None,right,17,"[20, 19, 20, 19, 20, 19, 20, 16, 17, 16, 17]",11,shiftedgaze_R_17.png,f,1,1,results22,001,2026-04-14_15h14.25.177,mogelijke versie adaptive staircase builder,,2026.1.3,59.977280606357326,2026-04-14 15h14.25.467099 +0200,
4.5,ecc10pos,left,16,0,16,f,0,2.3296177000011085,None,0,0,0,0,16,0,16,0,1209.5694208999994,,,,,,,,,,,,,,,1209.5644677000018,1209.5694208999994,1209.5694208999994,1209.5694208999994,1210.4793754999992,1211.9131481000004,f,0,2.3296177000011085,None,direct,16,"[20, 19, 20, 19, 20, 19, 20, 16, 17, 16, 17, 16]",12,shifteddirectgaze.png,f,0,1,results22,001,2026-04-14_15h14.25.177,mogelijke versie adaptive staircase builder,,2026.1.3,59.977280606357326,2026-04-14 15h14.25.467099 +0200,
4.5,ecc10pos,left,17,0,17,f,1,2.0472354000012274,None,0,0,0,0,17,0,17,0,1212.0034164999997,,,,,,,,,,,,,,,1211.9983610000018,1212.0034164999997,1212.0034164999997,1212.0034164999997,1212.9126249,1214.0625571000019,f,1,2.0472354000012274,None,right,17,"[20, 19, 20, 19, 20, 19, 20, 16, 17, 16, 17, 16, 17]",13,shiftedgaze_R_17.png,f,1,1,results22,001,2026-04-14_15h14.25.177,mogelijke versie adaptive staircase builder,,2026.1.3,59.977280606357326,2026-04-14 15h14.25.467099 +0200,
4.5,ecc10pos,left,18,0,18,f,1,2.4014806000013778,None,0,0,0,0,18,0,18,0,1214.161104900002,,,,,,,,,,,,,,,1214.156001200001,1214.161104900002,1214.161104900002,1214.161104900002,1215.062523200002,1216.562871500002,f,1,2.4014806000013778,None,right,16,"[20, 19, 20, 19, 20, 19, 20, 16, 17, 16, 17, 16, 17]",13,shiftedgaze_R_16.png,f,1,1,results22,001,2026-04-14_15h14.25.177,mogelijke versie adaptive staircase builder,,2026.1.3,59.977280606357326,2026-04-14 15h14.25.467099 +0200,
4.5,ecc10pos,left,19,0,19,f,0,1.9977213000020129,None,0,0,0,0,19,0,19,0,1216.6452812999996,,,,,,,,,,,,,,,1216.6408656000021,1216.6452812999996,1216.6452812999996,1216.6452812999996,1217.5628266000022,1218.6465224999993,f,0,1.9977213000020129,None,direct,15,"[20, 19, 20, 19, 20, 19, 20, 16, 17, 16, 17, 16, 17, 15]",14,shifteddirectgaze.png,f,0,1,results22,001,2026-04-14_15h14.25.177,mogelijke versie adaptive staircase builder,,2026.1.3,59.977280606357326,2026-04-14 15h14.25.467099 +0200,
4.5,ecc10pos,left,20,0,20,f,1,2.1694247000014,None,0,0,0,0,20,0,20,0,1218.7691993000008,,,,,,,,,,,,,,,1218.7583027,1218.7691993000008,1218.7691993000008,1218.7691993000008,1219.6624496000004,1220.9458429000006,f,1,2.1694247000014,None,left,16,"[20, 19, 20, 19, 20, 19, 20, 16, 17, 16, 17, 16, 17, 15, 16]",15,shiftedgaze_L_16.png,f,1,1,results22,001,2026-04-14_15h14.25.177,mogelijke versie adaptive staircase builder,,2026.1.3,59.977280606357326,2026-04-14 15h14.25.467099 +0200,
4.5,ecc10pos,left,21,0,21,f,1,2.362024800000654,None,0,0,0,0,21,0,21,0,1221.056955,,,,,,,,,,,,,,,1221.0459247,1221.056955,1221.056955,1221.056955,1221.9457922000001,1223.430030800002,f,1,2.362024800000654,None,right,15,"[20, 19, 20, 19, 20, 19, 20, 16, 17, 16, 17, 16, 17, 15, 16]",15,shiftedgaze_R_15.png,f,1,1,results22,001,2026-04-14_15h14.25.177,mogelijke versie adaptive staircase builder,,2026.1.3,59.977280606357326,2026-04-14 15h14.25.467099 +0200,
4.5,ecc10pos,left,22,0,22,f,1,1.9979458000016166,None,0,0,0,0,22,0,22,0,1223.5327026000014,,,,,,,,,,,,,,,1223.5275250000013,1223.5327026000014,1223.5327026000014,1223.5327026000014,1224.445747400001,1225.5458332000017,f,1,1.9979458000016166,None,left,14,"[20, 19, 20, 19, 20, 19, 20, 16, 17, 16, 17, 16, 17, 15, 16]",15,shiftedgaze_L_14.png,f,1,1,results22,001,2026-04-14_15h14.25.177,mogelijke versie adaptive staircase builder,,2026.1.3,59.977280606357326,2026-04-14 15h14.25.467099 +0200,
4.5,ecc10pos,left,23,0,23,j,1,2.6322557000021334,None,0,0,0,0,23,0,23,0,1225.6347244999997,,,,,,,,,,,,,,,1225.6298499000004,1225.6347244999997,1225.6347244999997,1225.6347244999997,1226.5457260000003,1228.2799436999994,j,1,2.6322557000021334,None,direct,13,"[20, 19, 20, 19, 20, 19, 20, 16, 17, 16, 17, 16, 17, 15, 16]",15,shifteddirectgaze.png,j,1,1,results22,001,2026-04-14_15h14.25.177,mogelijke versie adaptive staircase builder,,2026.1.3,59.977280606357326,2026-04-14 15h14.25.467099 +0200,
4.5,ecc10pos,left,24,0,24,f,0,2.2265187000011792,None,0,0,0,0,24,0,24,0,1228.368395100002,,,,,,,,,,,,,,,1228.3643088999997,1228.368395100002,1228.368395100002,1228.368395100002,1229.2956211000019,1230.5967530000016,f,0,2.2265187000011792,None,direct,12,"[20, 19, 20, 19, 20, 19, 20, 16, 17, 16, 17, 16, 17, 15, 16, 12]",16,shifteddirectgaze.png,f,0,1,results22,001,2026-04-14_15h14.25.177,mogelijke versie adaptive staircase builder,,2026.1.3,59.977280606357326,2026-04-14 15h14.25.467099 +0200,
4.5,ecc10pos,left,25,0,25,j,0,2.1720432000001892,None,0,0,0,0,25,0,25,0,1230.6869813000012,,,,,,,,,,,,,,,1230.6830463000006,1230.6869813000012,1230.6869813000012,1230.6869813000012,1231.6124378999993,1232.8629122999992,j,0,2.1720432000001892,None,right,13,"[20, 19, 20, 19, 20, 19, 20, 16, 17, 16, 17, 16, 17, 15, 16, 12]",16,shiftedgaze_R_13.png,j,0,1,results22,001,2026-04-14_15h14.25.177,mogelijke versie adaptive staircase builder,,2026.1.3,59.977280606357326,2026-04-14 15h14.25.467099 +0200,
4.5,ecc10pos,left,26,0,26,f,0,2.016224599999987,None,0,0,0,0,26,0,26,0,1232.9463378,,,,,,,,,,,,,,,1232.9421991999989,1232.9463378,1232.9463378,1232.9463378,1233.8625398000004,1234.9628335000016,f,0,2.016224599999987,None,direct,14,"[20, 19, 20, 19, 20, 19, 20, 16, 17, 16, 17, 16, 17, 15, 16, 12]",16,shifteddirectgaze.png,f,0,1,results22,001,2026-04-14_15h14.25.177,mogelijke versie adaptive staircase builder,,2026.1.3,59.977280606357326,2026-04-14 15h14.25.467099 +0200,
4.5,ecc10pos,left,27,0,27,f,1,1.8762387000024319,None,0,0,0,0,27,0,27,0,1235.0463724,,,,,,,,,,,,,,,1235.0419942000008,1235.0463724,1235.0463724,1235.0463724,1235.9624306000005,1236.9292604000002,f,1,1.8762387000024319,None,right,15,"[20, 19, 20, 19, 20, 19, 20, 16, 17, 16, 17, 16, 17, 15, 16, 12, 15]",17,shiftedgaze_R_15.png,f,1,1,results22,001,2026-04-14_15h14.25.177,mogelijke versie adaptive staircase builder,,2026.1.3,59.977280606357326,2026-04-14 15h14.25.467099 +0200,
4.5,ecc10pos,left,28,0,28,j,0,2.080990800001018,None,0,0,0,0,28,0,28,0,1237.0176075999989,,,,,,,,,,,,,,,1237.0134908,1237.0176075999989,1237.0176075999989,1237.0176075999989,1237.9295208000003,1239.112645199999,j,0,2.080990800001018,None,right,14,"[20, 19, 20, 19, 20, 19, 20, 16, 17, 16, 17, 16, 17, 15, 16, 12, 15, 14]",18,shiftedgaze_R_14.png,j,0,1,results22,001,2026-04-14_15h14.25.177,mogelijke versie adaptive staircase builder,,2026.1.3,59.977280606357326,2026-04-14 15h14.25.467099 +0200,
4.5,ecc10pos,left,29,0,29,f,0,2.1441634000002523,None,0,0,0,0,29,0,29,0,1239.1944468000002,,,,,,,,,,,,,,,1239.190707400001,1239.1944468000002,1239.1944468000002,1239.1944468000002,1240.1123430000007,1241.346014499999,f,0,2.1441634000002523,None,direct,15,"[20, 19, 20, 19, 20, 19, 20, 16, 17, 16, 17, 16, 17, 15, 16, 12, 15, 14]",18,shifteddirectgaze.png,f,0,1,results22,001,2026-04-14_15h14.25.177,mogelijke versie adaptive staircase builder,,2026.1.3,59.977280606357326,2026-04-14 15h14.25.467099 +0200,
4.5,ecc10pos,left,30,0,30,f,1,1.9975283999992826,None,0,0,0,0,30,0,30,0,1241.4294919999993,,,,,,,,,,,,,,,1241.4253229999995,1241.4294919999993,1241.4294919999993,1241.4294919999993,1242.3463334000007,1243.4298726000015,f,1,1.9975283999992826,None,right,16,"[20, 19, 20, 19, 20, 19, 20, 16, 17, 16, 17, 16, 17, 15, 16, 12, 15, 14, 16]",19,shiftedgaze_R_16.png,f,1,1,results22,001,2026-04-14_15h14.25.177,mogelijke versie adaptive staircase builder,,2026.1.3,59.977280606357326,2026-04-14 15h14.25.467099 +0200,
4.5,ecc10pos,left,31,0,31,f,1,2.0657647000007273,None,0,0,0,0,31,0,31,0,1243.5130370000006,,,,,,,,,,,,,,,1243.5091573999998,1243.5130370000006,1243.5130370000006,1243.5130370000006,1244.4457580999988,1245.5795868999994,f,1,2.0657647000007273,None,right,15,"[20, 19, 20, 19, 20, 19, 20, 16, 17, 16, 17, 16, 17, 15, 16, 12, 15, 14, 16]",19,shiftedgaze_R_15.png,f,1,1,results22,001,2026-04-14_15h14.25.177,mogelijke versie adaptive staircase builder,,2026.1.3,59.977280606357326,2026-04-14 15h14.25.467099 +0200,
4.5,ecc10pos,left,32,0,32,f,0,1.8779286999997566,None,0,0,0,0,32,0,32,0,1245.661035600002,,,,,,,,,,,,,,,1245.6573663999989,1245.661035600002,1245.661035600002,1245.661035600002,1246.5795825999994,1247.5464468999999,f,0,1.8779286999997566,None,direct,14,"[20, 19, 20, 19, 20, 19, 20, 16, 17, 16, 17, 16, 17, 15, 16, 12, 15, 14, 16, 14]",20,shifteddirectgaze.png,f,0,1,results22,001,2026-04-14_15h14.25.177,mogelijke versie adaptive staircase builder,,2026.1.3,59.977280606357326,2026-04-14 15h14.25.467099 +0200,
4.5,ecc10pos,left,33,0,33,j,0,1.9341993000016373,None,0,0,0,0,33,0,33,0,1247.6283547999992,,,,,,,,,,,,,,,1247.6242536999998,1247.6283547999992,1247.6283547999992,1247.6283547999992,1248.5624644000018,1249.562799899999,j,0,1.9341993000016373,None,right,15,"[20, 19, 20, 19, 20, 19, 20, 16, 17, 16, 17, 16, 17, 15, 16, 12, 15, 14, 16, 14]",20,shiftedgaze_R_15.png,j,0,1,results22,001,2026-04-14_15h14.25.177,mogelijke versie adaptive staircase builder,,2026.1.3,59.977280606357326,2026-04-14 15h14.25.467099 +0200,
4.5,ecc10pos,left,34,0,34,f,1,1.7551042000013695,None,0,0,0,0,34,0,34,0,1249.671515500002,,,,,,,,,,,,,,,1249.6614584000017,1249.671515500002,1249.671515500002,1249.671515500002,1250.562424300002,1251.429340999999,f,1,1.7551042000013695,None,left,16,"[20, 19, 20, 19, 20, 19, 20, 16, 17, 16, 17, 16, 17, 15, 16, 12, 15, 14, 16, 14, 16]",21,shiftedgaze_L_16.png,f,1,1,results22,001,2026-04-14_15h14.25.177,mogelijke versie adaptive staircase builder,,2026.1.3,59.977280606357326,2026-04-14 15h14.25.467099 +0200,
4.5,ecc10pos,left,35,0,35,f,1,2.376146399998106,None,0,0,0,0,35,0,35,0,1251.530488299999,,,,,,,,,,,,,,,1251.5198593999994,1251.530488299999,1251.530488299999,1251.530488299999,1252.4295931000015,1253.9126139,f,1,2.376146399998106,None,right,15,"[20, 19, 20, 19, 20, 19, 20, 16, 17, 16, 17, 16, 17, 15, 16, 12, 15, 14, 16, 14, 16]",21,shiftedgaze_R_15.png,f,1,1,results22,001,2026-04-14_15h14.25.177,mogelijke versie adaptive staircase builder,,2026.1.3,59.977280606357326,2026-04-14 15h14.25.467099 +0200,
4.5,ecc10pos,left,36,0,36,f,1,1.7952130999983638,None,0,0,0,0,36,0,36,0,1254.007426600001,,,,,,,,,,,,,,,1254.0028841000021,1254.007426600001,1254.007426600001,1254.007426600001,1254.9124137,1255.8124607999998,f,1,1.7952130999983638,None,left,14,"[20, 19, 20, 19, 20, 19, 20, 16, 17, 16, 17, 16, 17, 15, 16, 12, 15, 14, 16, 14, 16]",21,shiftedgaze_L_14.png,f,1,1,results22,001,2026-04-14_15h14.25.177,mogelijke versie adaptive staircase builder,,2026.1.3,59.977280606357326,2026-04-14 15h14.25.467099 +0200,
4.5,ecc10pos,left,37,0,37,f,1,1.835218000000168,None,0,0,0,0,37,0,37,0,1255.9034764999997,,,,,,,,,,,,,,,1255.8985676000011,1255.9034764999997,1255.9034764999997,1255.9034764999997,1256.8123951999987,1257.7462073999995,f,1,1.835218000000168,None,right,13,"[20, 19, 20, 19, 20, 19, 20, 16, 17, 16, 17, 16, 17, 15, 16, 12, 15, 14, 16, 14, 16]",21,shiftedgaze_R_13.png,f,1,1,results22,001,2026-04-14_15h14.25.177,mogelijke versie adaptive staircase builder,,2026.1.3,59.977280606357326,2026-04-14 15h14.25.467099 +0200,
4.5,ecc10pos,left,38,0,38,f,1,2.087675800001307,None,0,0,0,0,38,0,38,0,1257.8429662999988,,,,,,,,,,,,,,,1257.8383369000003,1257.8429662999988,1257.8429662999988,1257.8429662999988,1258.745863600001,1259.9459067999996,f,1,2.087675800001307,None,left,12,"[20, 19, 20, 19, 20, 19, 20, 16, 17, 16, 17, 16, 17, 15, 16, 12, 15, 14, 16, 14, 16]",21,shiftedgaze_L_12.png,f,1,1,results22,001,2026-04-14_15h14.25.177,mogelijke versie adaptive staircase builder,,2026.1.3,59.977280606357326,2026-04-14 15h14.25.467099 +0200,
4.5,ecc10pos,left,39,0,39,j,0,1.8368497000010393,None,0,0,0,0,39,0,39,0,1260.0377711,,,,,,,,,,,,,,,1260.0339010999996,1260.0377711,1260.0377711,1260.0377711,1260.9457720999999,1261.879200899999,j,0,1.8368497000010393,None,right,11,"[20, 19, 20, 19, 20, 19, 20, 16, 17, 16, 17, 16, 17, 15, 16, 12, 15, 14, 16, 14, 16, 11]",22,shiftedgaze_R_11.png,j,0,1,results22,001,2026-04-14_15h14.25.177,mogelijke versie adaptive staircase builder,,2026.1.3,59.977280606357326,2026-04-14 15h14.25.467099 +0200,
4.5,ecc10pos,left,40,0,40,f,1,1.8960766000018339,None,0,0,0,0,40,0,40,0,1261.9706081000004,,,,,,,,,,,,,,,1261.9665950999988,1261.9706081000004,1261.9706081000004,1261.9706081000004,1262.8787955000007,1263.8793336999988,f,1,1.8960766000018339,None,right,12,"[20, 19, 20, 19, 20, 19, 20, 16, 17, 16, 17, 16, 17, 15, 16, 12, 15, 14, 16, 14, 16, 11, 12]",23,shiftedgaze_R_12.png,f,1,1,results22,001,2026-04-14_15h14.25.177,mogelijke versie adaptive staircase builder,,2026.1.3,59.977280606357326,2026-04-14 15h14.25.467099 +0200,
4.5,ecc10pos,left,41,0,41,f,0,1.6214501000031305,None,0,0,0,0,41,0,41,0,1263.9734714000006,,,,,,,,,,,,,,,1263.9694330999992,1263.9734714000006,1263.9734714000006,1263.9734714000006,1264.8792018000022,1265.596145399999,f,0,1.6214501000031305,None,direct,11,"[20, 19, 20, 19, 20, 19, 20, 16, 17, 16, 17, 16, 17, 15, 16, 12, 15, 14, 16, 14, 16, 11, 12, 11]",24,shifteddirectgaze.png,f,0,1,results22,001,2026-04-14_15h14.25.177,mogelijke versie adaptive staircase builder,,2026.1.3,59.977280606357326,2026-04-14 15h14.25.467099 +0200,
4.5,ecc10pos,left,42,0,42,j,0,1.7879065000015544,None,0,0,0,0,42,0,42,0,1265.694735000001,,,,,,,,,,,,,,,1265.6897549999994,1265.694735000001,1265.694735000001,1265.694735000001,1266.5957383000023,1267.4960014999997,j,0,1.7879065000015544,None,right,12,"[20, 19, 20, 19, 20, 19, 20, 16, 17, 16, 17, 16, 17, 15, 16, 12, 15, 14, 16, 14, 16, 11, 12, 11]",24,shiftedgaze_R_12.png,j,0,1,results22,001,2026-04-14_15h14.25.177,mogelijke versie adaptive staircase builder,,2026.1.3,59.977280606357326,2026-04-14 15h14.25.467099 +0200,
4.5,ecc10pos,left,43,0,43,f,0,1.6946348000019498,None,0,0,0,0,43,0,43,0,1267.5879048999996,,,,,,,,,,,,,,,1267.5841561999987,1267.5879048999996,1267.5879048999996,1267.5879048999996,1268.4956898000019,1269.2958942000005,f,0,1.6946348000019498,None,direct,13,"[20, 19, 20, 19, 20, 19, 20, 16, 17, 16, 17, 16, 17, 15, 16, 12, 15, 14, 16, 14, 16, 11, 12, 11]",24,shifteddirectgaze.png,f,0,1,results22,001,2026-04-14_15h14.25.177,mogelijke versie adaptive staircase builder,,2026.1.3,59.977280606357326,2026-04-14 15h14.25.467099 +0200,
4.5,ecc10pos,left,44,0,44,f,1,1.773002900001302,None,0,0,0,0,44,0,44,0,1269.3898301000008,,,,,,,,,,,,,,,1269.3859039000017,1269.3898301000008,1269.3898301000008,1269.3898301000008,1270.2955760000004,1271.179675200001,f,1,1.773002900001302,None,left,14,"[20, 19, 20, 19, 20, 19, 20, 16, 17, 16, 17, 16, 17, 15, 16, 12, 15, 14, 16, 14, 16, 11, 12, 11, 14]",25,shiftedgaze_L_14.png,f,1,1,results22,001,2026-04-14_15h14.25.177,mogelijke versie adaptive staircase builder,,2026.1.3,59.977280606357326,2026-04-14 15h14.25.467099 +0200,
4.5,ecc10pos,left,45,0,45,f,0,1.6074264999988372,None,0,0,0,0,45,0,45,0,1271.2751489000002,,,,,,,,,,,,,,,1271.2712237000014,1271.2751489000002,1271.2751489000002,1271.2751489000002,1272.1956974999994,1272.895954800002,f,0,1.6074264999988372,None,direct,13,"[20, 19, 20, 19, 20, 19, 20, 16, 17, 16, 17, 16, 17, 15, 16, 12, 15, 14, 16, 14, 16, 11, 12, 11, 14, 13]",26,shifteddirectgaze.png,f,0,1,results22,001,2026-04-14_15h14.25.177,mogelijke versie adaptive staircase builder,,2026.1.3,59.977280606357326,2026-04-14 15h14.25.467099 +0200,
4.5,ecc10pos,left,46,0,46,f,1,1.8031241999997292,None,0,0,0,0,46,0,46,0,1272.9916019000011,,,,,,,,,,,,,,,1272.987638300001,1272.9916019000011,1272.9916019000011,1272.9916019000011,1273.895698799999,1274.7957986000001,f,1,1.8031241999997292,None,right,14,"[20, 19, 20, 19, 20, 19, 20, 16, 17, 16, 17, 16, 17, 15, 16, 12, 15, 14, 16, 14, 16, 11, 12, 11, 14, 13, 14]",27,shiftedgaze_R_14.png,f,1,1,results22,001,2026-04-14_15h14.25.177,mogelijke versie adaptive staircase builder,,2026.1.3,59.977280606357326,2026-04-14 15h14.25.467099 +0200,
4.5,ecc10pos,left,47,0,47,f,1,1.5618518000010226,None,0,0,0,0,47,0,47,0,1274.888784400002,,,,,,,,,,,,,,,1274.8847556,1274.888784400002,1274.888784400002,1274.888784400002,1275.795838500002,1276.4628889000014,f,1,1.5618518000010226,None,right,13,"[20, 19, 20, 19, 20, 19, 20, 16, 17, 16, 17, 16, 17, 15, 16, 12, 15, 14, 16, 14, 16, 11, 12, 11, 14, 13, 14]",27,shiftedgaze_R_13.png,f,1,1,results22,001,2026-04-14_15h14.25.177,mogelijke versie adaptive staircase builder,,2026.1.3,59.977280606357326,2026-04-14 15h14.25.467099 +0200,
4.5,ecc10pos,left,48,0,48,j,0,1.6861992999984068,None,0,0,0,0,48,0,48,0,1276.5566878999998,,,,,,,,,,,,,,,1276.5523971000002,1276.5566878999998,1276.5566878999998,1276.5566878999998,1277.478917299999,1278.2458294999997,j,0,1.6861992999984068,None,right,12,"[20, 19, 20, 19, 20, 19, 20, 16, 17, 16, 17, 16, 17, 15, 16, 12, 15, 14, 16, 14, 16, 11, 12, 11, 14, 13, 14, 12]",28,shiftedgaze_R_12.png,j,0,1,results22,001,2026-04-14_15h14.25.177,mogelijke versie adaptive staircase builder,,2026.1.3,59.977280606357326,2026-04-14 15h14.25.467099 +0200,
4.5,ecc10pos,left,49,0,49,f,1,1.3744336000017938,None,0,0,0,0,49,0,49,0,1278.348318700002,,,,,,,,,,,,,,,1278.3442575000008,1278.348318700002,1278.348318700002,1278.348318700002,1279.245655300001,1279.729124100002,f,1,1.3744336000017938,None,left,13,"[20, 19, 20, 19, 20, 19, 20, 16, 17, 16, 17, 16, 17, 15, 16, 12, 15, 14, 16, 14, 16, 11, 12, 11, 14, 13, 14, 12, 13]",29,shiftedgaze_L_13.png,f,1,1,results22,001,2026-04-14_15h14.25.177,mogelijke versie adaptive staircase builder,,2026.1.3,59.977280606357326,2026-04-14 15h14.25.467099 +0200,
4.5,ecc10pos,left,50,0,50,j,0,1.5067640000015672,None,0,0,0,0,50,0,50,0,1279.8238488999996,,,,,,,,,,,,,,,1279.8197144000005,1279.8238488999996,1279.8238488999996,1279.8238488999996,1280.7293463999995,1281.3461591000014,j,0,1.5067640000015672,None,left,12,"[20, 19, 20, 19, 20, 19, 20, 16, 17, 16, 17, 16, 17, 15, 16, 12, 15, 14, 16, 14, 16, 11, 12, 11, 14, 13, 14, 12, 13, 12]",30,shiftedgaze_L_12.png,j,0,1,results22,001,2026-04-14_15h14.25.177,mogelijke versie adaptive staircase builder,,2026.1.3,59.977280606357326,2026-04-14 15h14.25.467099 +0200,
4.5,ecc10pos,left,51,0,51,f,0,1.5946112999990874,None,0,0,0,0,51,0,51,0,1281.4400881000001,,,,,,,,,,,,,,,1281.4358218000016,1281.4400881000001,1281.4400881000001,1281.4400881000001,1282.3459347999997,1283.0463025999998,f,0,1.5946112999990874,None,direct,13,"[20, 19, 20, 19, 20, 19, 20, 16, 17, 16, 17, 16, 17, 15, 16, 12, 15, 14, 16, 14, 16, 11, 12, 11, 14, 13, 14, 12, 13, 12]",30,shifteddirectgaze.png,f,0,1,results22,001,2026-04-14_15h14.25.177,mogelijke versie adaptive staircase builder,,2026.1.3,59.977280606357326,2026-04-14 15h14.25.467099 +0200,
4.5,ecc10pos,left,52,0,52,f,1,1.5354860000006738,None,0,0,0,0,52,0,52,0,1283.139211900001,,,,,,,,,,,,,,,1283.1352152,1283.139211900001,1283.139211900001,1283.139211900001,1284.045880400001,1284.6791704999996,f,1,1.5354860000006738,None,left,14,"[20, 19, 20, 19, 20, 19, 20, 16, 17, 16, 17, 16, 17, 15, 16, 12, 15, 14, 16, 14, 16, 11, 12, 11, 14, 13, 14, 12, 13, 12, 14]",31,shiftedgaze_L_14.png,f,1,1,results22,001,2026-04-14_15h14.25.177,mogelijke versie adaptive staircase builder,,2026.1.3,59.977280606357326,2026-04-14 15h14.25.467099 +0200,
4.5,ecc10pos,left,53,0,53,j,1,1.6731830999997328,None,0,0,0,0,53,0,53,0,1284.7616318,,,,,,,,,,,,,,,1284.7575092000006,1284.7616318,1284.7616318,1284.7616318,1285.6795081000018,1286.4460918000004,j,1,1.6731830999997328,None,direct,13,"[20, 19, 20, 19, 20, 19, 20, 16, 17, 16, 17, 16, 17, 15, 16, 12, 15, 14, 16, 14, 16, 11, 12, 11, 14, 13, 14, 12, 13, 12, 14]",31,shifteddirectgaze.png,j,1,1,results22,001,2026-04-14_15h14.25.177,mogelijke versie adaptive staircase builder,,2026.1.3,59.977280606357326,2026-04-14 15h14.25.467099 +0200,
4.5,ecc10pos,left,54,0,54,f,1,1.6182489000020723,None,0,0,0,0,54,0,54,0,1286.5284054000003,,,,,,,,,,,,,,,1286.5243048000011,1286.5284054000003,1286.5284054000003,1286.5284054000003,1287.4461923000017,1288.1630876999989,f,1,1.6182489000020723,None,right,12,"[20, 19, 20, 19, 20, 19, 20, 16, 17, 16, 17, 16, 17, 15, 16, 12, 15, 14, 16, 14, 16, 11, 12, 11, 14, 13, 14, 12, 13, 12, 14]",31,shiftedgaze_R_12.png,f,1,1,results22,001,2026-04-14_15h14.25.177,mogelijke versie adaptive staircase builder,,2026.1.3,59.977280606357326,2026-04-14 15h14.25.467099 +0200,
4.5,ecc10pos,left,55,0,55,f,1,1.2001391999983753,None,0,0,0,0,55,0,55,0,1288.2749053000007,,,,,,,,,,,,,,,1288.264862600001,1288.2749053000007,1288.2749053000007,1288.2749053000007,1289.1787636000008,1289.479763200001,f,1,1.2001391999983753,None,left,11,"[20, 19, 20, 19, 20, 19, 20, 16, 17, 16, 17, 16, 17, 15, 16, 12, 15, 14, 16, 14, 16, 11, 12, 11, 14, 13, 14, 12, 13, 12, 14]",31,shiftedgaze_L_11.png,f,1,1,results22,001,2026-04-14_15h14.25.177,mogelijke versie adaptive staircase builder,,2026.1.3,59.977280606357326,2026-04-14 15h14.25.467099 +0200,
4.5,ecc10pos,left,56,0,56,f,1,1.3266852000015206,None,0,0,0,0,56,0,56,0,1289.5960261,,,,,,,,,,,,,,,1289.5855018000002,1289.5960261,1289.5960261,1289.5960261,1290.479400799999,1290.9293408000012,f,1,1.3266852000015206,None,left,10,"[20, 19, 20, 19, 20, 19, 20, 16, 17, 16, 17, 16, 17, 15, 16, 12, 15, 14, 16, 14, 16, 11, 12, 11, 14, 13, 14, 12, 13, 12, 14]",31,shiftedgaze_L_10.png,f,1,1,results22,001,2026-04-14_15h14.25.177,mogelijke versie adaptive staircase builder,,2026.1.3,59.977280606357326,2026-04-14 15h14.25.467099 +0200,
4.5,ecc10pos,left,57,0,57,f,1,1.653481000001193,None,0,0,0,0,57,0,57,0,1291.021560199999,,,,,,,,,,,,,,,1291.0172921000012,1291.021560199999,1291.021560199999,1291.021560199999,1291.9294585999996,1292.6797828000017,f,1,1.653481000001193,None,right,9,"[20, 19, 20, 19, 20, 19, 20, 16, 17, 16, 17, 16, 17, 15, 16, 12, 15, 14, 16, 14, 16, 11, 12, 11, 14, 13, 14, 12, 13, 12, 14]",31,shiftedgaze_R_9.png,f,1,1,results22,001,2026-04-14_15h14.25.177,mogelijke versie adaptive staircase builder,,2026.1.3,59.977280606357326,2026-04-14 15h14.25.467099 +0200,
4.5,ecc10pos,left,58,0,58,j,1,1.710700799998449,None,0,0,0,0,58,0,58,0,1292.7640137999988,,,,,,,,,,,,,,,1292.760024700001,1292.7640137999988,1292.7640137999988,1292.7640137999988,1293.6791875000017,1294.4792438000004,j,1,1.710700799998449,None,direct,8,"[20, 19, 20, 19, 20, 19, 20, 16, 17, 16, 17, 16, 17, 15, 16, 12, 15, 14, 16, 14, 16, 11, 12, 11, 14, 13, 14, 12, 13, 12, 14]",31,shifteddirectgaze.png,j,1,1,results22,001,2026-04-14_15h14.25.177,mogelijke versie adaptive staircase builder,,2026.1.3,59.977280606357326,2026-04-14 15h14.25.467099 +0200,
4.5,ecc10pos,left,59,0,59,j,0,1.4640326999979152,None,0,0,0,0,59,0,59,0,1294.5710137999995,,,,,,,,,,,,,,,1294.5668308999993,1294.5710137999995,1294.5710137999995,1294.5710137999995,1295.4794815999994,1296.0465887999999,j,0,1.4640326999979152,None,left,7,"[20, 19, 20, 19, 20, 19, 20, 16, 17, 16, 17, 16, 17, 15, 16, 12, 15, 14, 16, 14, 16, 11, 12, 11, 14, 13, 14, 12, 13, 12, 14, 7]",32,shiftedgaze_L_7.png,j,0,1,results22,001,2026-04-14_15h14.25.177,mogelijke versie adaptive staircase builder,,2026.1.3,59.977280606357326,2026-04-14 15h14.25.467099 +0200,
4.5,ecc10pos,left,0,0,0,,,,,0,0,0,0,,,,,,,,,,,,,,,,,,,,,,,,,,,,,,,,,,,,,,results22,001,2026-04-14_15h14.25.177,mogelijke versie adaptive staircase builder,,2026.1.3,59.977280606357326,2026-04-14 15h14.25.467099 +0200,
12.5,ecc0,mid,0,0,0,f,0,1.40629650000119,None,0,1,1,1,0,0,0,0,1296.1403582999992,,,,,,,,,,,,,1296.0490126000004,1296.0490419999987,1296.1364910000011,1296.1403582999992,1297.062149199999,1296.1403582999992,1296.1403582999992,1297.5623772,f,0,1.40629650000119,None,direct,20,[],0,direct_gaze.png,f,0,2,results22,001,2026-04-14_15h14.25.177,mogelijke versie adaptive staircase builder,,2026.1.3,59.977280606357326,2026-04-14 15h14.25.467099 +0200,
12.5,ecc0,mid,1,0,1,f,1,2.3091788999990968,None,0,1,1,1,1,0,1,0,1297.6536665999993,,,,,,,,,,,,,,,1297.6496269000017,1297.6536665999993,1298.5622360999987,1297.6536665999993,1297.6536665999993,1299.9632253000018,f,1,2.3091788999990968,None,right,20,[20],1,gaze_R_20.png,f,1,2,results22,001,2026-04-14_15h14.25.177,mogelijke versie adaptive staircase builder,,2026.1.3,59.977280606357326,2026-04-14 15h14.25.467099 +0200,
12.5,ecc0,mid,2,0,2,f,0,2.195810299999721,None,0,1,1,1,2,0,2,0,1300.0471808000002,,,,,,,,,,,,,,,1300.0427381000009,1300.0471808000002,1300.9790060000014,1300.0471808000002,1300.0471808000002,1302.246173800002,f,0,2.195810299999721,None,direct,19,"[20, 19]",2,direct_gaze.png,f,0,2,results22,001,2026-04-14_15h14.25.177,mogelijke versie adaptive staircase builder,,2026.1.3,59.977280606357326,2026-04-14 15h14.25.467099 +0200,
12.5,ecc0,mid,3,0,3,j,0,1.6817517000017688,None,0,1,1,1,3,0,3,0,1302.3370361999987,,,,,,,,,,,,,,,1302.333010000002,1302.3370361999987,1303.2459037000008,1302.3370361999987,1302.3370361999987,1304.0294171999994,j,0,1.6817517000017688,None,left,20,"[20, 19]",2,gaze_L_20.png,j,0,2,results22,001,2026-04-14_15h14.25.177,mogelijke versie adaptive staircase builder,,2026.1.3,59.977280606357326,2026-04-14 15h14.25.467099 +0200,
12.5,ecc0,mid,4,0,4,j,0,2.0731097999996564,None,0,1,1,1,4,0,4,0,1304.113835,,,,,,,,,,,,,,,1304.109868800002,1304.113835,1305.0291930000021,1304.113835,1304.113835,1306.1962391999987,j,0,2.0731097999996564,None,left,20,"[20, 19]",2,gaze_L_20.png,j,0,2,results22,001,2026-04-14_15h14.25.177,mogelijke versie adaptive staircase builder,,2026.1.3,59.977280606357326,2026-04-14 15h14.25.467099 +0200,
12.5,ecc0,mid,5,0,5,j,1,2.58691330000147,None,0,1,1,1,5,0,5,0,1306.2797683999997,,,,,,,,,,,,,,,1306.2753641000018,1306.2797683999997,1307.1960456000015,1306.2797683999997,1306.2797683999997,1308.879171200002,j,1,2.58691330000147,None,direct,20,"[20, 19, 20]",3,direct_gaze.png,j,1,2,results22,001,2026-04-14_15h14.25.177,mogelijke versie adaptive staircase builder,,2026.1.3,59.977280606357326,2026-04-14 15h14.25.467099 +0200,
12.5,ecc0,mid,6,0,6,f,1,1.656544199999189,None,0,1,1,1,6,0,6,0,1308.9701320000022,,,,,,,,,,,,,,,1308.9661987,1308.9701320000022,1309.8789346000012,1308.9701320000022,1308.9701320000022,1310.629194000001,f,1,1.656544199999189,None,left,19,"[20, 19, 20]",3,gaze_L_19.png,f,1,2,results22,001,2026-04-14_15h14.25.177,mogelijke versie adaptive staircase builder,,2026.1.3,59.977280606357326,2026-04-14 15h14.25.467099 +0200,
12.5,ecc0,mid,7,0,7,f,1,1.4201381999992009,None,0,1,1,1,7,0,7,0,1310.7185486000017,,,,,,,,,,,,,,,1310.7145203,1310.7185486000017,1311.6295114999994,1310.7185486000017,1310.7185486000017,1312.1458286000016,f,1,1.4201381999992009,None,right,18,"[20, 19, 20]",3,gaze_R_18.png,f,1,2,results22,001,2026-04-14_15h14.25.177,mogelijke versie adaptive staircase builder,,2026.1.3,59.977280606357326,2026-04-14 15h14.25.467099 +0200,
12.5,ecc0,mid,8,0,8,f,0,1.686085400000593,None,0,1,1,1,8,0,8,0,1312.2287875000002,,,,,,,,,,,,,,,1312.2245414999998,1312.2287875000002,1313.1456791000019,1312.2287875000002,1312.2287875000002,1313.9299401999997,f,0,1.686085400000593,None,direct,17,"[20, 19, 20, 17]",4,direct_gaze.png,f,0,2,results22,001,2026-04-14_15h14.25.177,mogelijke versie adaptive staircase builder,,2026.1.3,59.977280606357326,2026-04-14 15h14.25.467099 +0200,
12.5,ecc0,mid,9,0,9,f,0,1.9901400999988255,None,0,1,1,1,9,0,9,0,1314.0125348000001,,,,,,,,,,,,,,,1314.0085857000013,1314.0125348000001,1314.9292946999994,1314.0125348000001,1314.0125348000001,1316.0131245000011,f,0,1.9901400999988255,None,direct,18,"[20, 19, 20, 17]",4,direct_gaze.png,f,0,2,results22,001,2026-04-14_15h14.25.177,mogelijke versie adaptive staircase builder,,2026.1.3,59.977280606357326,2026-04-14 15h14.25.467099 +0200,
12.5,ecc0,mid,10,0,10,f,0,1.411522700000205,None,0,1,1,1,10,0,10,0,1316.0951927999995,,,,,,,,,,,,,,,1316.0911465999998,1316.0951927999995,1317.0127804000003,1316.0951927999995,1316.0951927999995,1317.5125941000006,f,0,1.411522700000205,None,direct,19,"[20, 19, 20, 17]",4,direct_gaze.png,f,0,2,results22,001,2026-04-14_15h14.25.177,mogelijke versie adaptive staircase builder,,2026.1.3,59.977280606357326,2026-04-14 15h14.25.467099 +0200,
12.5,ecc0,mid,11,0,11,j,1,1.496495399998821,None,0,1,1,1,11,0,11,0,1317.5944909999998,,,,,,,,,,,,,,,1317.5905242000008,1317.5944909999998,1318.512286199999,1317.5944909999998,1317.5944909999998,1319.0960922000013,j,1,1.496495399998821,None,direct,20,"[20, 19, 20, 17, 20]",5,direct_gaze.png,j,1,2,results22,001,2026-04-14_15h14.25.177,mogelijke versie adaptive staircase builder,,2026.1.3,59.977280606357326,2026-04-14 15h14.25.467099 +0200,
12.5,ecc0,mid,12,0,12,f,1,1.8225268999995023,None,0,1,1,1,12,0,12,0,1319.1801731000014,,,,,,,,,,,,,,,1319.1758498000017,1319.1801731000014,1320.096175300001,1319.1801731000014,1319.1801731000014,1321.0128619999996,f,1,1.8225268999995023,None,left,19,"[20, 19, 20, 17, 20]",5,gaze_L_19.png,f,1,2,results22,001,2026-04-14_15h14.25.177,mogelijke versie adaptive staircase builder,,2026.1.3,59.977280606357326,2026-04-14 15h14.25.467099 +0200,
12.5,ecc0,mid,13,0,13,f,1,1.5550180999998702,None,0,1,1,1,13,0,13,0,1321.0957877,,,,,,,,,,,,,,,1321.0917310000004,1321.0957877,1322.0127890000003,1321.0957877,1321.0957877,1322.6629699000005,f,1,1.5550180999998702,None,right,18,"[20, 19, 20, 17, 20]",5,gaze_R_18.png,f,1,2,results22,001,2026-04-14_15h14.25.177,mogelijke versie adaptive staircase builder,,2026.1.3,59.977280606357326,2026-04-14 15h14.25.467099 +0200,
12.5,ecc0,mid,14,0,14,f,1,1.8330146000007517,None,0,1,1,1,14,0,14,0,1322.7536782999996,,,,,,,,,,,,,,,1322.7496355000003,1322.7536782999996,1323.6628941000017,1322.7536782999996,1322.7536782999996,1324.5958533000012,f,1,1.8330146000007517,None,right,17,"[20, 19, 20, 17, 20]",5,gaze_R_17.png,f,1,2,results22,001,2026-04-14_15h14.25.177,mogelijke versie adaptive staircase builder,,2026.1.3,59.977280606357326,2026-04-14 15h14.25.467099 +0200,
12.5,ecc0,mid,15,0,15,j,1,1.916413700000703,None,0,1,1,1,15,0,15,0,1324.6787903000004,,,,,,,,,,,,,,,1324.6747066999997,1324.6787903000004,1325.5956506000002,1324.6787903000004,1324.6787903000004,1326.595799300001,j,1,1.916413700000703,None,direct,16,"[20, 19, 20, 17, 20]",5,direct_gaze.png,j,1,2,results22,001,2026-04-14_15h14.25.177,mogelijke versie adaptive staircase builder,,2026.1.3,59.977280606357326,2026-04-14 15h14.25.467099 +0200,
12.5,ecc0,mid,16,0,16,f,1,1.5322198999965622,None,0,1,1,1,16,0,16,0,1326.6864644999987,,,,,,,,,,,,,,,1326.6827144000017,1326.6864644999987,1327.5959938000015,1326.6864644999987,1326.6864644999987,1328.2292063000023,f,1,1.5322198999965622,None,right,15,"[20, 19, 20, 17, 20]",5,gaze_R_15.png,f,1,2,results22,001,2026-04-14_15h14.25.177,mogelijke versie adaptive staircase builder,,2026.1.3,59.977280606357326,2026-04-14 15h14.25.467099 +0200,
12.5,ecc0,mid,17,0,17,f,1,1.443255499998486,None,0,1,1,1,17,0,17,0,1328.319555500002,,,,,,,,,,,,,,,1328.3154520999997,1328.319555500002,1329.2292420000012,1328.319555500002,1328.319555500002,1329.7629979000012,f,1,1.443255499998486,None,right,14,"[20, 19, 20, 17, 20]",5,gaze_R_14.png,f,1,2,results22,001,2026-04-14_15h14.25.177,mogelijke versie adaptive staircase builder,,2026.1.3,59.977280606357326,2026-04-14 15h14.25.467099 +0200,
12.5,ecc0,mid,18,0,18,f,0,1.7282775000021502,None,0,1,1,1,18,0,18,0,1329.8504286999996,,,,,,,,,,,,,,,1329.8463603000018,1329.8504286999996,1330.7626851000023,1329.8504286999996,1329.8504286999996,1331.579125100001,f,0,1.7282775000021502,None,direct,13,"[20, 19, 20, 17, 20, 13]",6,direct_gaze.png,f,0,2,results22,001,2026-04-14_15h14.25.177,mogelijke versie adaptive staircase builder,,2026.1.3,59.977280606357326,2026-04-14 15h14.25.467099 +0200,
12.5,ecc0,mid,19,0,19,j,0,1.5496582000014314,None,0,1,1,1,19,0,19,0,1331.6690278999995,,,,,,,,,,,,,,,1331.6651898000018,1331.6690278999995,1332.5795311000002,1331.6690278999995,1331.6690278999995,1333.2291790000017,j,0,1.5496582000014314,None,left,14,"[20, 19, 20, 17, 20, 13]",6,gaze_L_14.png,j,0,2,results22,001,2026-04-14_15h14.25.177,mogelijke versie adaptive staircase builder,,2026.1.3,59.977280606357326,2026-04-14 15h14.25.467099 +0200,
12.5,ecc0,mid,20,0,20,j,0,1.3946966000003158,None,0,1,1,1,20,0,20,0,1333.319930900001,,,,,,,,,,,,,,,1333.3158394999991,1333.319930900001,1334.229046700002,1333.319930900001,1333.319930900001,1334.7293226000002,j,0,1.3946966000003158,None,left,15,"[20, 19, 20, 17, 20, 13]",6,gaze_L_15.png,j,0,2,results22,001,2026-04-14_15h14.25.177,mogelijke versie adaptive staircase builder,,2026.1.3,59.977280606357326,2026-04-14 15h14.25.467099 +0200,
12.5,ecc0,mid,21,0,21,j,0,1.351405800000066,None,0,1,1,1,21,0,21,0,1334.8195622999992,,,,,,,,,,,,,,,1334.815252100001,1334.8195622999992,1335.7292595,1334.8195622999992,1334.8195622999992,1336.1799384000005,j,0,1.351405800000066,None,left,16,"[20, 19, 20, 17, 20, 13]",6,gaze_L_16.png,j,0,2,results22,001,2026-04-14_15h14.25.177,mogelijke versie adaptive staircase builder,,2026.1.3,59.977280606357326,2026-04-14 15h14.25.467099 +0200,
12.5,ecc0,mid,22,0,22,f,0,1.3401131999999052,None,0,1,1,1,22,0,22,0,1336.2623949000008,,,,,,,,,,,,,,,1336.2583295000004,1336.2623949000008,1337.1793246999987,1336.2623949000008,1336.2623949000008,1337.6125677000018,f,0,1.3401131999999052,None,direct,17,"[20, 19, 20, 17, 20, 13]",6,direct_gaze.png,f,0,2,results22,001,2026-04-14_15h14.25.177,mogelijke versie adaptive staircase builder,,2026.1.3,59.977280606357326,2026-04-14 15h14.25.467099 +0200,
12.5,ecc0,mid,23,0,23,f,0,1.7479153999993287,None,0,1,1,1,23,0,23,0,1337.702769899999,,,,,,,,,,,,,,,1337.6977134000008,1337.702769899999,1338.612438600001,1337.702769899999,1337.702769899999,1339.4630089999991,f,0,1.7479153999993287,None,direct,18,"[20, 19, 20, 17, 20, 13]",6,direct_gaze.png,f,0,2,results22,001,2026-04-14_15h14.25.177,mogelijke versie adaptive staircase builder,,2026.1.3,59.977280606357326,2026-04-14 15h14.25.467099 +0200,
12.5,ecc0,mid,24,0,24,j,1,1.6310419000001275,None,0,1,1,1,24,0,24,0,1339.5556910000014,,,,,,,,,,,,,,,1339.5519163999998,1339.5556910000014,1340.4625575999999,1339.5556910000014,1339.5556910000014,1341.1962907000016,j,1,1.6310419000001275,None,direct,19,"[20, 19, 20, 17, 20, 13, 19]",7,direct_gaze.png,j,1,2,results22,001,2026-04-14_15h14.25.177,mogelijke versie adaptive staircase builder,,2026.1.3,59.977280606357326,2026-04-14 15h14.25.467099 +0200,
12.5,ecc0,mid,25,0,25,j,0,1.9284480000023905,None,0,1,1,1,25,0,25,0,1341.2981015000005,,,,,,,,,,,,,,,1341.2940036,1341.2981015000005,1342.195851299999,1341.2981015000005,1341.2981015000005,1343.229413699999,j,0,1.9284480000023905,None,left,18,"[20, 19, 20, 17, 20, 13, 19, 18]",8,gaze_L_18.png,j,0,2,results22,001,2026-04-14_15h14.25.177,mogelijke versie adaptive staircase builder,,2026.1.3,59.977280606357326,2026-04-14 15h14.25.467099 +0200,
12.5,ecc0,mid,26,0,26,f,0,1.3420460999986972,None,0,1,1,1,26,0,26,0,1343.324520000002,,,,,,,,,,,,,,,1343.3201238000001,1343.324520000002,1344.2294084000023,1343.324520000002,1343.324520000002,1344.6793608000007,f,0,1.3420460999986972,None,direct,19,"[20, 19, 20, 17, 20, 13, 19, 18]",8,direct_gaze.png,f,0,2,results22,001,2026-04-14_15h14.25.177,mogelijke versie adaptive staircase builder,,2026.1.3,59.977280606357326,2026-04-14 15h14.25.467099 +0200,
12.5,ecc0,mid,27,0,27,f,1,1.9978035000021919,None,0,1,1,1,27,0,27,0,1344.7728489,,,,,,,,,,,,,,,1344.7686514000015,1344.7728489,1345.6792838000001,1344.7728489,1344.7728489,1346.7792503000019,f,1,1.9978035000021919,None,left,20,"[20, 19, 20, 17, 20, 13, 19, 18, 20]",9,gaze_L_20.png,f,1,2,results22,001,2026-04-14_15h14.25.177,mogelijke versie adaptive staircase builder,,2026.1.3,59.977280606357326,2026-04-14 15h14.25.467099 +0200,
12.5,ecc0,mid,28,0,28,f,1,1.7935289000015473,None,0,1,1,1,28,0,28,0,1346.8730370000012,,,,,,,,,,,,,,,1346.8684792000022,1346.8730370000012,1347.7788934000018,1346.8730370000012,1346.8730370000012,1348.6795739000008,f,1,1.7935289000015473,None,left,19,"[20, 19, 20, 17, 20, 13, 19, 18, 20]",9,gaze_L_19.png,f,1,2,results22,001,2026-04-14_15h14.25.177,mogelijke versie adaptive staircase builder,,2026.1.3,59.977280606357326,2026-04-14 15h14.25.467099 +0200,
12.5,ecc0,mid,29,0,29,f,1,2.06961240000237,None,0,1,1,1,29,0,29,0,1348.773000199999,,,,,,,,,,,,,,,1348.768835400002,1348.773000199999,1349.6955736000018,1348.773000199999,1348.773000199999,1350.8459672999998,f,1,2.06961240000237,None,left,18,"[20, 19, 20, 17, 20, 13, 19, 18, 20]",9,gaze_L_18.png,f,1,2,results22,001,2026-04-14_15h14.25.177,mogelijke versie adaptive staircase builder,,2026.1.3,59.977280606357326,2026-04-14 15h14.25.467099 +0200,
12.5,ecc0,mid,30,0,30,j,0,1.429517800002941,None,0,1,1,1,30,0,30,0,1350.9410332000007,,,,,,,,,,,,,,,1350.9366759000004,1350.9410332000007,1351.8459137999998,1350.9410332000007,1350.9410332000007,1352.3796580999988,j,0,1.429517800002941,None,right,17,"[20, 19, 20, 17, 20, 13, 19, 18, 20, 17]",10,gaze_R_17.png,j,0,2,results22,001,2026-04-14_15h14.25.177,mogelijke versie adaptive staircase builder,,2026.1.3,59.977280606357326,2026-04-14 15h14.25.467099 +0200,
12.5,ecc0,mid,31,0,31,j,0,1.7200734999969427,None,0,1,1,1,31,0,31,0,1352.4744322000006,,,,,,,,,,,,,,,1352.4701939000006,1352.4744322000006,1353.379188400002,1352.4744322000006,1352.4744322000006,1354.196261699999,j,0,1.7200734999969427,None,right,18,"[20, 19, 20, 17, 20, 13, 19, 18, 20, 17]",10,gaze_R_18.png,j,0,2,results22,001,2026-04-14_15h14.25.177,mogelijke versie adaptive staircase builder,,2026.1.3,59.977280606357326,2026-04-14 15h14.25.467099 +0200,
12.5,ecc0,mid,32,0,32,f,1,1.9699645999971835,None,0,1,1,1,32,0,32,0,1354.2966947999994,,,,,,,,,,,,,,,1354.292611500001,1354.2966947999994,1355.1959825000013,1354.2966947999994,1354.2966947999994,1356.279725100001,f,1,1.9699645999971835,None,right,19,"[20, 19, 20, 17, 20, 13, 19, 18, 20, 17, 19]",11,gaze_R_19.png,f,1,2,results22,001,2026-04-14_15h14.25.177,mogelijke versie adaptive staircase builder,,2026.1.3,59.977280606357326,2026-04-14 15h14.25.467099 +0200,
12.5,ecc0,mid,33,0,33,j,0,1.9771695000017644,None,0,1,1,1,33,0,33,0,1356.361609800002,,,,,,,,,,,,,,,1356.3570584000008,1356.361609800002,1357.279065499999,1356.361609800002,1356.361609800002,1358.346736800002,j,0,1.9771695000017644,None,right,18,"[20, 19, 20, 17, 20, 13, 19, 18, 20, 17, 19, 18]",12,gaze_R_18.png,j,0,2,results22,001,2026-04-14_15h14.25.177,mogelijke versie adaptive staircase builder,,2026.1.3,59.977280606357326,2026-04-14 15h14.25.467099 +0200,
12.5,ecc0,mid,34,0,34,j,0,1.8843715000002703,None,0,1,1,1,34,0,34,0,1358.4302668000018,,,,,,,,,,,,,,,1358.4258515000001,1358.4302668000018,1359.3625878999992,1358.4302668000018,1358.4302668000018,1360.3292905999988,j,0,1.8843715000002703,None,left,19,"[20, 19, 20, 17, 20, 13, 19, 18, 20, 17, 19, 18]",12,gaze_L_19.png,j,0,2,results22,001,2026-04-14_15h14.25.177,mogelijke versie adaptive staircase builder,,2026.1.3,59.977280606357326,2026-04-14 15h14.25.467099 +0200,
12.5,ecc0,mid,35,0,35,f,1,1.6611861999990651,None,0,1,1,1,35,0,35,0,1360.413442000001,,,,,,,,,,,,,,,1360.409232500002,1360.413442000001,1361.3290053000019,1360.413442000001,1360.413442000001,1362.0793087999991,f,1,1.6611861999990651,None,left,20,"[20, 19, 20, 17, 20, 13, 19, 18, 20, 17, 19, 18, 20]",13,gaze_L_20.png,f,1,2,results22,001,2026-04-14_15h14.25.177,mogelijke versie adaptive staircase builder,,2026.1.3,59.977280606357326,2026-04-14 15h14.25.467099 +0200,
12.5,ecc0,mid,36,0,36,f,1,1.7202405000025465,None,0,1,1,1,36,0,36,0,1362.1623895000012,,,,,,,,,,,,,,,1362.1583245000002,1362.1623895000012,1363.079602599999,1362.1623895000012,1362.1623895000012,1363.8958569999995,f,1,1.7202405000025465,None,left,19,"[20, 19, 20, 17, 20, 13, 19, 18, 20, 17, 19, 18, 20]",13,gaze_L_19.png,f,1,2,results22,001,2026-04-14_15h14.25.177,mogelijke versie adaptive staircase builder,,2026.1.3,59.977280606357326,2026-04-14 15h14.25.467099 +0200,
12.5,ecc0,mid,37,0,37,j,0,1.814299800000299,None,0,1,1,1,37,0,37,0,1363.9802296000016,,,,,,,,,,,,,,,1363.9761505999995,1363.9802296000016,1364.8957211000015,1363.9802296000016,1363.9802296000016,1365.795806099999,j,0,1.814299800000299,None,left,18,"[20, 19, 20, 17, 20, 13, 19, 18, 20, 17, 19, 18, 20, 18]",14,gaze_L_18.png,j,0,2,results22,001,2026-04-14_15h14.25.177,mogelijke versie adaptive staircase builder,,2026.1.3,59.977280606357326,2026-04-14 15h14.25.467099 +0200,
12.5,ecc0,mid,38,0,38,j,0,1.6125610000017332,None,0,1,1,1,38,0,38,0,1365.878420699999,,,,,,,,,,,,,,,1365.874485299999,1365.878420699999,1366.7962630000002,1365.878420699999,1365.878420699999,1367.4965957000022,j,0,1.6125610000017332,None,right,19,"[20, 19, 20, 17, 20, 13, 19, 18, 20, 17, 19, 18, 20, 18]",14,gaze_R_19.png,j,0,2,results22,001,2026-04-14_15h14.25.177,mogelijke versie adaptive staircase builder,,2026.1.3,59.977280606357326,2026-04-14 15h14.25.467099 +0200,
12.5,ecc0,mid,39,0,39,f,1,1.6237713000009535,None,0,1,1,1,39,0,39,0,1367.5788644999993,,,,,,,,,,,,,,,1367.5748262999987,1367.5788644999993,1368.4957699000006,1367.5788644999993,1367.5788644999993,1369.2130954000022,f,1,1.6237713000009535,None,right,20,"[20, 19, 20, 17, 20, 13, 19, 18, 20, 17, 19, 18, 20, 18, 20]",15,gaze_R_20.png,f,1,2,results22,001,2026-04-14_15h14.25.177,mogelijke versie adaptive staircase builder,,2026.1.3,59.977280606357326,2026-04-14 15h14.25.467099 +0200,
12.5,ecc0,mid,40,0,40,f,1,1.825905399997282,None,0,1,1,1,40,0,40,0,1369.2967351000007,,,,,,,,,,,,,,,1369.2928818,1369.2967351000007,1370.2291110000006,1369.2967351000007,1369.2967351000007,1371.1292888999997,f,1,1.825905399997282,None,right,19,"[20, 19, 20, 17, 20, 13, 19, 18, 20, 17, 19, 18, 20, 18, 20]",15,gaze_R_19.png,f,1,2,results22,001,2026-04-14_15h14.25.177,mogelijke versie adaptive staircase builder,,2026.1.3,59.977280606357326,2026-04-14 15h14.25.467099 +0200,
12.5,ecc0,mid,41,0,41,f,1,2.047589199999493,None,0,1,1,1,41,0,41,0,1371.2110294000013,,,,,,,,,,,,,,,1371.207020400001,1371.2110294000013,1372.1291358000017,1371.2110294000013,1371.2110294000013,1373.2627023999994,f,1,2.047589199999493,None,left,18,"[20, 19, 20, 17, 20, 13, 19, 18, 20, 17, 19, 18, 20, 18, 20]",15,gaze_L_18.png,f,1,2,results22,001,2026-04-14_15h14.25.177,mogelijke versie adaptive staircase builder,,2026.1.3,59.977280606357326,2026-04-14 15h14.25.467099 +0200,
12.5,ecc0,mid,42,0,42,j,0,1.561089599999832,None,0,1,1,1,42,0,42,0,1373.345741600002,,,,,,,,,,,,,,,1373.3417574000014,1373.345741600002,1374.2625076000004,1373.345741600002,1373.345741600002,1374.9129259000001,j,0,1.561089599999832,None,right,17,"[20, 19, 20, 17, 20, 13, 19, 18, 20, 17, 19, 18, 20, 18, 20, 17]",16,gaze_R_17.png,j,0,2,results22,001,2026-04-14_15h14.25.177,mogelijke versie adaptive staircase builder,,2026.1.3,59.977280606357326,2026-04-14 15h14.25.467099 +0200,
12.5,ecc0,mid,43,0,43,j,1,2.3591541000023426,None,0,1,1,1,43,0,43,0,1374.995477299999,,,,,,,,,,,,,,,1374.991493900001,1374.995477299999,1375.9123734999994,1374.995477299999,1374.995477299999,1377.3624913999993,j,1,2.3591541000023426,None,direct,18,"[20, 19, 20, 17, 20, 13, 19, 18, 20, 17, 19, 18, 20, 18, 20, 17, 18]",17,direct_gaze.png,j,1,2,results22,001,2026-04-14_15h14.25.177,mogelijke versie adaptive staircase builder,,2026.1.3,59.977280606357326,2026-04-14 15h14.25.467099 +0200,
12.5,ecc0,mid,44,0,44,f,1,1.5086952000019664,None,0,1,1,1,44,0,44,0,1377.4458372000008,,,,,,,,,,,,,,,1377.4419888000011,1377.4458372000008,1378.3627134999988,1377.4458372000008,1377.4458372000008,1378.9626370000005,f,1,1.5086952000019664,None,right,17,"[20, 19, 20, 17, 20, 13, 19, 18, 20, 17, 19, 18, 20, 18, 20, 17, 18]",17,gaze_R_17.png,f,1,2,results22,001,2026-04-14_15h14.25.177,mogelijke versie adaptive staircase builder,,2026.1.3,59.977280606357326,2026-04-14 15h14.25.467099 +0200,
12.5,ecc0,mid,45,0,45,f,1,1.8220810999991954,None,0,1,1,1,45,0,45,0,1379.0444930000012,,,,,,,,,,,,,,,1379.0407118000003,1379.0444930000012,1379.9623753000014,1379.0444930000012,1379.0444930000012,1380.879277600001,f,1,1.8220810999991954,None,left,16,"[20, 19, 20, 17, 20, 13, 19, 18, 20, 17, 19, 18, 20, 18, 20, 17, 18]",17,gaze_L_16.png,f,1,2,results22,001,2026-04-14_15h14.25.177,mogelijke versie adaptive staircase builder,,2026.1.3,59.977280606357326,2026-04-14 15h14.25.467099 +0200,
12.5,ecc0,mid,46,0,46,f,1,1.8888681999997061,None,0,1,1,1,46,0,46,0,1380.9621002999993,,,,,,,,,,,,,,,1380.958043999999,1380.9621002999993,1381.8789996000014,1380.9621002999993,1380.9621002999993,1382.862960999999,f,1,1.8888681999997061,None,left,15,"[20, 19, 20, 17, 20, 13, 19, 18, 20, 17, 19, 18, 20, 18, 20, 17, 18]",17,gaze_L_15.png,f,1,2,results22,001,2026-04-14_15h14.25.177,mogelijke versie adaptive staircase builder,,2026.1.3,59.977280606357326,2026-04-14 15h14.25.467099 +0200,
12.5,ecc0,mid,47,0,47,f,0,2.168729200002417,None,0,1,1,1,47,0,47,0,1382.9459099000014,,,,,,,,,,,,,,,1382.9416502000022,1382.9459099000014,1383.8790479000018,1382.9459099000014,1382.9459099000014,1385.1298811000015,f,0,2.168729200002417,None,direct,14,"[20, 19, 20, 17, 20, 13, 19, 18, 20, 17, 19, 18, 20, 18, 20, 17, 18, 14]",18,direct_gaze.png,f,0,2,results22,001,2026-04-14_15h14.25.177,mogelijke versie adaptive staircase builder,,2026.1.3,59.977280606357326,2026-04-14 15h14.25.467099 +0200,
12.5,ecc0,mid,48,0,48,j,1,1.717463900000439,None,0,1,1,1,48,0,48,0,1385.2131690999995,,,,,,,,,,,,,,,1385.2092254999989,1385.2131690999995,1386.1294597000015,1385.2131690999995,1385.2131690999995,1386.9458966999991,j,1,1.717463900000439,None,direct,15,"[20, 19, 20, 17, 20, 13, 19, 18, 20, 17, 19, 18, 20, 18, 20, 17, 18, 14, 15]",19,direct_gaze.png,j,1,2,results22,001,2026-04-14_15h14.25.177,mogelijke versie adaptive staircase builder,,2026.1.3,59.977280606357326,2026-04-14 15h14.25.467099 +0200,
12.5,ecc0,mid,49,0,49,f,0,1.4295167999989644,None,0,1,1,1,49,0,49,0,1387.0291509000017,,,,,,,,,,,,,,,1387.0249925999997,1387.0291509000017,1387.9462792000013,1387.0291509000017,1387.0291509000017,1388.4628306000013,f,0,1.4295167999989644,None,direct,14,"[20, 19, 20, 17, 20, 13, 19, 18, 20, 17, 19, 18, 20, 18, 20, 17, 18, 14, 15, 14]",20,direct_gaze.png,f,0,2,results22,001,2026-04-14_15h14.25.177,mogelijke versie adaptive staircase builder,,2026.1.3,59.977280606357326,2026-04-14 15h14.25.467099 +0200,
12.5,ecc0,mid,50,0,50,j,0,1.9017758999980288,None,0,1,1,1,50,0,50,0,1388.5488762000023,,,,,,,,,,,,,,,1388.5449818999987,1388.5488762000023,1389.4623364,1388.5488762000023,1388.5488762000023,1390.4626865999999,j,0,1.9017758999980288,None,left,15,"[20, 19, 20, 17, 20, 13, 19, 18, 20, 17, 19, 18, 20, 18, 20, 17, 18, 14, 15, 14]",20,gaze_L_15.png,j,0,2,results22,001,2026-04-14_15h14.25.177,mogelijke versie adaptive staircase builder,,2026.1.3,59.977280606357326,2026-04-14 15h14.25.467099 +0200,
12.5,ecc0,mid,51,0,51,f,0,1.4453871000005165,None,0,1,1,1,51,0,51,0,1390.5572371000017,,,,,,,,,,,,,,,1390.5533084000017,1390.5572371000017,1391.4789949000005,1390.5572371000017,1390.5572371000017,1392.0125751000014,f,0,1.4453871000005165,None,direct,16,"[20, 19, 20, 17, 20, 13, 19, 18, 20, 17, 19, 18, 20, 18, 20, 17, 18, 14, 15, 14]",20,direct_gaze.png,f,0,2,results22,001,2026-04-14_15h14.25.177,mogelijke versie adaptive staircase builder,,2026.1.3,59.977280606357326,2026-04-14 15h14.25.467099 +0200,
12.5,ecc0,mid,52,0,52,j,0,1.7993857000001299,None,0,1,1,1,52,0,52,0,1392.1153384999998,,,,,,,,,,,,,,,1392.1110788000005,1392.1153384999998,1393.0123050000002,1392.1153384999998,1392.1153384999998,1393.9292335999999,j,0,1.7993857000001299,None,left,17,"[20, 19, 20, 17, 20, 13, 19, 18, 20, 17, 19, 18, 20, 18, 20, 17, 18, 14, 15, 14]",20,gaze_L_17.png,j,0,2,results22,001,2026-04-14_15h14.25.177,mogelijke versie adaptive staircase builder,,2026.1.3,59.977280606357326,2026-04-14 15h14.25.467099 +0200,
12.5,ecc0,mid,53,0,53,f,1,2.046104099998047,None,0,1,1,1,53,0,53,0,1394.020447400002,,,,,,,,,,,,,,,1394.0165416000018,1394.020447400002,1394.9290275000021,1394.020447400002,1394.020447400002,1396.0794004000018,f,1,2.046104099998047,None,left,18,"[20, 19, 20, 17, 20, 13, 19, 18, 20, 17, 19, 18, 20, 18, 20, 17, 18, 14, 15, 14, 18]",21,gaze_L_18.png,f,1,2,results22,001,2026-04-14_15h14.25.177,mogelijke versie adaptive staircase builder,,2026.1.3,59.977280606357326,2026-04-14 15h14.25.467099 +0200,
12.5,ecc0,mid,54,0,54,f,1,1.4302367999989656,None,0,1,1,1,54,0,54,0,1396.1725115000008,,,,,,,,,,,,,,,1396.1685677999994,1396.1725115000008,1397.0958756,1396.1725115000008,1396.1725115000008,1397.612616800001,f,1,1.4302367999989656,None,right,17,"[20, 19, 20, 17, 20, 13, 19, 18, 20, 17, 19, 18, 20, 18, 20, 17, 18, 14, 15, 14, 18]",21,gaze_R_17.png,f,1,2,results22,001,2026-04-14_15h14.25.177,mogelijke versie adaptive staircase builder,,2026.1.3,59.977280606357326,2026-04-14 15h14.25.467099 +0200,
12.5,ecc0,mid,55,0,55,f,1,1.4321635999986029,None,0,1,1,1,55,0,55,0,1397.7145377000015,,,,,,,,,,,,,,,1397.7105641999988,1397.7145377000015,1398.6124170000003,1397.7145377000015,1397.7145377000015,1399.1627407000015,f,1,1.4321635999986029,None,right,16,"[20, 19, 20, 17, 20, 13, 19, 18, 20, 17, 19, 18, 20, 18, 20, 17, 18, 14, 15, 14, 18]",21,gaze_R_16.png,f,1,2,results22,001,2026-04-14_15h14.25.177,mogelijke versie adaptive staircase builder,,2026.1.3,59.977280606357326,2026-04-14 15h14.25.467099 +0200,
12.5,ecc0,mid,56,0,56,f,1,1.7249492999981157,None,0,1,1,1,56,0,56,0,1399.2456687000013,,,,,,,,,,,,,,,1399.2415366999994,1399.2456687000013,1400.1626122999987,1399.2456687000013,1399.2456687000013,1400.9789459000021,f,1,1.7249492999981157,None,right,15,"[20, 19, 20, 17, 20, 13, 19, 18, 20, 17, 19, 18, 20, 18, 20, 17, 18, 14, 15, 14, 18]",21,gaze_R_15.png,f,1,2,results22,001,2026-04-14_15h14.25.177,mogelijke versie adaptive staircase builder,,2026.1.3,59.977280606357326,2026-04-14 15h14.25.467099 +0200,
12.5,ecc0,mid,57,0,57,j,0,1.7086383999994723,None,0,1,1,1,57,0,57,0,1401.062084199999,,,,,,,,,,,,,,,1401.0579843000014,1401.062084199999,1401.9791194999998,1401.062084199999,1401.062084199999,1402.779082500001,j,0,1.7086383999994723,None,left,14,"[20, 19, 20, 17, 20, 13, 19, 18, 20, 17, 19, 18, 20, 18, 20, 17, 18, 14, 15, 14, 18, 14]",22,gaze_L_14.png,j,0,2,results22,001,2026-04-14_15h14.25.177,mogelijke versie adaptive staircase builder,,2026.1.3,59.977280606357326,2026-04-14 15h14.25.467099 +0200,
12.5,ecc0,mid,58,0,58,j,1,1.5177898999972967,None,0,1,1,1,58,0,58,0,1402.8609791999988,,,,,,,,,,,,,,,1402.8565612999992,1402.8609791999988,1403.7794465000006,1402.8609791999988,1402.8609791999988,1404.3793551000017,j,1,1.5177898999972967,None,direct,15,"[20, 19, 20, 17, 20, 13, 19, 18, 20, 17, 19, 18, 20, 18, 20, 17, 18, 14, 15, 14, 18, 14, 15]",23,direct_gaze.png,j,1,2,results22,001,2026-04-14_15h14.25.177,mogelijke versie adaptive staircase builder,,2026.1.3,59.977280606357326,2026-04-14 15h14.25.467099 +0200,
12.5,ecc0,mid,59,0,59,f,1,1.3420565999986138,None,0,1,1,1,59,0,59,0,1404.4610135000003,,,,,,,,,,,,,,,1404.4571714000012,1404.4610135000003,1405.3794543000004,1404.4610135000003,1404.4610135000003,1405.812759299999,f,1,1.3420565999986138,None,right,14,"[20, 19, 20, 17, 20, 13, 19, 18, 20, 17, 19, 18, 20, 18, 20, 17, 18, 14, 15, 14, 18, 14, 15]",23,gaze_R_14.png,f,1,2,results22,001,2026-04-14_15h14.25.177,mogelijke versie adaptive staircase builder,,2026.1.3,59.977280606357326,2026-04-14 15h14.25.467099 +0200,
12.5,ecc0,mid,1,1,0,,,,,0,1,1,1,,,,,,,,,,,,,,,,,,,,,,,,,,,,,,,,,,,,,,results22,001,2026-04-14_15h14.25.177,mogelijke versie adaptive staircase builder,,2026.1.3,59.977280606357326,2026-04-14 15h14.25.467099 +0200,
20.5,ecc10neg,right,0,0,0,f,1,3.8993039000015415,None,0,2,2,2,0,0,0,0,1405.9277469000008,,,,,,,,,,,,,1405.8150213000008,1405.8150494000001,1405.9175466000015,1405.9277469000008,1405.9277469000008,1406.8295096000002,1405.9277469000008,1409.829784900001,f,1,3.8993039000015415,None,right,20,[],0,shiftedgaze_R_20.png,f,1,3,results22,001,2026-04-14_15h14.25.177,mogelijke versie adaptive staircase builder,,2026.1.3,59.977280606357326,2026-04-14 15h14.25.467099 +0200,
20.5,ecc10neg,right,1,0,1,j,0,2.2001739000006637,None,0,2,2,2,1,0,1,0,1409.9464752999993,,,,,,,,,,,,,,,1409.9360474000023,1409.9464752999993,1409.9464752999993,1410.8292082000007,1409.9464752999993,1412.1631058999992,j,0,2.2001739000006637,None,left,19,[19],1,shiftedgaze_L_19.png,j,0,3,results22,001,2026-04-14_15h14.25.177,mogelijke versie adaptive staircase builder,,2026.1.3,59.977280606357326,2026-04-14 15h14.25.467099 +0200,
20.5,ecc10neg,right,2,0,2,f,0,1.935402900002373,None,0,2,2,2,2,0,2,0,1412.2513026000015,,,,,,,,,,,,,,,1412.2475343000006,1412.2513026000015,1412.2513026000015,1413.1628352000007,1412.2513026000015,1414.1957408000017,f,0,1.935402900002373,None,direct,20,[19],1,shifteddirectgaze.png,f,0,3,results22,001,2026-04-14_15h14.25.177,mogelijke versie adaptive staircase builder,,2026.1.3,59.977280606357326,2026-04-14 15h14.25.467099 +0200,
20.5,ecc10neg,right,3,0,3,f,1,1.5963116999992053,None,0,2,2,2,3,0,3,0,1414.294509200001,,,,,,,,,,,,,,,1414.2850335000003,1414.294509200001,1414.294509200001,1415.1961545000013,1414.294509200001,1415.896483200002,f,1,1.5963116999992053,None,right,20,"[19, 20]",2,shiftedgaze_R_20.png,f,1,3,results22,001,2026-04-14_15h14.25.177,mogelijke versie adaptive staircase builder,,2026.1.3,59.977280606357326,2026-04-14 15h14.25.467099 +0200,
20.5,ecc10neg,right,4,0,4,j,0,1.6881431999972847,None,0,2,2,2,4,0,4,0,1416.0025256000008,,,,,,,,,,,,,,,1415.9927499000005,1416.0025256000008,1416.0025256000008,1416.9123217000015,1416.0025256000008,1417.695874000001,j,0,1.6881431999972847,None,left,19,"[19, 20, 19]",3,shiftedgaze_L_19.png,j,0,3,results22,001,2026-04-14_15h14.25.177,mogelijke versie adaptive staircase builder,,2026.1.3,59.977280606357326,2026-04-14 15h14.25.467099 +0200,
20.5,ecc10neg,right,5,0,5,f,1,1.623997500002588,None,0,2,2,2,5,0,5,0,1417.7873132999994,,,,,,,,,,,,,,,1417.7831239000006,1417.7873132999994,1417.7873132999994,1418.6958507000018,1417.7873132999994,1419.4131321000023,f,1,1.623997500002588,None,left,20,"[19, 20, 19, 20]",4,shiftedgaze_L_20.png,f,1,3,results22,001,2026-04-14_15h14.25.177,mogelijke versie adaptive staircase builder,,2026.1.3,59.977280606357326,2026-04-14 15h14.25.467099 +0200,
20.5,ecc10neg,right,6,0,6,j,1,1.5461336999978812,None,0,2,2,2,6,0,6,0,1419.4969394,,,,,,,,,,,,,,,1419.4930218000009,1419.4969394,1419.4969394,1420.4124004000005,1419.4969394,1421.0462528999997,j,1,1.5461336999978812,None,direct,19,"[19, 20, 19, 20]",4,shifteddirectgaze.png,j,1,3,results22,001,2026-04-14_15h14.25.177,mogelijke versie adaptive staircase builder,,2026.1.3,59.977280606357326,2026-04-14 15h14.25.467099 +0200,
20.5,ecc10neg,right,7,0,7,j,0,1.5850332000009075,None,0,2,2,2,7,0,7,0,1421.137860400002,,,,,,,,,,,,,,,1421.1340473000018,1421.137860400002,1421.137860400002,1422.0622589000013,1421.137860400002,1422.7294747000014,j,0,1.5850332000009075,None,left,18,"[19, 20, 19, 20, 18]",5,shiftedgaze_L_18.png,j,0,3,results22,001,2026-04-14_15h14.25.177,mogelijke versie adaptive staircase builder,,2026.1.3,59.977280606357326,2026-04-14 15h14.25.467099 +0200,
20.5,ecc10neg,right,8,0,8,j,1,1.5254659000020183,None,0,2,2,2,8,0,8,0,1422.8131858000015,,,,,,,,,,,,,,,1422.8092929000013,1422.8131858000015,1422.8131858000015,1423.7294782999998,1422.8131858000015,1424.3460538,j,1,1.5254659000020183,None,direct,19,"[19, 20, 19, 20, 18, 19]",6,shifteddirectgaze.png,j,1,3,results22,001,2026-04-14_15h14.25.177,mogelijke versie adaptive staircase builder,,2026.1.3,59.977280606357326,2026-04-14 15h14.25.467099 +0200,
20.5,ecc10neg,right,9,0,9,f,1,1.3786207000011927,None,0,2,2,2,9,0,9,0,1424.4325898999996,,,,,,,,,,,,,,,1424.4285344000018,1424.4325898999996,1424.4325898999996,1425.3461745000022,1424.4325898999996,1425.8129496000001,f,1,1.3786207000011927,None,left,18,"[19, 20, 19, 20, 18, 19]",6,shiftedgaze_L_18.png,f,1,3,results22,001,2026-04-14_15h14.25.177,mogelijke versie adaptive staircase builder,,2026.1.3,59.977280606357326,2026-04-14 15h14.25.467099 +0200,
20.5,ecc10neg,right,10,0,10,j,1,1.723643400000583,None,0,2,2,2,10,0,10,0,1425.8954183999995,,,,,,,,,,,,,,,1425.8912899999996,1425.8954183999995,1425.8954183999995,1426.8128715999992,1425.8954183999995,1427.6298309000013,j,1,1.723643400000583,None,direct,17,"[19, 20, 19, 20, 18, 19]",6,shifteddirectgaze.png,j,1,3,results22,001,2026-04-14_15h14.25.177,mogelijke versie adaptive staircase builder,,2026.1.3,59.977280606357326,2026-04-14 15h14.25.467099 +0200,
20.5,ecc10neg,right,11,0,11,f,1,1.866702899998927,None,0,2,2,2,11,0,11,0,1427.7200058000017,,,,,,,,,,,,,,,1427.7160145999987,1427.7200058000017,1427.7200058000017,1428.6456752000013,1427.7200058000017,1429.5959275999994,f,1,1.866702899998927,None,left,16,"[19, 20, 19, 20, 18, 19]",6,shiftedgaze_L_16.png,f,1,3,results22,001,2026-04-14_15h14.25.177,mogelijke versie adaptive staircase builder,,2026.1.3,59.977280606357326,2026-04-14 15h14.25.467099 +0200,
20.5,ecc10neg,right,12,0,12,f,1,2.131349199997203,None,0,2,2,2,12,0,12,0,1429.6873385,,,,,,,,,,,,,,,1429.6833896999997,1429.6873385,1429.6873385,1430.595625599999,1429.6873385,1431.8291265000007,f,1,2.131349199997203,None,left,15,"[19, 20, 19, 20, 18, 19]",6,shiftedgaze_L_15.png,f,1,3,results22,001,2026-04-14_15h14.25.177,mogelijke versie adaptive staircase builder,,2026.1.3,59.977280606357326,2026-04-14 15h14.25.467099 +0200,
20.5,ecc10neg,right,13,0,13,f,1,1.5570168000012927,None,0,2,2,2,13,0,13,0,1431.918033599999,,,,,,,,,,,,,,,1431.9140649,1431.918033599999,1431.918033599999,1432.8292623999987,1431.918033599999,1433.4797169000012,f,1,1.5570168000012927,None,right,14,"[19, 20, 19, 20, 18, 19]",6,shiftedgaze_R_14.png,f,1,3,results22,001,2026-04-14_15h14.25.177,mogelijke versie adaptive staircase builder,,2026.1.3,59.977280606357326,2026-04-14 15h14.25.467099 +0200,
20.5,ecc10neg,right,14,0,14,j,0,1.5690609000012046,None,0,2,2,2,14,0,14,0,1433.569574000001,,,,,,,,,,,,,,,1433.5652883000002,1433.569574000001,1433.569574000001,1434.4788319,1433.569574000001,1435.1459333999992,j,0,1.5690609000012046,None,right,13,"[19, 20, 19, 20, 18, 19, 13]",7,shiftedgaze_R_13.png,j,0,3,results22,001,2026-04-14_15h14.25.177,mogelijke versie adaptive staircase builder,,2026.1.3,59.977280606357326,2026-04-14 15h14.25.467099 +0200,
20.5,ecc10neg,right,15,0,15,f,0,1.726514699999825,None,0,2,2,2,15,0,15,0,1435.2283568999992,,,,,,,,,,,,,,,1435.224276500001,1435.2283568999992,1435.2283568999992,1436.1456779,1435.2283568999992,1436.9628946000012,f,0,1.726514699999825,None,direct,14,"[19, 20, 19, 20, 18, 19, 13]",7,shifteddirectgaze.png,f,0,3,results22,001,2026-04-14_15h14.25.177,mogelijke versie adaptive staircase builder,,2026.1.3,59.977280606357326,2026-04-14 15h14.25.467099 +0200,
20.5,ecc10neg,right,16,0,16,f,0,1.7099863000003097,None,0,2,2,2,16,0,16,0,1437.0446368000012,,,,,,,,,,,,,,,1437.0406146999994,1437.0446368000012,1437.0446368000012,1437.9626487999994,1437.0446368000012,1438.7624701999994,f,0,1.7099863000003097,None,direct,15,"[19, 20, 19, 20, 18, 19, 13]",7,shifteddirectgaze.png,f,0,3,results22,001,2026-04-14_15h14.25.177,mogelijke versie adaptive staircase builder,,2026.1.3,59.977280606357326,2026-04-14 15h14.25.467099 +0200,
20.5,ecc10neg,right,17,0,17,j,0,1.5659637999997358,None,0,2,2,2,17,0,17,0,1438.8449255000014,,,,,,,,,,,,,,,1438.8409207000004,1438.8449255000014,1438.8449255000014,1439.7624316000001,1438.8449255000014,1440.412622300002,j,0,1.5659637999997358,None,left,16,"[19, 20, 19, 20, 18, 19, 13]",7,shiftedgaze_L_16.png,j,0,3,results22,001,2026-04-14_15h14.25.177,mogelijke versie adaptive staircase builder,,2026.1.3,59.977280606357326,2026-04-14 15h14.25.467099 +0200,
20.5,ecc10neg,right,18,0,18,f,0,1.4925665000009758,None,0,2,2,2,18,0,18,0,1440.5024058999988,,,,,,,,,,,,,,,1440.4977562999993,1440.5024058999988,1440.5024058999988,1441.4124955000007,1440.5024058999988,1441.996061400001,f,0,1.4925665000009758,None,direct,17,"[19, 20, 19, 20, 18, 19, 13]",7,shifteddirectgaze.png,f,0,3,results22,001,2026-04-14_15h14.25.177,mogelijke versie adaptive staircase builder,,2026.1.3,59.977280606357326,2026-04-14 15h14.25.467099 +0200,
20.5,ecc10neg,right,19,0,19,f,0,1.8265530000026047,None,0,2,2,2,19,0,19,0,1442.0800565999998,,,,,,,,,,,,,,,1442.0758612999998,1442.0800565999998,1442.0800565999998,1442.9958288000016,1442.0800565999998,1443.9124967999996,f,0,1.8265530000026047,None,direct,18,"[19, 20, 19, 20, 18, 19, 13]",7,shifteddirectgaze.png,f,0,3,results22,001,2026-04-14_15h14.25.177,mogelijke versie adaptive staircase builder,,2026.1.3,59.977280606357326,2026-04-14 15h14.25.467099 +0200,
20.5,ecc10neg,right,20,0,20,f,0,1.999282000000676,None,0,2,2,2,20,0,20,0,1443.9959063999995,,,,,,,,,,,,,,,1443.9919451999995,1443.9959063999995,1443.9959063999995,1444.9123777999994,1443.9959063999995,1445.9957915000014,f,0,1.999282000000676,None,direct,19,"[19, 20, 19, 20, 18, 19, 13]",7,shifteddirectgaze.png,f,0,3,results22,001,2026-04-14_15h14.25.177,mogelijke versie adaptive staircase builder,,2026.1.3,59.977280606357326,2026-04-14 15h14.25.467099 +0200,
20.5,ecc10neg,right,21,0,21,f,0,1.4919484999991255,None,0,2,2,2,21,0,21,0,1446.0790866999996,,,,,,,,,,,,,,,1446.0750616000005,1446.0790866999996,1446.0790866999996,1446.995667700001,1446.0790866999996,1447.579780600001,f,0,1.4919484999991255,None,direct,20,"[19, 20, 19, 20, 18, 19, 13]",7,shifteddirectgaze.png,f,0,3,results22,001,2026-04-14_15h14.25.177,mogelijke versie adaptive staircase builder,,2026.1.3,59.977280606357326,2026-04-14 15h14.25.467099 +0200,
20.5,ecc10neg,right,22,0,22,f,1,1.9472021000001405,None,0,2,2,2,22,0,22,0,1447.6641492999988,,,,,,,,,,,,,,,1447.6601985000016,1447.6641492999988,1447.6641492999988,1448.5790732999994,1447.6641492999988,1449.613088500002,f,1,1.9472021000001405,None,left,20,"[19, 20, 19, 20, 18, 19, 13, 20]",8,shiftedgaze_L_20.png,f,1,3,results22,001,2026-04-14_15h14.25.177,mogelijke versie adaptive staircase builder,,2026.1.3,59.977280606357326,2026-04-14 15h14.25.467099 +0200,
20.5,ecc10neg,right,23,0,23,j,0,1.64550539999982,None,0,2,2,2,23,0,23,0,1449.7657981000011,,,,,,,,,,,,,,,1449.7562622000005,1449.7657981000011,1449.7657981000011,1450.629020100001,1449.7657981000011,1451.4130775000012,j,0,1.64550539999982,None,right,19,"[19, 20, 19, 20, 18, 19, 13, 20, 19]",9,shiftedgaze_R_19.png,j,0,3,results22,001,2026-04-14_15h14.25.177,mogelijke versie adaptive staircase builder,,2026.1.3,59.977280606357326,2026-04-14 15h14.25.467099 +0200,
20.5,ecc10neg,right,24,0,24,f,1,1.3133030999997573,None,0,2,2,2,24,0,24,0,1451.5133274,,,,,,,,,,,,,,,1451.5005186000017,1451.5133274,1451.5133274,1452.4121779999987,1451.5133274,1452.8291180000015,f,1,1.3133030999997573,None,left,20,"[19, 20, 19, 20, 18, 19, 13, 20, 19, 20]",10,shiftedgaze_L_20.png,f,1,3,results22,001,2026-04-14_15h14.25.177,mogelijke versie adaptive staircase builder,,2026.1.3,59.977280606357326,2026-04-14 15h14.25.467099 +0200,
20.5,ecc10neg,right,25,0,25,f,1,1.5251749999988533,None,0,2,2,2,25,0,25,0,1452.9174586000008,,,,,,,,,,,,,,,1452.913602200002,1452.9174586000008,1452.9174586000008,1453.8291293000002,1452.9174586000008,1454.445941599999,f,1,1.5251749999988533,None,left,19,"[19, 20, 19, 20, 18, 19, 13, 20, 19, 20]",10,shiftedgaze_L_19.png,f,1,3,results22,001,2026-04-14_15h14.25.177,mogelijke versie adaptive staircase builder,,2026.1.3,59.977280606357326,2026-04-14 15h14.25.467099 +0200,
20.5,ecc10neg,right,26,0,26,f,1,1.6853972999997495,None,0,2,2,2,26,0,26,0,1454.5332172000017,,,,,,,,,,,,,,,1454.5293079000003,1454.5332172000017,1454.5332172000017,1455.4457465000014,1454.5332172000017,1456.2295589999994,f,1,1.6853972999997495,None,left,18,"[19, 20, 19, 20, 18, 19, 13, 20, 19, 20]",10,shiftedgaze_L_18.png,f,1,3,results22,001,2026-04-14_15h14.25.177,mogelijke versie adaptive staircase builder,,2026.1.3,59.977280606357326,2026-04-14 15h14.25.467099 +0200,
20.5,ecc10neg,right,27,0,27,j,0,1.7236680000023625,None,0,2,2,2,27,0,27,0,1456.3270249999987,,,,,,,,,,,,,,,1456.3229174000007,1456.3270249999987,1456.3270249999987,1457.2291780000014,1456.3270249999987,1458.0625170000021,j,0,1.7236680000023625,None,left,17,"[19, 20, 19, 20, 18, 19, 13, 20, 19, 20, 17]",11,shiftedgaze_L_17.png,j,0,3,results22,001,2026-04-14_15h14.25.177,mogelijke versie adaptive staircase builder,,2026.1.3,59.977280606357326,2026-04-14 15h14.25.467099 +0200,
20.5,ecc10neg,right,28,0,28,f,1,1.581318000000465,None,0,2,2,2,28,0,28,0,1458.1733110999994,,,,,,,,,,,,,,,1458.1603352999991,1458.1733110999994,1458.1733110999994,1459.0624728000003,1458.1733110999994,1459.7626034000023,f,1,1.581318000000465,None,right,18,"[19, 20, 19, 20, 18, 19, 13, 20, 19, 20, 17, 18]",12,shiftedgaze_R_18.png,f,1,3,results22,001,2026-04-14_15h14.25.177,mogelijke versie adaptive staircase builder,,2026.1.3,59.977280606357326,2026-04-14 15h14.25.467099 +0200,
20.5,ecc10neg,right,29,0,29,f,1,1.8981525000017427,None,0,2,2,2,29,0,29,0,1459.8645460000007,,,,,,,,,,,,,,,1459.8603121000015,1459.8645460000007,1459.8645460000007,1460.7624222000013,1459.8645460000007,1461.7793487999988,f,1,1.8981525000017427,None,right,17,"[19, 20, 19, 20, 18, 19, 13, 20, 19, 20, 17, 18]",12,shiftedgaze_R_17.png,f,1,3,results22,001,2026-04-14_15h14.25.177,mogelijke versie adaptive staircase builder,,2026.1.3,59.977280606357326,2026-04-14 15h14.25.467099 +0200,
20.5,ecc10neg,right,30,0,30,f,1,1.9211563999997452,None,0,2,2,2,30,0,30,0,1461.8737962000014,,,,,,,,,,,,,,,1461.8696439000014,1461.8737962000014,1461.8737962000014,1462.7791054000008,1461.8737962000014,1463.7968290999997,f,1,1.9211563999997452,None,right,16,"[19, 20, 19, 20, 18, 19, 13, 20, 19, 20, 17, 18]",12,shiftedgaze_R_16.png,f,1,3,results22,001,2026-04-14_15h14.25.177,mogelijke versie adaptive staircase builder,,2026.1.3,59.977280606357326,2026-04-14 15h14.25.467099 +0200,
20.5,ecc10neg,right,31,0,31,j,1,1.3779319999994186,None,0,2,2,2,31,0,31,0,1463.8886923999999,,,,,,,,,,,,,,,1463.8790618999992,1463.8886923999999,1463.8886923999999,1464.8127320999993,1463.8886923999999,1465.279274299999,j,1,1.3779319999994186,None,direct,15,"[19, 20, 19, 20, 18, 19, 13, 20, 19, 20, 17, 18]",12,shifteddirectgaze.png,j,1,3,results22,001,2026-04-14_15h14.25.177,mogelijke versie adaptive staircase builder,,2026.1.3,59.977280606357326,2026-04-14 15h14.25.467099 +0200,
20.5,ecc10neg,right,32,0,32,f,1,1.6402284999967378,None,0,2,2,2,32,0,32,0,1465.3709163000021,,,,,,,,,,,,,,,1465.3658840999997,1465.3709163000021,1465.3709163000021,1466.2795815999998,1465.3709163000021,1467.0129607000017,f,1,1.6402284999967378,None,right,14,"[19, 20, 19, 20, 18, 19, 13, 20, 19, 20, 17, 18]",12,shiftedgaze_R_14.png,f,1,3,results22,001,2026-04-14_15h14.25.177,mogelijke versie adaptive staircase builder,,2026.1.3,59.977280606357326,2026-04-14 15h14.25.467099 +0200,
20.5,ecc10neg,right,33,0,33,f,1,1.6837760000016715,None,0,2,2,2,33,0,33,0,1467.1028761000016,,,,,,,,,,,,,,,1467.0986564000013,1467.1028761000016,1467.1028761000016,1468.012900400001,1467.1028761000016,1468.7958631000001,f,1,1.6837760000016715,None,left,13,"[19, 20, 19, 20, 18, 19, 13, 20, 19, 20, 17, 18]",12,shiftedgaze_L_13.png,f,1,3,results22,001,2026-04-14_15h14.25.177,mogelijke versie adaptive staircase builder,,2026.1.3,59.977280606357326,2026-04-14 15h14.25.467099 +0200,
20.5,ecc10neg,right,34,0,34,f,1,1.9004281999987143,None,0,2,2,2,34,0,34,0,1468.8943585000015,,,,,,,,,,,,,,,1468.8843342,1468.8943585000015,1468.8943585000015,1469.7957084000009,1468.8943585000015,1470.7965532000017,f,1,1.9004281999987143,None,right,12,"[19, 20, 19, 20, 18, 19, 13, 20, 19, 20, 17, 18]",12,shiftedgaze_R_12.png,f,1,3,results22,001,2026-04-14_15h14.25.177,mogelijke versie adaptive staircase builder,,2026.1.3,59.977280606357326,2026-04-14 15h14.25.467099 +0200,
20.5,ecc10neg,right,35,0,35,j,1,1.5635037000029115,None,0,2,2,2,35,0,35,0,1470.8952798999999,,,,,,,,,,,,,,,1470.8851816999995,1470.8952798999999,1470.8952798999999,1471.7963086000018,1470.8952798999999,1472.4630614000016,j,1,1.5635037000029115,None,direct,11,"[19, 20, 19, 20, 18, 19, 13, 20, 19, 20, 17, 18]",12,shifteddirectgaze.png,j,1,3,results22,001,2026-04-14_15h14.25.177,mogelijke versie adaptive staircase builder,,2026.1.3,59.977280606357326,2026-04-14 15h14.25.467099 +0200,
20.5,ecc10neg,right,36,0,36,f,1,1.8121673999994528,None,0,2,2,2,36,0,36,0,1472.558484199999,,,,,,,,,,,,,,,1472.5544450999987,1472.558484199999,1472.558484199999,1473.4790193000008,1472.558484199999,1474.3792317000007,f,1,1.8121673999994528,None,right,10,"[19, 20, 19, 20, 18, 19, 13, 20, 19, 20, 17, 18]",12,shiftedgaze_R_10.png,f,1,3,results22,001,2026-04-14_15h14.25.177,mogelijke versie adaptive staircase builder,,2026.1.3,59.977280606357326,2026-04-14 15h14.25.467099 +0200,
20.5,ecc10neg,right,37,0,37,f,1,1.7052799000011873,None,0,2,2,2,37,0,37,0,1474.473373500001,,,,,,,,,,,,,,,1474.4691457000008,1474.473373500001,1474.473373500001,1475.3795855999997,1474.473373500001,1476.1791458000007,f,1,1.7052799000011873,None,left,9,"[19, 20, 19, 20, 18, 19, 13, 20, 19, 20, 17, 18]",12,shiftedgaze_L_9.png,f,1,3,results22,001,2026-04-14_15h14.25.177,mogelijke versie adaptive staircase builder,,2026.1.3,59.977280606357326,2026-04-14 15h14.25.467099 +0200,
20.5,ecc10neg,right,38,0,38,j,0,1.6841316999998526,None,0,2,2,2,38,0,38,0,1476.2786454000016,,,,,,,,,,,,,,,1476.2737922000015,1476.2786454000016,1476.2786454000016,1477.1795802000015,1476.2786454000016,1477.9631534,j,0,1.6841316999998526,None,right,8,"[19, 20, 19, 20, 18, 19, 13, 20, 19, 20, 17, 18, 8]",13,shiftedgaze_R_8.png,j,0,3,results22,001,2026-04-14_15h14.25.177,mogelijke versie adaptive staircase builder,,2026.1.3,59.977280606357326,2026-04-14 15h14.25.467099 +0200,
20.5,ecc10neg,right,39,0,39,f,1,1.3080540000009933,None,0,2,2,2,39,0,39,0,1478.0466019000014,,,,,,,,,,,,,,,1478.0424802000016,1478.0466019000014,1478.0466019000014,1478.9629004000017,1478.0466019000014,1479.3625950999995,f,1,1.3080540000009933,None,left,9,"[19, 20, 19, 20, 18, 19, 13, 20, 19, 20, 17, 18, 8, 9]",14,shiftedgaze_L_9.png,f,1,3,results22,001,2026-04-14_15h14.25.177,mogelijke versie adaptive staircase builder,,2026.1.3,59.977280606357326,2026-04-14 15h14.25.467099 +0200,
20.5,ecc10neg,right,40,0,40,f,1,1.6063847000004898,None,0,2,2,2,40,0,40,0,1479.4522546000007,,,,,,,,,,,,,,,1479.4481584999994,1479.4522546000007,1479.4522546000007,1480.3626461999993,1479.4522546000007,1481.0625877999992,f,1,1.6063847000004898,None,left,8,"[19, 20, 19, 20, 18, 19, 13, 20, 19, 20, 17, 18, 8, 9]",14,shiftedgaze_L_8.png,f,1,3,results22,001,2026-04-14_15h14.25.177,mogelijke versie adaptive staircase builder,,2026.1.3,59.977280606357326,2026-04-14 15h14.25.467099 +0200,
20.5,ecc10neg,right,41,0,41,j,0,2.146163900000829,None,0,2,2,2,41,0,41,0,1481.152621199999,,,,,,,,,,,,,,,1481.1483104,1481.152621199999,1481.152621199999,1482.0624314000015,1481.152621199999,1483.3125437999988,j,0,2.146163900000829,None,left,7,"[19, 20, 19, 20, 18, 19, 13, 20, 19, 20, 17, 18, 8, 9, 7]",15,shiftedgaze_L_7.png,j,0,3,results22,001,2026-04-14_15h14.25.177,mogelijke versie adaptive staircase builder,,2026.1.3,59.977280606357326,2026-04-14 15h14.25.467099 +0200,
20.5,ecc10neg,right,42,0,42,f,1,1.5426144000011845,None,0,2,2,2,42,0,42,0,1483.3959232000016,,,,,,,,,,,,,,,1483.3919515999987,1483.3959232000016,1483.3959232000016,1484.3124185000015,1483.3959232000016,1484.9457038,f,1,1.5426144000011845,None,right,8,"[19, 20, 19, 20, 18, 19, 13, 20, 19, 20, 17, 18, 8, 9, 7, 8]",16,shiftedgaze_R_8.png,f,1,3,results22,001,2026-04-14_15h14.25.177,mogelijke versie adaptive staircase builder,,2026.1.3,59.977280606357326,2026-04-14 15h14.25.467099 +0200,
20.5,ecc10neg,right,43,0,43,f,0,1.5742707000026712,None,0,2,2,2,43,0,43,0,1485.028364400001,,,,,,,,,,,,,,,1485.0243305000004,1485.028364400001,1485.028364400001,1485.9458257000006,1485.028364400001,1486.612666699999,f,0,1.5742707000026712,None,direct,7,"[19, 20, 19, 20, 18, 19, 13, 20, 19, 20, 17, 18, 8, 9, 7, 8, 7]",17,shifteddirectgaze.png,f,0,3,results22,001,2026-04-14_15h14.25.177,mogelijke versie adaptive staircase builder,,2026.1.3,59.977280606357326,2026-04-14 15h14.25.467099 +0200,
20.5,ecc10neg,right,44,0,44,f,1,1.794236899997486,None,0,2,2,2,44,0,44,0,1486.6962927000022,,,,,,,,,,,,,,,1486.6922435000015,1486.6962927000022,1486.6962927000022,1487.6126774000004,1486.6962927000022,1488.495958399999,f,1,1.794236899997486,None,right,8,"[19, 20, 19, 20, 18, 19, 13, 20, 19, 20, 17, 18, 8, 9, 7, 8, 7, 8]",18,shiftedgaze_R_8.png,f,1,3,results22,001,2026-04-14_15h14.25.177,mogelijke versie adaptive staircase builder,,2026.1.3,59.977280606357326,2026-04-14 15h14.25.467099 +0200,
20.5,ecc10neg,right,45,0,45,j,1,1.478688900002453,None,0,2,2,2,45,0,45,0,1488.579940800002,,,,,,,,,,,,,,,1488.5757664000012,1488.579940800002,1488.579940800002,1489.4957600999987,1488.579940800002,1490.0635337999993,j,1,1.478688900002453,None,direct,7,"[19, 20, 19, 20, 18, 19, 13, 20, 19, 20, 17, 18, 8, 9, 7, 8, 7, 8]",18,shifteddirectgaze.png,j,1,3,results22,001,2026-04-14_15h14.25.177,mogelijke versie adaptive staircase builder,,2026.1.3,59.977280606357326,2026-04-14 15h14.25.467099 +0200,
20.5,ecc10neg,right,46,0,46,f,1,1.4566770999990695,None,0,2,2,2,46,0,46,0,1490.154484999999,,,,,,,,,,,,,,,1490.1505132999991,1490.154484999999,1490.154484999999,1491.0627430000022,1490.154484999999,1491.6129733999987,f,1,1.4566770999990695,None,left,6,"[19, 20, 19, 20, 18, 19, 13, 20, 19, 20, 17, 18, 8, 9, 7, 8, 7, 8]",18,shiftedgaze_L_6.png,f,1,3,results22,001,2026-04-14_15h14.25.177,mogelijke versie adaptive staircase builder,,2026.1.3,59.977280606357326,2026-04-14 15h14.25.467099 +0200,
20.5,ecc10neg,right,47,0,47,j,0,1.6691721999995934,None,0,2,2,2,47,0,47,0,1491.7095047000003,,,,,,,,,,,,,,,1491.7036922000007,1491.7095047000003,1491.7095047000003,1492.6291007,1491.7095047000003,1493.3792821999996,j,0,1.6691721999995934,None,right,5,"[19, 20, 19, 20, 18, 19, 13, 20, 19, 20, 17, 18, 8, 9, 7, 8, 7, 8, 5]",19,shiftedgaze_R_5.png,j,0,3,results22,001,2026-04-14_15h14.25.177,mogelijke versie adaptive staircase builder,,2026.1.3,59.977280606357326,2026-04-14 15h14.25.467099 +0200,
20.5,ecc10neg,right,48,0,48,f,1,1.2851549000006344,None,0,2,2,2,48,0,48,0,1493.4613933,,,,,,,,,,,,,,,1493.4572523999996,1493.4613933,1493.4613933,1494.3792386999994,1493.4613933,1494.762604399999,f,1,1.2851549000006344,None,left,6,"[19, 20, 19, 20, 18, 19, 13, 20, 19, 20, 17, 18, 8, 9, 7, 8, 7, 8, 5, 6]",20,shiftedgaze_L_6.png,f,1,3,results22,001,2026-04-14_15h14.25.177,mogelijke versie adaptive staircase builder,,2026.1.3,59.977280606357326,2026-04-14 15h14.25.467099 +0200,
20.5,ecc10neg,right,49,0,49,f,1,1.325665599997592,None,0,2,2,2,49,0,49,0,1494.8449710000023,,,,,,,,,,,,,,,1494.8410439,1494.8449710000023,1494.8449710000023,1495.7629624,1494.8449710000023,1496.1794922000008,f,1,1.325665599997592,None,right,5,"[19, 20, 19, 20, 18, 19, 13, 20, 19, 20, 17, 18, 8, 9, 7, 8, 7, 8, 5, 6]",20,shiftedgaze_R_5.png,f,1,3,results22,001,2026-04-14_15h14.25.177,mogelijke versie adaptive staircase builder,,2026.1.3,59.977280606357326,2026-04-14 15h14.25.467099 +0200,
20.5,ecc10neg,right,50,0,50,f,1,1.6605581999974675,None,0,2,2,2,50,0,50,0,1496.270255800002,,,,,,,,,,,,,,,1496.2661550000012,1496.270255800002,1496.270255800002,1497.1796065999988,1496.270255800002,1497.9464386,f,1,1.6605581999974675,None,right,4,"[19, 20, 19, 20, 18, 19, 13, 20, 19, 20, 17, 18, 8, 9, 7, 8, 7, 8, 5, 6]",20,shiftedgaze_R_4.png,f,1,3,results22,001,2026-04-14_15h14.25.177,mogelijke versie adaptive staircase builder,,2026.1.3,59.977280606357326,2026-04-14 15h14.25.467099 +0200,
20.5,ecc10neg,right,51,0,51,f,1,1.9497473999981594,None,0,2,2,2,51,0,51,0,1498.036898800001,,,,,,,,,,,,,,,1498.0329839000005,1498.036898800001,1498.036898800001,1498.962367600001,1498.036898800001,1499.9959559000017,f,1,1.9497473999981594,None,right,3,"[19, 20, 19, 20, 18, 19, 13, 20, 19, 20, 17, 18, 8, 9, 7, 8, 7, 8, 5, 6]",20,shiftedgaze_R_3.png,f,1,3,results22,001,2026-04-14_15h14.25.177,mogelijke versie adaptive staircase builder,,2026.1.3,59.977280606357326,2026-04-14 15h14.25.467099 +0200,
20.5,ecc10neg,right,52,0,52,j,0,2.259231500000169,None,0,2,2,2,52,0,52,0,1500.0873923,,,,,,,,,,,,,,,1500.0834036000015,1500.0873923,1500.0873923,1500.995783800001,1500.0873923,1502.3626867999992,j,0,2.259231500000169,None,left,2,"[19, 20, 19, 20, 18, 19, 13, 20, 19, 20, 17, 18, 8, 9, 7, 8, 7, 8, 5, 6, 2]",21,shiftedgaze_L_2.png,j,0,3,results22,001,2026-04-14_15h14.25.177,mogelijke versie adaptive staircase builder,,2026.1.3,59.977280606357326,2026-04-14 15h14.25.467099 +0200,
20.5,ecc10neg,right,53,0,53,f,0,1.4971796999998332,None,0,2,2,2,53,0,53,0,1502.4574696000018,,,,,,,,,,,,,,,1502.4534725000012,1502.4574696000018,1502.4574696000018,1503.3625677000018,1502.4574696000018,1503.9628469000018,f,0,1.4971796999998332,None,direct,3,"[19, 20, 19, 20, 18, 19, 13, 20, 19, 20, 17, 18, 8, 9, 7, 8, 7, 8, 5, 6, 2]",21,shifteddirectgaze.png,f,0,3,results22,001,2026-04-14_15h14.25.177,mogelijke versie adaptive staircase builder,,2026.1.3,59.977280606357326,2026-04-14 15h14.25.467099 +0200,
20.5,ecc10neg,right,54,0,54,f,1,1.5289077000015823,None,0,2,2,2,54,0,54,0,1504.057721699999,,,,,,,,,,,,,,,1504.0531607000012,1504.057721699999,1504.057721699999,1504.9625966000021,1504.057721699999,1505.5960923999992,f,1,1.5289077000015823,None,right,4,"[19, 20, 19, 20, 18, 19, 13, 20, 19, 20, 17, 18, 8, 9, 7, 8, 7, 8, 5, 6, 2, 4]",22,shiftedgaze_R_4.png,f,1,3,results22,001,2026-04-14_15h14.25.177,mogelijke versie adaptive staircase builder,,2026.1.3,59.977280606357326,2026-04-14 15h14.25.467099 +0200,
20.5,ecc10neg,right,55,0,55,j,1,2.077173900001071,None,0,2,2,2,55,0,55,0,1505.6933965999997,,,,,,,,,,,,,,,1505.689046200001,1505.6933965999997,1505.6933965999997,1506.5955969999995,1505.6933965999997,1507.7796452000002,j,1,2.077173900001071,None,direct,3,"[19, 20, 19, 20, 18, 19, 13, 20, 19, 20, 17, 18, 8, 9, 7, 8, 7, 8, 5, 6, 2, 4]",22,shifteddirectgaze.png,j,1,3,results22,001,2026-04-14_15h14.25.177,mogelijke versie adaptive staircase builder,,2026.1.3,59.977280606357326,2026-04-14 15h14.25.467099 +0200,
20.5,ecc10neg,right,56,0,56,f,0,1.7357936000007612,None,0,2,2,2,56,0,56,0,1507.8750987999993,,,,,,,,,,,,,,,1507.8711498000011,1507.8750987999993,1507.8750987999993,1508.795477399999,1507.8750987999993,1509.6127430000015,f,0,1.7357936000007612,None,direct,2,"[19, 20, 19, 20, 18, 19, 13, 20, 19, 20, 17, 18, 8, 9, 7, 8, 7, 8, 5, 6, 2, 4, 2]",23,shifteddirectgaze.png,f,0,3,results22,001,2026-04-14_15h14.25.177,mogelijke versie adaptive staircase builder,,2026.1.3,59.977280606357326,2026-04-14 15h14.25.467099 +0200,
20.5,ecc10neg,right,57,0,57,f,1,1.6078737000025285,None,0,2,2,2,57,0,57,0,1509.706818900002,,,,,,,,,,,,,,,1509.702537699999,1509.706818900002,1509.706818900002,1510.6290020000015,1509.706818900002,1511.329388000002,f,1,1.6078737000025285,None,right,3,"[19, 20, 19, 20, 18, 19, 13, 20, 19, 20, 17, 18, 8, 9, 7, 8, 7, 8, 5, 6, 2, 4, 2, 3]",24,shiftedgaze_R_3.png,f,1,3,results22,001,2026-04-14_15h14.25.177,mogelijke versie adaptive staircase builder,,2026.1.3,59.977280606357326,2026-04-14 15h14.25.467099 +0200,
20.5,ecc10neg,right,58,0,58,j,0,2.139289499998995,None,0,2,2,2,58,0,58,0,1511.423380799999,,,,,,,,,,,,,,,1511.4192137999999,1511.423380799999,1511.423380799999,1512.3290258000015,1511.423380799999,1513.579248500002,j,0,2.139289499998995,None,left,2,"[19, 20, 19, 20, 18, 19, 13, 20, 19, 20, 17, 18, 8, 9, 7, 8, 7, 8, 5, 6, 2, 4, 2, 3, 2]",25,shiftedgaze_L_2.png,j,0,3,results22,001,2026-04-14_15h14.25.177,mogelijke versie adaptive staircase builder,,2026.1.3,59.977280606357326,2026-04-14 15h14.25.467099 +0200,
20.5,ecc10neg,right,59,0,59,f,1,2.0177846000005957,None,0,2,2,2,59,0,59,0,1513.6728908000005,,,,,,,,,,,,,,,1513.6689122999996,1513.6728908000005,1513.6728908000005,1514.5792402000006,1513.6728908000005,1515.6960806999996,f,1,2.0177846000005957,None,right,3,"[19, 20, 19, 20, 18, 19, 13, 20, 19, 20, 17, 18, 8, 9, 7, 8, 7, 8, 5, 6, 2, 4, 2, 3, 2, 3]",26,shiftedgaze_R_3.png,f,1,3,results22,001,2026-04-14_15h14.25.177,mogelijke versie adaptive staircase builder,,2026.1.3,59.977280606357326,2026-04-14 15h14.25.467099 +0200,
20.5,ecc10neg,right,2,2,0,,,,,0,2,2,2,,,,,,,,,,,,,,,,,,,,,,,,,,,,,,,,,,,,,,results22,001,2026-04-14_15h14.25.177,mogelijke versie adaptive staircase builder,,2026.1.3,59.977280606357326,2026-04-14 15h14.25.467099 +0200,
