xPos,stimulusSet,whichImage,thisN,thisTrialN,thisRepN,key_resp.keys,key_resp.corr,key_resp.rt,key_resp.duration,blocks.thisRepN,blocks.thisTrialN,blocks.thisN,blocks.thisIndex,trials.thisRepN,trials.thisTrialN,trials.thisN,trials.thisIndex,thisRow.t,notes,piloting,intro.started,introinstructions.started,intro_key.started,demo_image_left.started,demo_image_middle.started,demo_image_right.started,intro.stopped,intro_key.keys,intro_key.rt,intro_key.duration,block_start.started,block_start.stopped,trial.started,key_resp.started,middle_image.started,right_image.started,left_image.started,trial.stopped,trials.key_resp.keys,trials.key_resp.corr,trials.key_resp.rt,trials.key_resp.duration,direction,angle,reversal_intensities,number_reversals,stimulus,response,correct,blockNumber,participant,session,date,expName,expVersion,psychopyVersion,frameRate,expStart,
,,,,,,,,,,,,,,,,,,,,False,0.0037359999996624538,0.00677209999957995,0.00677209999957995,0.00677209999957995,0.00677209999957995,0.00677209999957995,656.6285478999998,space,656.4624539000006,0.14367760000004637,,,,,,,,,,,,,,,,,,,,,results13,001,2026-04-14_11h17.01.657,mogelijke versie adaptive staircase builder,,2026.1.3,59.98271298217992,2026-04-14 11h17.01.850648 +0200,
4.5,ecc10pos,left,0,0,0,f,1,8.080518300000222,None,0,0,0,0,0,0,0,0,656.9406671999996,,,,,,,,,,,,,656.8207147999992,656.8207622,656.9373431999993,656.9406671999996,656.9406671999996,656.9406671999996,657.8276656999997,665.0285096999996,f,1,8.080518300000222,None,left,20,[],0,shiftedgaze_L_20.png,f,1,1,results13,001,2026-04-14_11h17.01.657,mogelijke versie adaptive staircase builder,,2026.1.3,59.98271298217992,2026-04-14 11h17.01.850648 +0200,
4.5,ecc10pos,left,1,0,1,f,0,7.02277740000045,None,0,0,0,0,1,0,1,0,665.1744196,,,,,,,,,,,,,,,665.1707600999998,665.1744196,665.1744196,665.1744196,666.0444369999996,672.2118031999998,f,0,7.02277740000045,None,direct,19,[19],1,shifteddirectgaze.png,f,0,1,results13,001,2026-04-14_11h17.01.657,mogelijke versie adaptive staircase builder,,2026.1.3,59.98271298217992,2026-04-14 11h17.01.850648 +0200,
4.5,ecc10pos,left,2,0,2,j,0,22.260498000000553,None,0,0,0,0,2,0,2,0,672.3206515999991,,,,,,,,,,,,,,,672.3030892999996,672.3206515999991,672.3206515999991,672.3206515999991,673.2281823999992,694.5951561999991,j,0,22.260498000000553,None,left,20,[19],1,shiftedgaze_L_20.png,j,0,1,results13,001,2026-04-14_11h17.01.657,mogelijke versie adaptive staircase builder,,2026.1.3,59.98271298217992,2026-04-14 11h17.01.850648 +0200,
4.5,ecc10pos,left,3,0,3,f,0,2.2639028000003236,None,0,0,0,0,3,0,3,0,694.7008598999992,,,,,,,,,,,,,,,694.6906693999999,694.7008598999992,694.7008598999992,694.7008598999992,695.5948075999995,696.9779199999994,f,0,2.2639028000003236,None,direct,20,[19],1,shifteddirectgaze.png,f,0,1,results13,001,2026-04-14_11h17.01.657,mogelijke versie adaptive staircase builder,,2026.1.3,59.98271298217992,2026-04-14 11h17.01.850648 +0200,
4.5,ecc10pos,left,4,0,4,f,0,2.3651356999998825,None,0,0,0,0,4,0,4,0,697.0636138,,,,,,,,,,,,,,,697.0593299999991,697.0636138,697.0636138,697.0636138,697.9778614999996,699.4446056999996,f,0,2.3651356999998825,None,direct,20,[19],1,shifteddirectgaze.png,f,0,1,results13,001,2026-04-14_11h17.01.657,mogelijke versie adaptive staircase builder,,2026.1.3,59.98271298217992,2026-04-14 11h17.01.850648 +0200,
4.5,ecc10pos,left,5,0,5,j,0,3.626160200000413,None,0,0,0,0,5,0,5,0,699.5625400999998,,,,,,,,,,,,,,,699.5527688999991,699.5625400999998,699.5625400999998,699.5625400999998,700.4444798999994,703.1946982,j,0,3.626160200000413,None,left,20,[19],1,shiftedgaze_L_20.png,j,0,1,results13,001,2026-04-14_11h17.01.657,mogelijke versie adaptive staircase builder,,2026.1.3,59.98271298217992,2026-04-14 11h17.01.850648 +0200,
4.5,ecc10pos,left,6,0,6,f,0,3.0842906999996558,None,0,0,0,0,6,0,6,0,703.3044110999999,,,,,,,,,,,,,,,703.2946785999993,703.3044110999999,703.3044110999999,703.3044110999999,704.1944090999996,706.3945686999996,f,0,3.0842906999996558,None,direct,20,[19],1,shifteddirectgaze.png,f,0,1,results13,001,2026-04-14_11h17.01.657,mogelijke versie adaptive staircase builder,,2026.1.3,59.98271298217992,2026-04-14 11h17.01.850648 +0200,
4.5,ecc10pos,left,7,0,7,f,0,2.8958508000005168,None,0,0,0,0,7,0,7,0,706.4849365999999,,,,,,,,,,,,,,,706.4808782999999,706.4849365999999,706.4849365999999,706.4849365999999,707.3944271999999,709.3945791999995,f,0,2.8958508000005168,None,direct,20,[19],1,shifteddirectgaze.png,f,0,1,results13,001,2026-04-14_11h17.01.657,mogelijke versie adaptive staircase builder,,2026.1.3,59.98271298217992,2026-04-14 11h17.01.850648 +0200,
4.5,ecc10pos,left,8,0,8,j,1,2.787361300000157,None,0,0,0,0,8,0,8,0,709.4813077999997,,,,,,,,,,,,,,,709.4772992999997,709.4813077999997,709.4813077999997,709.4813077999997,710.3942370999994,712.2779151999994,j,1,2.787361300000157,None,direct,20,"[19, 20]",2,shifteddirectgaze.png,j,1,1,results13,001,2026-04-14_11h17.01.657,mogelijke versie adaptive staircase builder,,2026.1.3,59.98271298217992,2026-04-14 11h17.01.850648 +0200,
4.5,ecc10pos,left,9,0,9,f,0,2.6619926000003034,None,0,0,0,0,9,0,9,0,712.3666650999994,,,,,,,,,,,,,,,712.3619525999993,712.3666650999994,712.3666650999994,712.3666650999994,713.2777619999997,715.0447152999996,f,0,2.6619926000003034,None,direct,19,"[19, 20, 19]",3,shifteddirectgaze.png,f,0,1,results13,001,2026-04-14_11h17.01.657,mogelijke versie adaptive staircase builder,,2026.1.3,59.98271298217992,2026-04-14 11h17.01.850648 +0200,
4.5,ecc10pos,left,10,0,10,f,0,3.110137799999393,None,0,0,0,0,10,0,10,0,715.1266357999993,,,,,,,,,,,,,,,715.1224441999993,715.1266357999993,715.1266357999993,715.1266357999993,716.0444162999993,718.2445581999991,f,0,3.110137799999393,None,direct,20,"[19, 20, 19]",3,shifteddirectgaze.png,f,0,1,results13,001,2026-04-14_11h17.01.657,mogelijke versie adaptive staircase builder,,2026.1.3,59.98271298217992,2026-04-14 11h17.01.850648 +0200,
4.5,ecc10pos,left,11,0,11,j,0,2.6981974999998783,None,0,0,0,0,11,0,11,0,718.3385037999997,,,,,,,,,,,,,,,718.3341695999998,718.3385037999997,718.3385037999997,718.3385037999997,719.2442630999994,721.0446486999999,j,0,2.6981974999998783,None,right,20,"[19, 20, 19]",3,shiftedgaze_R_20.png,j,0,1,results13,001,2026-04-14_11h17.01.657,mogelijke versie adaptive staircase builder,,2026.1.3,59.98271298217992,2026-04-14 11h17.01.850648 +0200,
4.5,ecc10pos,left,12,0,12,f,0,2.3578293999999005,None,0,0,0,0,12,0,12,0,721.1269394999999,,,,,,,,,,,,,,,721.1225398999995,721.1269394999999,721.1269394999999,721.1269394999999,722.0444373999999,723.4945580999993,f,0,2.3578293999999005,None,direct,20,"[19, 20, 19]",3,shifteddirectgaze.png,f,0,1,results13,001,2026-04-14_11h17.01.657,mogelijke versie adaptive staircase builder,,2026.1.3,59.98271298217992,2026-04-14 11h17.01.850648 +0200,
4.5,ecc10pos,left,13,0,13,f,1,2.710073299999749,None,0,0,0,0,13,0,13,0,723.5988043999996,,,,,,,,,,,,,,,723.5883392999995,723.5988043999996,723.5988043999996,723.5988043999996,724.4950081999996,726.3117788999998,f,1,2.710073299999749,None,left,20,"[19, 20, 19, 20]",4,shiftedgaze_L_20.png,f,1,1,results13,001,2026-04-14_11h17.01.657,mogelijke versie adaptive staircase builder,,2026.1.3,59.98271298217992,2026-04-14 11h17.01.850648 +0200,
4.5,ecc10pos,left,14,0,14,j,0,2.337842300000375,None,0,0,0,0,14,0,14,0,726.4189385999998,,,,,,,,,,,,,,,726.4025931999995,726.4189385999998,726.4189385999998,726.4189385999998,727.3288052999997,728.7612384999993,j,0,2.337842300000375,None,right,19,"[19, 20, 19, 20, 19]",5,shiftedgaze_R_19.png,j,0,1,results13,001,2026-04-14_11h17.01.657,mogelijke versie adaptive staircase builder,,2026.1.3,59.98271298217992,2026-04-14 11h17.01.850648 +0200,
4.5,ecc10pos,left,15,0,15,j,0,2.223724100000254,None,0,0,0,0,15,0,15,0,728.8529595,,,,,,,,,,,,,,,728.8433972999992,728.8529595,728.8529595,728.8529595,729.7611092999996,731.0779144999997,j,0,2.223724100000254,None,right,20,"[19, 20, 19, 20, 19]",5,shiftedgaze_R_20.png,j,0,1,results13,001,2026-04-14_11h17.01.657,mogelijke versie adaptive staircase builder,,2026.1.3,59.98271298217992,2026-04-14 11h17.01.850648 +0200,
4.5,ecc10pos,left,16,0,16,j,0,2.723123200000373,None,0,0,0,0,16,0,16,0,731.1616439999998,,,,,,,,,,,,,,,731.1577516999996,731.1616439999998,731.1616439999998,731.1616439999998,732.0777451999993,733.8946100999992,j,0,2.723123200000373,None,right,20,"[19, 20, 19, 20, 19]",5,shiftedgaze_R_20.png,j,0,1,results13,001,2026-04-14_11h17.01.657,mogelijke versie adaptive staircase builder,,2026.1.3,59.98271298217992,2026-04-14 11h17.01.850648 +0200,
4.5,ecc10pos,left,17,0,17,f,1,2.326603000000432,None,0,0,0,0,17,0,17,0,733.9901707999998,,,,,,,,,,,,,,,733.9806485999998,733.9901707999998,733.9901707999998,733.9901707999998,734.8943741999992,736.3279709999997,f,1,2.326603000000432,None,left,20,"[19, 20, 19, 20, 19, 20]",6,shiftedgaze_L_20.png,f,1,1,results13,001,2026-04-14_11h17.01.657,mogelijke versie adaptive staircase builder,,2026.1.3,59.98271298217992,2026-04-14 11h17.01.850648 +0200,
4.5,ecc10pos,left,18,0,18,f,0,2.111115300000165,None,0,0,0,0,18,0,18,0,736.4215536999991,,,,,,,,,,,,,,,736.4112134999996,736.4215536999991,736.4215536999991,736.4215536999991,737.3277665999994,738.5445829999999,f,0,2.111115300000165,None,direct,19,"[19, 20, 19, 20, 19, 20, 19]",7,shifteddirectgaze.png,f,0,1,results13,001,2026-04-14_11h17.01.657,mogelijke versie adaptive staircase builder,,2026.1.3,59.98271298217992,2026-04-14 11h17.01.850648 +0200,
4.5,ecc10pos,left,19,0,19,f,1,1.994400499999756,None,0,0,0,0,19,0,19,0,738.6423658999993,,,,,,,,,,,,,,,738.6327566999998,738.6423658999993,738.6423658999993,738.6423658999993,739.5443990999993,740.6445872999993,f,1,1.994400499999756,None,left,20,"[19, 20, 19, 20, 19, 20, 19, 20]",8,shiftedgaze_L_20.png,f,1,1,results13,001,2026-04-14_11h17.01.657,mogelijke versie adaptive staircase builder,,2026.1.3,59.98271298217992,2026-04-14 11h17.01.850648 +0200,
4.5,ecc10pos,left,20,0,20,f,1,3.054341499999282,None,0,0,0,0,20,0,20,0,740.7427766999999,,,,,,,,,,,,,,,740.7387647999994,740.7427766999999,740.7427766999999,740.7427766999999,741.6449613999994,743.8117102999995,f,1,3.054341499999282,None,left,19,"[19, 20, 19, 20, 19, 20, 19, 20]",8,shiftedgaze_L_19.png,f,1,1,results13,001,2026-04-14_11h17.01.657,mogelijke versie adaptive staircase builder,,2026.1.3,59.98271298217992,2026-04-14 11h17.01.850648 +0200,
4.5,ecc10pos,left,21,0,21,f,0,2.915641699999469,None,0,0,0,0,21,0,21,0,743.9054927999996,,,,,,,,,,,,,,,743.8950618999997,743.9054927999996,743.9054927999996,743.9054927999996,744.8113060999995,746.8285473999995,f,0,2.915641699999469,None,direct,18,"[19, 20, 19, 20, 19, 20, 19, 20, 18]",9,shifteddirectgaze.png,f,0,1,results13,001,2026-04-14_11h17.01.657,mogelijke versie adaptive staircase builder,,2026.1.3,59.98271298217992,2026-04-14 11h17.01.850648 +0200,
4.5,ecc10pos,left,22,0,22,j,0,2.1650002999995195,None,0,0,0,0,22,0,22,0,746.9279267999991,,,,,,,,,,,,,,,746.9180466999996,746.9279267999991,746.9279267999991,746.9279267999991,747.8443752999992,749.0945616999998,j,0,2.1650002999995195,None,right,19,"[19, 20, 19, 20, 19, 20, 19, 20, 18]",9,shiftedgaze_R_19.png,j,0,1,results13,001,2026-04-14_11h17.01.657,mogelijke versie adaptive staircase builder,,2026.1.3,59.98271298217992,2026-04-14 11h17.01.850648 +0200,
4.5,ecc10pos,left,23,0,23,j,0,3.7157798999996885,None,0,0,0,0,23,0,23,0,749.1929941999997,,,,,,,,,,,,,,,749.1823949,749.1929941999997,749.1929941999997,749.1929941999997,750.0943957999998,752.9112974999998,j,0,3.7157798999996885,None,left,20,"[19, 20, 19, 20, 19, 20, 19, 20, 18]",9,shiftedgaze_L_20.png,j,0,1,results13,001,2026-04-14_11h17.01.657,mogelijke versie adaptive staircase builder,,2026.1.3,59.98271298217992,2026-04-14 11h17.01.850648 +0200,
4.5,ecc10pos,left,24,0,24,f,1,2.4443733999996766,None,0,0,0,0,24,0,24,0,753.0005757999998,,,,,,,,,,,,,,,752.9965408999997,753.0005757999998,753.0005757999998,753.0005757999998,753.9111142999991,755.4455364999994,f,1,2.4443733999996766,None,left,20,"[19, 20, 19, 20, 19, 20, 19, 20, 18, 20]",10,shiftedgaze_L_20.png,f,1,1,results13,001,2026-04-14_11h17.01.657,mogelijke versie adaptive staircase builder,,2026.1.3,59.98271298217992,2026-04-14 11h17.01.850648 +0200,
4.5,ecc10pos,left,25,0,25,f,1,3.1076247000000876,None,0,0,0,0,25,0,25,0,755.5373542999996,,,,,,,,,,,,,,,755.5276041999996,755.5373542999996,755.5373542999996,755.5373542999996,756.4610945999993,758.6453742999993,f,1,3.1076247000000876,None,right,19,"[19, 20, 19, 20, 19, 20, 19, 20, 18, 20]",10,shiftedgaze_R_19.png,f,1,1,results13,001,2026-04-14_11h17.01.657,mogelijke versie adaptive staircase builder,,2026.1.3,59.98271298217992,2026-04-14 11h17.01.850648 +0200,
4.5,ecc10pos,left,26,0,26,j,0,3.5582291000000623,None,0,0,0,0,26,0,26,0,758.7429384999996,,,,,,,,,,,,,,,758.7337647999993,758.7429384999996,758.7429384999996,758.7429384999996,759.6447263999999,762.3117480999999,j,0,3.5582291000000623,None,right,18,"[19, 20, 19, 20, 19, 20, 19, 20, 18, 20, 18]",11,shiftedgaze_R_18.png,j,0,1,results13,001,2026-04-14_11h17.01.657,mogelijke versie adaptive staircase builder,,2026.1.3,59.98271298217992,2026-04-14 11h17.01.850648 +0200,
4.5,ecc10pos,left,27,0,27,f,1,2.838082100000065,None,0,0,0,0,27,0,27,0,762.4068831999994,,,,,,,,,,,,,,,762.3975081999997,762.4068831999994,762.4068831999994,762.4068831999994,763.3114979999991,765.2453726999993,f,1,2.838082100000065,None,left,19,"[19, 20, 19, 20, 19, 20, 19, 20, 18, 20, 18, 19]",12,shiftedgaze_L_19.png,f,1,1,results13,001,2026-04-14_11h17.01.657,mogelijke versie adaptive staircase builder,,2026.1.3,59.98271298217992,2026-04-14 11h17.01.850648 +0200,
4.5,ecc10pos,left,28,0,28,f,1,2.672024700000293,None,0,0,0,0,28,0,28,0,765.3408625999991,,,,,,,,,,,,,,,765.3282729999992,765.3408625999991,765.3408625999991,765.3408625999991,766.2614860999993,768.0278481999994,f,1,2.672024700000293,None,right,18,"[19, 20, 19, 20, 19, 20, 19, 20, 18, 20, 18, 19]",12,shiftedgaze_R_18.png,f,1,1,results13,001,2026-04-14_11h17.01.657,mogelijke versie adaptive staircase builder,,2026.1.3,59.98271298217992,2026-04-14 11h17.01.850648 +0200,
4.5,ecc10pos,left,29,0,29,j,1,2.177022400000169,None,0,0,0,0,29,0,29,0,768.1162933999994,,,,,,,,,,,,,,,768.1123071999991,768.1162933999994,768.1162933999994,768.1162933999994,769.0281668999996,770.2950497999991,j,1,2.177022400000169,None,direct,17,"[19, 20, 19, 20, 19, 20, 19, 20, 18, 20, 18, 19]",12,shifteddirectgaze.png,j,1,1,results13,001,2026-04-14_11h17.01.657,mogelijke versie adaptive staircase builder,,2026.1.3,59.98271298217992,2026-04-14 11h17.01.850648 +0200,
4.5,ecc10pos,left,30,0,30,j,0,3.244903400000112,None,0,0,0,0,30,0,30,0,770.3923450999991,,,,,,,,,,,,,,,770.3827804999992,770.3923450999991,770.3923450999991,770.3923450999991,771.2948296999994,773.6450974999998,j,0,3.244903400000112,None,left,16,"[19, 20, 19, 20, 19, 20, 19, 20, 18, 20, 18, 19, 16]",13,shiftedgaze_L_16.png,j,0,1,results13,001,2026-04-14_11h17.01.657,mogelijke versie adaptive staircase builder,,2026.1.3,59.98271298217992,2026-04-14 11h17.01.850648 +0200,
4.5,ecc10pos,left,31,0,31,j,1,2.201767600000494,None,0,0,0,0,31,0,31,0,773.7390073999995,,,,,,,,,,,,,,,773.7290358999999,773.7390073999995,773.7390073999995,773.7390073999995,774.6447916999996,775.9443724999992,j,1,2.201767600000494,None,direct,17,"[19, 20, 19, 20, 19, 20, 19, 20, 18, 20, 18, 19, 16, 17]",14,shifteddirectgaze.png,j,1,1,results13,001,2026-04-14_11h17.01.657,mogelijke versie adaptive staircase builder,,2026.1.3,59.98271298217992,2026-04-14 11h17.01.850648 +0200,
4.5,ecc10pos,left,32,0,32,f,0,1.9857861000000412,None,0,0,0,0,32,0,32,0,776.0273633999996,,,,,,,,,,,,,,,776.0231245999994,776.0273633999996,776.0273633999996,776.0273633999996,776.9448031999991,778.0280551999995,f,0,1.9857861000000412,None,direct,16,"[19, 20, 19, 20, 19, 20, 19, 20, 18, 20, 18, 19, 16, 17, 16]",15,shifteddirectgaze.png,f,0,1,results13,001,2026-04-14_11h17.01.657,mogelijke versie adaptive staircase builder,,2026.1.3,59.98271298217992,2026-04-14 11h17.01.850648 +0200,
4.5,ecc10pos,left,33,0,33,f,1,1.9138845999996192,None,0,0,0,0,33,0,33,0,778.1243932999996,,,,,,,,,,,,,,,778.1145736999997,778.1243932999996,778.1243932999996,778.1243932999996,779.0277373999998,780.0453187999992,f,1,1.9138845999996192,None,left,17,"[19, 20, 19, 20, 19, 20, 19, 20, 18, 20, 18, 19, 16, 17, 16, 17]",16,shiftedgaze_L_17.png,f,1,1,results13,001,2026-04-14_11h17.01.657,mogelijke versie adaptive staircase builder,,2026.1.3,59.98271298217992,2026-04-14 11h17.01.850648 +0200,
4.5,ecc10pos,left,34,0,34,f,1,2.7542567999998937,None,0,0,0,0,34,0,34,0,780.1390963999993,,,,,,,,,,,,,,,780.1344637999991,780.1390963999993,780.1390963999993,780.1390963999993,781.0614082999991,782.8946954999992,f,1,2.7542567999998937,None,left,16,"[19, 20, 19, 20, 19, 20, 19, 20, 18, 20, 18, 19, 16, 17, 16, 17]",16,shiftedgaze_L_16.png,f,1,1,results13,001,2026-04-14_11h17.01.657,mogelijke versie adaptive staircase builder,,2026.1.3,59.98271298217992,2026-04-14 11h17.01.850648 +0200,
4.5,ecc10pos,left,35,0,35,f,1,2.6056134999998903,None,0,0,0,0,35,0,35,0,782.9912768999993,,,,,,,,,,,,,,,782.980568,782.9912768999993,782.9912768999993,782.9912768999993,783.8944584999999,785.6113330999997,f,1,2.6056134999998903,None,left,15,"[19, 20, 19, 20, 19, 20, 19, 20, 18, 20, 18, 19, 16, 17, 16, 17]",16,shiftedgaze_L_15.png,f,1,1,results13,001,2026-04-14_11h17.01.657,mogelijke versie adaptive staircase builder,,2026.1.3,59.98271298217992,2026-04-14 11h17.01.850648 +0200,
4.5,ecc10pos,left,36,0,36,j,1,1.9704101999996055,None,0,0,0,0,36,0,36,0,785.7147606999997,,,,,,,,,,,,,,,785.7042147999991,785.7147606999997,785.7147606999997,785.7147606999997,786.6109381999995,787.6949922999993,j,1,1.9704101999996055,None,direct,14,"[19, 20, 19, 20, 19, 20, 19, 20, 18, 20, 18, 19, 16, 17, 16, 17]",16,shifteddirectgaze.png,j,1,1,results13,001,2026-04-14_11h17.01.657,mogelijke versie adaptive staircase builder,,2026.1.3,59.98271298217992,2026-04-14 11h17.01.850648 +0200,
4.5,ecc10pos,left,37,0,37,j,0,2.2938333000001876,None,0,0,0,0,37,0,37,0,787.7834591999999,,,,,,,,,,,,,,,787.7794553999993,787.7834591999999,787.7834591999999,787.7834591999999,788.6948370999999,790.0781557999999,j,0,2.2938333000001876,None,left,13,"[19, 20, 19, 20, 19, 20, 19, 20, 18, 20, 18, 19, 16, 17, 16, 17, 13]",17,shiftedgaze_L_13.png,j,0,1,results13,001,2026-04-14_11h17.01.657,mogelijke versie adaptive staircase builder,,2026.1.3,59.98271298217992,2026-04-14 11h17.01.850648 +0200,
4.5,ecc10pos,left,38,0,38,j,1,2.5379541000002064,None,0,0,0,0,38,0,38,0,790.1632954999995,,,,,,,,,,,,,,,790.1593162999998,790.1632954999995,790.1632954999995,790.1632954999995,791.0942787999993,792.7113507999993,j,1,2.5379541000002064,None,direct,14,"[19, 20, 19, 20, 19, 20, 19, 20, 18, 20, 18, 19, 16, 17, 16, 17, 13, 14]",18,shifteddirectgaze.png,j,1,1,results13,001,2026-04-14_11h17.01.657,mogelijke versie adaptive staircase builder,,2026.1.3,59.98271298217992,2026-04-14 11h17.01.850648 +0200,
4.5,ecc10pos,left,39,0,39,j,1,2.665206199999375,None,0,0,0,0,39,0,39,0,792.7957698999999,,,,,,,,,,,,,,,792.7917080999996,792.7957698999999,792.7957698999999,792.7957698999999,793.7113956999992,795.4613566999997,j,1,2.665206199999375,None,direct,13,"[19, 20, 19, 20, 19, 20, 19, 20, 18, 20, 18, 19, 16, 17, 16, 17, 13, 14]",18,shifteddirectgaze.png,j,1,1,results13,001,2026-04-14_11h17.01.657,mogelijke versie adaptive staircase builder,,2026.1.3,59.98271298217992,2026-04-14 11h17.01.850648 +0200,
4.5,ecc10pos,left,40,0,40,f,1,2.283695699999953,None,0,0,0,0,40,0,40,0,795.5451416999995,,,,,,,,,,,,,,,795.5410630999995,795.5451416999995,795.5451416999995,795.5451416999995,796.4608639999997,797.8445764999997,f,1,2.283695699999953,None,right,12,"[19, 20, 19, 20, 19, 20, 19, 20, 18, 20, 18, 19, 16, 17, 16, 17, 13, 14]",18,shiftedgaze_R_12.png,f,1,1,results13,001,2026-04-14_11h17.01.657,mogelijke versie adaptive staircase builder,,2026.1.3,59.98271298217992,2026-04-14 11h17.01.850648 +0200,
4.5,ecc10pos,left,41,0,41,f,0,1.9707177000000229,None,0,0,0,0,41,0,41,0,797.9303406999998,,,,,,,,,,,,,,,797.9263639999999,797.9303406999998,797.9303406999998,797.9303406999998,798.8444957999991,799.9116814999998,f,0,1.9707177000000229,None,direct,11,"[19, 20, 19, 20, 19, 20, 19, 20, 18, 20, 18, 19, 16, 17, 16, 17, 13, 14, 11]",19,shifteddirectgaze.png,f,0,1,results13,001,2026-04-14_11h17.01.657,mogelijke versie adaptive staircase builder,,2026.1.3,59.98271298217992,2026-04-14 11h17.01.850648 +0200,
4.5,ecc10pos,left,42,0,42,f,1,2.1447259999995367,None,0,0,0,0,42,0,42,0,799.9960306999992,,,,,,,,,,,,,,,799.9917474999993,799.9960306999992,799.9960306999992,799.9960306999992,800.9281412999999,802.1445696999999,f,1,2.1447259999995367,None,right,12,"[19, 20, 19, 20, 19, 20, 19, 20, 18, 20, 18, 19, 16, 17, 16, 17, 13, 14, 11, 12]",20,shiftedgaze_R_12.png,f,1,1,results13,001,2026-04-14_11h17.01.657,mogelijke versie adaptive staircase builder,,2026.1.3,59.98271298217992,2026-04-14 11h17.01.850648 +0200,
4.5,ecc10pos,left,43,0,43,f,1,1.9910715999994864,None,0,0,0,0,43,0,43,0,802.6139599999997,,,,,,,,,,,,,,,802.6095585999992,802.6139599999997,802.6139599999997,802.6139599999997,803.1445389999999,804.6117824999992,f,1,1.9910715999994864,None,right,11,"[19, 20, 19, 20, 19, 20, 19, 20, 18, 20, 18, 19, 16, 17, 16, 17, 13, 14, 11, 12]",20,shiftedgaze_R_11.png,f,1,1,results13,001,2026-04-14_11h17.01.657,mogelijke versie adaptive staircase builder,,2026.1.3,59.98271298217992,2026-04-14 11h17.01.850648 +0200,
4.5,ecc10pos,left,44,0,44,j,0,2.91558459999942,None,0,0,0,0,44,0,44,0,804.8012341999993,,,,,,,,,,,,,,,804.7973116999992,804.8012341999993,804.8012341999993,804.8012341999993,805.6278438999998,807.7280414999996,j,0,2.91558459999942,None,right,10,"[19, 20, 19, 20, 19, 20, 19, 20, 18, 20, 18, 19, 16, 17, 16, 17, 13, 14, 11, 12, 10]",21,shiftedgaze_R_10.png,j,0,1,results13,001,2026-04-14_11h17.01.657,mogelijke versie adaptive staircase builder,,2026.1.3,59.98271298217992,2026-04-14 11h17.01.850648 +0200,
4.5,ecc10pos,left,45,0,45,f,1,1.992992399999821,None,0,0,0,0,45,0,45,0,807.8121884999991,,,,,,,,,,,,,,,807.8082211999999,807.8121884999991,807.8121884999991,807.8121884999991,808.7278465999998,809.8117510999991,f,1,1.992992399999821,None,right,11,"[19, 20, 19, 20, 19, 20, 19, 20, 18, 20, 18, 19, 16, 17, 16, 17, 13, 14, 11, 12, 10, 11]",22,shiftedgaze_R_11.png,f,1,1,results13,001,2026-04-14_11h17.01.657,mogelijke versie adaptive staircase builder,,2026.1.3,59.98271298217992,2026-04-14 11h17.01.850648 +0200,
4.5,ecc10pos,left,46,0,46,f,1,1.9094401000002108,None,0,0,0,0,46,0,46,0,809.8953898999998,,,,,,,,,,,,,,,809.8914640999992,809.8953898999998,809.8953898999998,809.8953898999998,810.8114762999994,811.8111667999992,f,1,1.9094401000002108,None,right,10,"[19, 20, 19, 20, 19, 20, 19, 20, 18, 20, 18, 19, 16, 17, 16, 17, 13, 14, 11, 12, 10, 11]",22,shiftedgaze_R_10.png,f,1,1,results13,001,2026-04-14_11h17.01.657,mogelijke versie adaptive staircase builder,,2026.1.3,59.98271298217992,2026-04-14 11h17.01.850648 +0200,
4.5,ecc10pos,left,47,0,47,j,1,1.8135007999999289,None,0,0,0,0,47,0,47,0,811.8953457999996,,,,,,,,,,,,,,,811.8912762,811.8953457999996,811.8953457999996,811.8953457999996,812.8114757999992,813.7112187999992,j,1,1.8135007999999289,None,direct,9,"[19, 20, 19, 20, 19, 20, 19, 20, 18, 20, 18, 19, 16, 17, 16, 17, 13, 14, 11, 12, 10, 11]",22,shifteddirectgaze.png,j,1,1,results13,001,2026-04-14_11h17.01.657,mogelijke versie adaptive staircase builder,,2026.1.3,59.98271298217992,2026-04-14 11h17.01.850648 +0200,
4.5,ecc10pos,left,48,0,48,f,1,1.5243911999996271,None,0,0,0,0,48,0,48,0,813.9366819999996,,,,,,,,,,,,,,,813.9325101999993,813.9366819999996,813.9366819999996,813.9366819999996,814.7114969999993,815.4618287999992,f,1,1.5243911999996271,None,right,8,"[19, 20, 19, 20, 19, 20, 19, 20, 18, 20, 18, 19, 16, 17, 16, 17, 13, 14, 11, 12, 10, 11]",22,shiftedgaze_R_8.png,f,1,1,results13,001,2026-04-14_11h17.01.657,mogelijke versie adaptive staircase builder,,2026.1.3,59.98271298217992,2026-04-14 11h17.01.850648 +0200,
4.5,ecc10pos,left,49,0,49,f,1,1.7163828000002468,None,0,0,0,0,49,0,49,0,815.6644027999992,,,,,,,,,,,,,,,815.6601537999995,815.6644027999992,815.6644027999992,815.6644027999992,816.4776717999994,817.3945709,f,1,1.7163828000002468,None,left,7,"[19, 20, 19, 20, 19, 20, 19, 20, 18, 20, 18, 19, 16, 17, 16, 17, 13, 14, 11, 12, 10, 11]",22,shiftedgaze_L_7.png,f,1,1,results13,001,2026-04-14_11h17.01.657,mogelijke versie adaptive staircase builder,,2026.1.3,59.98271298217992,2026-04-14 11h17.01.850648 +0200,
4.5,ecc10pos,left,50,0,50,j,0,1.7164796999995815,None,0,0,0,0,50,0,50,0,817.4802069999996,,,,,,,,,,,,,,,817.4761274999992,817.4802069999996,817.4802069999996,817.4802069999996,818.3944770999997,819.2112682999996,j,0,1.7164796999995815,None,right,6,"[19, 20, 19, 20, 19, 20, 19, 20, 18, 20, 18, 19, 16, 17, 16, 17, 13, 14, 11, 12, 10, 11, 6]",23,shiftedgaze_R_6.png,j,0,1,results13,001,2026-04-14_11h17.01.657,mogelijke versie adaptive staircase builder,,2026.1.3,59.98271298217992,2026-04-14 11h17.01.850648 +0200,
4.5,ecc10pos,left,51,0,51,f,1,1.9111822000004395,None,0,0,0,0,51,0,51,0,819.3095856999998,,,,,,,,,,,,,,,819.3055465999996,819.3095856999998,819.3095856999998,819.3095856999998,820.2109956999993,821.2279471999991,f,1,1.9111822000004395,None,right,7,"[19, 20, 19, 20, 19, 20, 19, 20, 18, 20, 18, 19, 16, 17, 16, 17, 13, 14, 11, 12, 10, 11, 6, 7]",24,shiftedgaze_R_7.png,f,1,1,results13,001,2026-04-14_11h17.01.657,mogelijke versie adaptive staircase builder,,2026.1.3,59.98271298217992,2026-04-14 11h17.01.850648 +0200,
4.5,ecc10pos,left,52,0,52,f,1,2.0177196000004187,None,0,0,0,0,52,0,52,0,821.3789536999993,,,,,,,,,,,,,,,821.3749315999994,821.3789536999993,821.3789536999993,821.3789536999993,822.2276967999996,823.4112885999994,f,1,2.0177196000004187,None,left,6,"[19, 20, 19, 20, 19, 20, 19, 20, 18, 20, 18, 19, 16, 17, 16, 17, 13, 14, 11, 12, 10, 11, 6, 7]",24,shiftedgaze_L_6.png,f,1,1,results13,001,2026-04-14_11h17.01.657,mogelijke versie adaptive staircase builder,,2026.1.3,59.98271298217992,2026-04-14 11h17.01.850648 +0200,
4.5,ecc10pos,left,53,0,53,f,1,2.1413689000000886,None,0,0,0,0,53,0,53,0,823.4954072999999,,,,,,,,,,,,,,,823.4913508999998,823.4954072999999,823.4954072999999,823.4954072999999,824.4110999999994,825.6446182,f,1,2.1413689000000886,None,right,5,"[19, 20, 19, 20, 19, 20, 19, 20, 18, 20, 18, 19, 16, 17, 16, 17, 13, 14, 11, 12, 10, 11, 6, 7]",24,shiftedgaze_R_5.png,f,1,1,results13,001,2026-04-14_11h17.01.657,mogelijke versie adaptive staircase builder,,2026.1.3,59.98271298217992,2026-04-14 11h17.01.850648 +0200,
4.5,ecc10pos,left,54,0,54,j,1,2.044462800000474,None,0,0,0,0,54,0,54,0,825.7283169999992,,,,,,,,,,,,,,,825.7241909999993,825.7283169999992,825.7283169999992,825.7283169999992,826.6445336999996,827.7779639999999,j,1,2.044462800000474,None,direct,4,"[19, 20, 19, 20, 19, 20, 19, 20, 18, 20, 18, 19, 16, 17, 16, 17, 13, 14, 11, 12, 10, 11, 6, 7]",24,shifteddirectgaze.png,j,1,1,results13,001,2026-04-14_11h17.01.657,mogelijke versie adaptive staircase builder,,2026.1.3,59.98271298217992,2026-04-14 11h17.01.850648 +0200,
4.5,ecc10pos,left,55,0,55,j,0,2.3564182000000073,None,0,0,0,0,55,0,55,0,827.9763716999996,,,,,,,,,,,,,,,827.9717776999996,827.9763716999996,827.9763716999996,827.9763716999996,828.7778681,830.3445694999991,j,0,2.3564182000000073,None,left,3,"[19, 20, 19, 20, 19, 20, 19, 20, 18, 20, 18, 19, 16, 17, 16, 17, 13, 14, 11, 12, 10, 11, 6, 7, 3]",25,shiftedgaze_L_3.png,j,0,1,results13,001,2026-04-14_11h17.01.657,mogelijke versie adaptive staircase builder,,2026.1.3,59.98271298217992,2026-04-14 11h17.01.850648 +0200,
4.5,ecc10pos,left,56,0,56,f,1,2.041700199999468,None,0,0,0,0,56,0,56,0,830.4430560999999,,,,,,,,,,,,,,,830.4383270999997,830.4430560999999,830.4430560999999,830.4430560999999,831.3445468,832.4949395999993,f,1,2.041700199999468,None,left,4,"[19, 20, 19, 20, 19, 20, 19, 20, 18, 20, 18, 19, 16, 17, 16, 17, 13, 14, 11, 12, 10, 11, 6, 7, 3, 4]",26,shiftedgaze_L_4.png,f,1,1,results13,001,2026-04-14_11h17.01.657,mogelijke versie adaptive staircase builder,,2026.1.3,59.98271298217992,2026-04-14 11h17.01.850648 +0200,
4.5,ecc10pos,left,57,0,57,f,0,1.9322210000000268,None,0,0,0,0,57,0,57,0,832.5846173999998,,,,,,,,,,,,,,,832.5803157999999,832.5846173999998,832.5846173999998,832.5846173999998,833.4946240999998,834.5282705999998,f,0,1.9322210000000268,None,direct,3,"[19, 20, 19, 20, 19, 20, 19, 20, 18, 20, 18, 19, 16, 17, 16, 17, 13, 14, 11, 12, 10, 11, 6, 7, 3, 4, 3]",27,shifteddirectgaze.png,f,0,1,results13,001,2026-04-14_11h17.01.657,mogelijke versie adaptive staircase builder,,2026.1.3,59.98271298217992,2026-04-14 11h17.01.850648 +0200,
4.5,ecc10pos,left,58,0,58,f,1,1.7597727000002124,None,0,0,0,0,58,0,58,0,834.6530338999992,,,,,,,,,,,,,,,834.6489094999997,834.6530338999992,834.6530338999992,834.6530338999992,835.5279421999994,836.4286070999997,f,1,1.7597727000002124,None,right,4,"[19, 20, 19, 20, 19, 20, 19, 20, 18, 20, 18, 19, 16, 17, 16, 17, 13, 14, 11, 12, 10, 11, 6, 7, 3, 4, 3, 4]",28,shiftedgaze_R_4.png,f,1,1,results13,001,2026-04-14_11h17.01.657,mogelijke versie adaptive staircase builder,,2026.1.3,59.98271298217992,2026-04-14 11h17.01.850648 +0200,
4.5,ecc10pos,left,59,0,59,j,0,1.9144385999998121,None,0,0,0,0,59,0,59,0,836.6265997999999,,,,,,,,,,,,,,,836.6226530999993,836.6265997999999,836.6265997999999,836.6265997999999,837.4444063999999,838.5450105,j,0,1.9144385999998121,None,right,3,"[19, 20, 19, 20, 19, 20, 19, 20, 18, 20, 18, 19, 16, 17, 16, 17, 13, 14, 11, 12, 10, 11, 6, 7, 3, 4, 3, 4, 3]",29,shiftedgaze_R_3.png,j,0,1,results13,001,2026-04-14_11h17.01.657,mogelijke versie adaptive staircase builder,,2026.1.3,59.98271298217992,2026-04-14 11h17.01.850648 +0200,
4.5,ecc10pos,left,0,0,0,,,,,0,0,0,0,,,,,,,,,,,,,,,,,,,,,,,,,,,,,,,,,,,,,,results13,001,2026-04-14_11h17.01.657,mogelijke versie adaptive staircase builder,,2026.1.3,59.98271298217992,2026-04-14 11h17.01.850648 +0200,
12.5,ecc0,mid,0,0,0,j,1,2.4134460000004765,None,0,1,1,1,0,0,0,0,838.6311674999997,,,,,,,,,,,,,838.5473517999999,838.5473806,838.6271134999997,838.6311674999997,839.5610346999993,838.6311674999997,838.6311674999997,841.0611876999992,j,1,2.4134460000004765,None,direct,20,[],0,direct_gaze.png,j,1,2,results13,001,2026-04-14_11h17.01.657,mogelijke versie adaptive staircase builder,,2026.1.3,59.98271298217992,2026-04-14 11h17.01.850648 +0200,
12.5,ecc0,mid,1,0,1,f,1,2.198739899999964,None,0,1,1,1,1,0,1,0,841.1503880999999,,,,,,,,,,,,,,,841.1460189999998,841.1503880999999,842.0610413999993,841.1503880999999,841.1503880999999,843.3618809999998,f,1,2.198739899999964,None,right,19,[],0,gaze_R_19.png,f,1,2,results13,001,2026-04-14_11h17.01.657,mogelijke versie adaptive staircase builder,,2026.1.3,59.98271298217992,2026-04-14 11h17.01.850648 +0200,
12.5,ecc0,mid,2,0,2,f,0,2.199528299999656,None,0,1,1,1,2,0,2,0,843.4453881999998,,,,,,,,,,,,,,,843.4412670999991,843.4453881999998,844.3791861999998,843.4453881999998,843.4453881999998,845.6452866,f,0,2.199528299999656,None,direct,18,[18],1,direct_gaze.png,f,0,2,results13,001,2026-04-14_11h17.01.657,mogelijke versie adaptive staircase builder,,2026.1.3,59.98271298217992,2026-04-14 11h17.01.850648 +0200,
12.5,ecc0,mid,3,0,3,j,0,2.650994799999353,None,0,1,1,1,3,0,3,0,845.7299727999998,,,,,,,,,,,,,,,845.7260258999995,845.7299727999998,846.6611892999999,845.7299727999998,845.7299727999998,848.3952022999993,j,0,2.650994799999353,None,left,19,[18],1,gaze_L_19.png,j,0,2,results13,001,2026-04-14_11h17.01.657,mogelijke versie adaptive staircase builder,,2026.1.3,59.98271298217992,2026-04-14 11h17.01.850648 +0200,
12.5,ecc0,mid,4,0,4,j,1,2.286198599999807,None,0,1,1,1,4,0,4,0,848.4785532999995,,,,,,,,,,,,,,,848.4746734999999,848.4785532999995,849.4110769999998,848.4785532999995,848.4785532999995,850.7779397999993,j,1,2.286198599999807,None,direct,20,"[18, 20]",2,direct_gaze.png,j,1,2,results13,001,2026-04-14_11h17.01.657,mogelijke versie adaptive staircase builder,,2026.1.3,59.98271298217992,2026-04-14 11h17.01.850648 +0200,
12.5,ecc0,mid,5,0,5,f,0,1.9128303999996206,None,0,1,1,1,5,0,5,0,850.859974,,,,,,,,,,,,,,,850.8561837999996,850.859974,851.7782640999994,850.859974,850.859974,852.7779875999995,f,0,1.9128303999996206,None,direct,19,"[18, 20, 19]",3,direct_gaze.png,f,0,2,results13,001,2026-04-14_11h17.01.657,mogelijke versie adaptive staircase builder,,2026.1.3,59.98271298217992,2026-04-14 11h17.01.850648 +0200,
12.5,ecc0,mid,6,0,6,f,0,1.8549087999999756,None,0,1,1,1,6,0,6,0,852.8618571999996,,,,,,,,,,,,,,,852.8577621999993,852.8618571999996,853.7778362999998,852.8618571999996,852.8618571999996,854.7279417,f,0,1.8549087999999756,None,direct,20,"[18, 20, 19]",3,direct_gaze.png,f,0,2,results13,001,2026-04-14_11h17.01.657,mogelijke versie adaptive staircase builder,,2026.1.3,59.98271298217992,2026-04-14 11h17.01.850648 +0200,
12.5,ecc0,mid,7,0,7,f,1,2.3681664000005185,None,0,1,1,1,7,0,7,0,854.8125090999993,,,,,,,,,,,,,,,854.8081917999998,854.8125090999993,855.7282840999997,854.8125090999993,854.8125090999993,857.1945490999997,f,1,2.3681664000005185,None,left,20,"[18, 20, 19, 20]",4,gaze_L_20.png,f,1,2,results13,001,2026-04-14_11h17.01.657,mogelijke versie adaptive staircase builder,,2026.1.3,59.98271298217992,2026-04-14 11h17.01.850648 +0200,
12.5,ecc0,mid,8,0,8,j,0,2.266334299999471,None,0,1,1,1,8,0,8,0,857.2827937999991,,,,,,,,,,,,,,,857.2788680999993,857.2827937999991,858.1944834999995,857.2827937999991,857.2827937999991,859.5617086999991,j,0,2.266334299999471,None,left,19,"[18, 20, 19, 20, 19]",5,gaze_L_19.png,j,0,2,results13,001,2026-04-14_11h17.01.657,mogelijke versie adaptive staircase builder,,2026.1.3,59.98271298217992,2026-04-14 11h17.01.850648 +0200,
12.5,ecc0,mid,9,0,9,f,1,1.7843260999998165,None,0,1,1,1,9,0,9,0,859.6444562999995,,,,,,,,,,,,,,,859.6401651999995,859.6444562999995,860.5777777999992,859.6444562999995,859.6444562999995,861.4444336999995,f,1,1.7843260999998165,None,left,20,"[18, 20, 19, 20, 19, 20]",6,gaze_L_20.png,f,1,2,results13,001,2026-04-14_11h17.01.657,mogelijke versie adaptive staircase builder,,2026.1.3,59.98271298217992,2026-04-14 11h17.01.850648 +0200,
12.5,ecc0,mid,10,0,10,f,0,1.9242702999999892,None,0,1,1,1,10,0,10,0,861.5285675999994,,,,,,,,,,,,,,,861.5246996999995,861.5285675999994,862.4448570999994,861.5285675999994,861.5285675999994,863.4616526999998,f,0,1.9242702999999892,None,direct,19,"[18, 20, 19, 20, 19, 20, 19]",7,direct_gaze.png,f,0,2,results13,001,2026-04-14_11h17.01.657,mogelijke versie adaptive staircase builder,,2026.1.3,59.98271298217992,2026-04-14 11h17.01.850648 +0200,
12.5,ecc0,mid,11,0,11,f,1,1.812252300000182,None,0,1,1,1,11,0,11,0,863.5445298999994,,,,,,,,,,,,,,,863.5403769999994,863.5445298999994,864.4777531,863.5445298999994,863.5445298999994,865.3613933999995,f,1,1.812252300000182,None,left,20,"[18, 20, 19, 20, 19, 20, 19, 20]",8,gaze_L_20.png,f,1,2,results13,001,2026-04-14_11h17.01.657,mogelijke versie adaptive staircase builder,,2026.1.3,59.98271298217992,2026-04-14 11h17.01.850648 +0200,
12.5,ecc0,mid,12,0,12,f,0,2.007039399999485,None,0,1,1,1,12,0,12,0,865.4461273999996,,,,,,,,,,,,,,,865.4422342999997,865.4461273999996,866.3610530999995,865.4461273999996,865.4461273999996,867.4618410999992,f,0,2.007039399999485,None,direct,19,"[18, 20, 19, 20, 19, 20, 19, 20, 19]",9,direct_gaze.png,f,0,2,results13,001,2026-04-14_11h17.01.657,mogelijke versie adaptive staircase builder,,2026.1.3,59.98271298217992,2026-04-14 11h17.01.850648 +0200,
12.5,ecc0,mid,13,0,13,f,0,1.7804997000002913,None,0,1,1,1,13,0,13,0,867.5442636999996,,,,,,,,,,,,,,,867.5401668999993,867.5442636999996,868.4782724999995,867.5442636999996,867.5442636999996,869.3279581999996,f,0,1.7804997000002913,None,direct,20,"[18, 20, 19, 20, 19, 20, 19, 20, 19]",9,direct_gaze.png,f,0,2,results13,001,2026-04-14_11h17.01.657,mogelijke versie adaptive staircase builder,,2026.1.3,59.98271298217992,2026-04-14 11h17.01.850648 +0200,
12.5,ecc0,mid,14,0,14,j,1,2.1288621999992756,None,0,1,1,1,14,0,14,0,869.4119260999996,,,,,,,,,,,,,,,869.4080740999998,869.4119260999996,870.3277019999996,869.4119260999996,869.4119260999996,871.5445175999994,j,1,2.1288621999992756,None,direct,20,"[18, 20, 19, 20, 19, 20, 19, 20, 19, 20]",10,direct_gaze.png,j,1,2,results13,001,2026-04-14_11h17.01.657,mogelijke versie adaptive staircase builder,,2026.1.3,59.98271298217992,2026-04-14 11h17.01.850648 +0200,
12.5,ecc0,mid,15,0,15,f,0,2.2569007000001875,None,0,1,1,1,15,0,15,0,871.6278741999995,,,,,,,,,,,,,,,871.6239919,871.6278741999995,872.5444273999992,871.6278741999995,871.6278741999995,873.8945318999995,f,0,2.2569007000001875,None,direct,19,"[18, 20, 19, 20, 19, 20, 19, 20, 19, 20, 19]",11,direct_gaze.png,f,0,2,results13,001,2026-04-14_11h17.01.657,mogelijke versie adaptive staircase builder,,2026.1.3,59.98271298217992,2026-04-14 11h17.01.850648 +0200,
12.5,ecc0,mid,16,0,16,f,1,3.12224950000018,None,0,1,1,1,16,0,16,0,873.9789765999994,,,,,,,,,,,,,,,873.9746747999998,873.9789765999994,874.8949292999996,873.9789765999994,873.9789765999994,877.1116945999993,f,1,3.12224950000018,None,left,20,"[18, 20, 19, 20, 19, 20, 19, 20, 19, 20, 19, 20]",12,gaze_L_20.png,f,1,2,results13,001,2026-04-14_11h17.01.657,mogelijke versie adaptive staircase builder,,2026.1.3,59.98271298217992,2026-04-14 11h17.01.850648 +0200,
12.5,ecc0,mid,17,0,17,f,0,2.633750200000577,None,0,1,1,1,17,0,17,0,877.1950455999995,,,,,,,,,,,,,,,877.1910937999992,877.1950455999995,878.1114586999993,877.1950455999995,877.1950455999995,879.8444963999991,f,0,2.633750200000577,None,direct,19,"[18, 20, 19, 20, 19, 20, 19, 20, 19, 20, 19, 20, 19]",13,direct_gaze.png,f,0,2,results13,001,2026-04-14_11h17.01.657,mogelijke versie adaptive staircase builder,,2026.1.3,59.98271298217992,2026-04-14 11h17.01.850648 +0200,
12.5,ecc0,mid,18,0,18,f,1,2.820341499999813,None,0,1,1,1,18,0,18,0,879.9285050999997,,,,,,,,,,,,,,,879.9245016999994,879.9285050999997,880.8442610999991,879.9285050999997,879.9285050999997,882.7614590999992,f,1,2.820341499999813,None,left,20,"[18, 20, 19, 20, 19, 20, 19, 20, 19, 20, 19, 20, 19, 20]",14,gaze_L_20.png,f,1,2,results13,001,2026-04-14_11h17.01.657,mogelijke versie adaptive staircase builder,,2026.1.3,59.98271298217992,2026-04-14 11h17.01.850648 +0200,
12.5,ecc0,mid,19,0,19,f,1,2.559718999999859,None,0,1,1,1,19,0,19,0,882.8450720999999,,,,,,,,,,,,,,,882.8412461999997,882.8450720999999,883.7611275999998,882.8450720999999,882.8450720999999,885.4110304999995,f,1,2.559718999999859,None,right,19,"[18, 20, 19, 20, 19, 20, 19, 20, 19, 20, 19, 20, 19, 20]",14,gaze_R_19.png,f,1,2,results13,001,2026-04-14_11h17.01.657,mogelijke versie adaptive staircase builder,,2026.1.3,59.98271298217992,2026-04-14 11h17.01.850648 +0200,
12.5,ecc0,mid,20,0,20,f,1,2.381061299999601,None,0,1,1,1,20,0,20,0,885.4964,,,,,,,,,,,,,,,885.4923688999997,885.4964,886.4109614999998,885.4964,885.4964,887.8783039999998,f,1,2.381061299999601,None,right,18,"[18, 20, 19, 20, 19, 20, 19, 20, 19, 20, 19, 20, 19, 20]",14,gaze_R_18.png,f,1,2,results13,001,2026-04-14_11h17.01.657,mogelijke versie adaptive staircase builder,,2026.1.3,59.98271298217992,2026-04-14 11h17.01.850648 +0200,
12.5,ecc0,mid,21,0,21,f,1,2.5001893999997264,None,0,1,1,1,21,0,21,0,887.9607720999993,,,,,,,,,,,,,,,887.9566843999992,887.9607720999993,888.8777900999994,887.9607720999993,887.9607720999993,890.4612264999996,f,1,2.5001893999997264,None,right,17,"[18, 20, 19, 20, 19, 20, 19, 20, 19, 20, 19, 20, 19, 20]",14,gaze_R_17.png,f,1,2,results13,001,2026-04-14_11h17.01.657,mogelijke versie adaptive staircase builder,,2026.1.3,59.98271298217992,2026-04-14 11h17.01.850648 +0200,
12.5,ecc0,mid,22,0,22,j,0,2.388864800000192,None,0,1,1,1,22,0,22,0,890.5440231999992,,,,,,,,,,,,,,,890.5402499999991,890.5440231999992,891.4614433999996,890.5440231999992,890.5440231999992,892.9451385999992,j,0,2.388864800000192,None,left,16,"[18, 20, 19, 20, 19, 20, 19, 20, 19, 20, 19, 20, 19, 20, 16]",15,gaze_L_16.png,j,0,2,results13,001,2026-04-14_11h17.01.657,mogelijke versie adaptive staircase builder,,2026.1.3,59.98271298217992,2026-04-14 11h17.01.850648 +0200,
12.5,ecc0,mid,23,0,23,f,1,1.8240642000000662,None,0,1,1,1,23,0,23,0,893.0291289999996,,,,,,,,,,,,,,,893.0251292999992,893.0291289999996,893.9448366999995,893.0291289999996,893.0291289999996,894.8617469999999,f,1,1.8240642000000662,None,left,17,"[18, 20, 19, 20, 19, 20, 19, 20, 19, 20, 19, 20, 19, 20, 16, 17]",16,gaze_L_17.png,f,1,2,results13,001,2026-04-14_11h17.01.657,mogelijke versie adaptive staircase builder,,2026.1.3,59.98271298217992,2026-04-14 11h17.01.850648 +0200,
12.5,ecc0,mid,24,0,24,j,1,2.5165690999992876,None,0,1,1,1,24,0,24,0,894.9444543999998,,,,,,,,,,,,,,,894.9404923999991,894.9444543999998,895.8781515999999,894.9444543999998,894.9444543999998,897.4616770999992,j,1,2.5165690999992876,None,direct,16,"[18, 20, 19, 20, 19, 20, 19, 20, 19, 20, 19, 20, 19, 20, 16, 17]",16,direct_gaze.png,j,1,2,results13,001,2026-04-14_11h17.01.657,mogelijke versie adaptive staircase builder,,2026.1.3,59.98271298217992,2026-04-14 11h17.01.850648 +0200,
12.5,ecc0,mid,25,0,25,f,1,3.1237475999996605,None,0,1,1,1,25,0,25,0,897.5451039999998,,,,,,,,,,,,,,,897.5412030999996,897.5451039999998,898.4615014999999,897.5451039999998,897.5451039999998,900.6777724999993,f,1,3.1237475999996605,None,right,15,"[18, 20, 19, 20, 19, 20, 19, 20, 19, 20, 19, 20, 19, 20, 16, 17]",16,gaze_R_15.png,f,1,2,results13,001,2026-04-14_11h17.01.657,mogelijke versie adaptive staircase builder,,2026.1.3,59.98271298217992,2026-04-14 11h17.01.850648 +0200,
12.5,ecc0,mid,26,0,26,f,0,2.7311937000004036,None,0,1,1,1,26,0,26,0,900.7622151999994,,,,,,,,,,,,,,,900.7579773999996,900.7622151999994,901.6776894999994,900.7622151999994,900.7622151999994,903.4951572,f,0,2.7311937000004036,None,direct,14,"[18, 20, 19, 20, 19, 20, 19, 20, 19, 20, 19, 20, 19, 20, 16, 17, 14]",17,direct_gaze.png,f,0,2,results13,001,2026-04-14_11h17.01.657,mogelijke versie adaptive staircase builder,,2026.1.3,59.98271298217992,2026-04-14 11h17.01.850648 +0200,
12.5,ecc0,mid,27,0,27,f,1,2.562048299999333,None,0,1,1,1,27,0,27,0,903.5787747999993,,,,,,,,,,,,,,,903.5747710999995,903.5787747999993,904.4946616999996,903.5787747999993,903.5787747999993,906.1446093999994,f,1,2.562048299999333,None,right,15,"[18, 20, 19, 20, 19, 20, 19, 20, 19, 20, 19, 20, 19, 20, 16, 17, 14, 15]",18,gaze_R_15.png,f,1,2,results13,001,2026-04-14_11h17.01.657,mogelijke versie adaptive staircase builder,,2026.1.3,59.98271298217992,2026-04-14 11h17.01.850648 +0200,
12.5,ecc0,mid,28,0,28,j,1,1.9715520999998262,None,0,1,1,1,28,0,28,0,906.2254750999991,,,,,,,,,,,,,,,906.2214944999996,906.2254750999991,907.1444048999992,906.2254750999991,906.2254750999991,908.2117708999995,j,1,1.9715520999998262,None,direct,14,"[18, 20, 19, 20, 19, 20, 19, 20, 19, 20, 19, 20, 19, 20, 16, 17, 14, 15]",18,direct_gaze.png,j,1,2,results13,001,2026-04-14_11h17.01.657,mogelijke versie adaptive staircase builder,,2026.1.3,59.98271298217992,2026-04-14 11h17.01.850648 +0200,
12.5,ecc0,mid,29,0,29,f,1,2.7889819000001808,None,0,1,1,1,29,0,29,0,908.2958054999999,,,,,,,,,,,,,,,908.2920867999992,908.2958054999999,909.2281696999999,908.2958054999999,908.2958054999999,911.0944818999997,f,1,2.7889819000001808,None,right,13,"[18, 20, 19, 20, 19, 20, 19, 20, 19, 20, 19, 20, 19, 20, 16, 17, 14, 15]",18,gaze_R_13.png,f,1,2,results13,001,2026-04-14_11h17.01.657,mogelijke versie adaptive staircase builder,,2026.1.3,59.98271298217992,2026-04-14 11h17.01.850648 +0200,
12.5,ecc0,mid,30,0,30,j,0,2.2665506000003006,None,0,1,1,1,30,0,30,0,911.1784523999995,,,,,,,,,,,,,,,911.1744908999999,911.1784523999995,912.0943539,911.1784523999995,911.1784523999995,913.4453760999995,j,0,2.2665506000003006,None,left,12,"[18, 20, 19, 20, 19, 20, 19, 20, 19, 20, 19, 20, 19, 20, 16, 17, 14, 15, 12]",19,gaze_L_12.png,j,0,2,results13,001,2026-04-14_11h17.01.657,mogelijke versie adaptive staircase builder,,2026.1.3,59.98271298217992,2026-04-14 11h17.01.850648 +0200,
12.5,ecc0,mid,31,0,31,j,0,2.900175799999488,None,0,1,1,1,31,0,31,0,913.5286646999994,,,,,,,,,,,,,,,913.5245869999999,913.5286646999994,914.4446094999994,913.5286646999994,913.5286646999994,916.4444490999995,j,0,2.900175799999488,None,left,13,"[18, 20, 19, 20, 19, 20, 19, 20, 19, 20, 19, 20, 19, 20, 16, 17, 14, 15, 12]",19,gaze_L_13.png,j,0,2,results13,001,2026-04-14_11h17.01.657,mogelijke versie adaptive staircase builder,,2026.1.3,59.98271298217992,2026-04-14 11h17.01.850648 +0200,
12.5,ecc0,mid,32,0,32,f,0,2.6134209000001647,None,0,1,1,1,32,0,32,0,916.5278271999996,,,,,,,,,,,,,,,916.5237725999996,916.5278271999996,917.4448087999999,916.5278271999996,916.5278271999996,919.1450148999993,f,0,2.6134209000001647,None,direct,14,"[18, 20, 19, 20, 19, 20, 19, 20, 19, 20, 19, 20, 19, 20, 16, 17, 14, 15, 12]",19,direct_gaze.png,f,0,2,results13,001,2026-04-14_11h17.01.657,mogelijke versie adaptive staircase builder,,2026.1.3,59.98271298217992,2026-04-14 11h17.01.850648 +0200,
12.5,ecc0,mid,33,0,33,j,0,2.456999099999848,None,0,1,1,1,33,0,33,0,919.2279801999994,,,,,,,,,,,,,,,919.2237406999993,919.2279801999994,920.1610135999999,919.2279801999994,919.2279801999994,921.6950846,j,0,2.456999099999848,None,right,15,"[18, 20, 19, 20, 19, 20, 19, 20, 19, 20, 19, 20, 19, 20, 16, 17, 14, 15, 12]",19,gaze_R_15.png,j,0,2,results13,001,2026-04-14_11h17.01.657,mogelijke versie adaptive staircase builder,,2026.1.3,59.98271298217992,2026-04-14 11h17.01.850648 +0200,
12.5,ecc0,mid,34,0,34,j,0,2.785441600000013,None,0,1,1,1,34,0,34,0,921.7795160999995,,,,,,,,,,,,,,,921.7753860999992,921.7795160999995,922.6947950999993,921.7795160999995,921.7795160999995,924.5782204999996,j,0,2.785441600000013,None,left,16,"[18, 20, 19, 20, 19, 20, 19, 20, 19, 20, 19, 20, 19, 20, 16, 17, 14, 15, 12]",19,gaze_L_16.png,j,0,2,results13,001,2026-04-14_11h17.01.657,mogelijke versie adaptive staircase builder,,2026.1.3,59.98271298217992,2026-04-14 11h17.01.850648 +0200,
12.5,ecc0,mid,35,0,35,f,1,2.306058199999825,None,0,1,1,1,35,0,35,0,924.6666909999994,,,,,,,,,,,,,,,924.6626127,924.6666909999994,925.5777620999997,924.6666909999994,924.6666909999994,926.9781972999999,f,1,2.306058199999825,None,left,17,"[18, 20, 19, 20, 19, 20, 19, 20, 19, 20, 19, 20, 19, 20, 16, 17, 14, 15, 12, 17]",20,gaze_L_17.png,f,1,2,results13,001,2026-04-14_11h17.01.657,mogelijke versie adaptive staircase builder,,2026.1.3,59.98271298217992,2026-04-14 11h17.01.850648 +0200,
12.5,ecc0,mid,36,0,36,f,1,2.0323449000006804,None,0,1,1,1,36,0,36,0,927.0763784999999,,,,,,,,,,,,,,,927.0715156999995,927.0763784999999,927.9779276999998,927.0763784999999,927.0763784999999,929.1111850999996,f,1,2.0323449000006804,None,right,16,"[18, 20, 19, 20, 19, 20, 19, 20, 19, 20, 19, 20, 19, 20, 16, 17, 14, 15, 12, 17]",20,gaze_R_16.png,f,1,2,results13,001,2026-04-14_11h17.01.657,mogelijke versie adaptive staircase builder,,2026.1.3,59.98271298217992,2026-04-14 11h17.01.850648 +0200,
12.5,ecc0,mid,37,0,37,j,0,2.8743233000004693,None,0,1,1,1,37,0,37,0,929.2028207999992,,,,,,,,,,,,,,,929.1986989999996,929.2028207999992,930.1114147999997,929.2028207999992,929.2028207999992,932.0780127999997,j,0,2.8743233000004693,None,left,15,"[18, 20, 19, 20, 19, 20, 19, 20, 19, 20, 19, 20, 19, 20, 16, 17, 14, 15, 12, 17, 15]",21,gaze_L_15.png,j,0,2,results13,001,2026-04-14_11h17.01.657,mogelijke versie adaptive staircase builder,,2026.1.3,59.98271298217992,2026-04-14 11h17.01.850648 +0200,
12.5,ecc0,mid,38,0,38,f,1,2.4030469999997877,None,0,1,1,1,38,0,38,0,932.1621400999993,,,,,,,,,,,,,,,932.1581620999996,932.1621400999993,933.0777687999998,932.1621400999993,932.1621400999993,934.5784545999995,f,1,2.4030469999997877,None,right,16,"[18, 20, 19, 20, 19, 20, 19, 20, 19, 20, 19, 20, 19, 20, 16, 17, 14, 15, 12, 17, 15, 16]",22,gaze_R_16.png,f,1,2,results13,001,2026-04-14_11h17.01.657,mogelijke versie adaptive staircase builder,,2026.1.3,59.98271298217992,2026-04-14 11h17.01.850648 +0200,
12.5,ecc0,mid,39,0,39,f,0,2.6970486999998684,None,0,1,1,1,39,0,39,0,934.6676667999991,,,,,,,,,,,,,,,934.6637246999999,934.6676667999991,935.5943491999997,934.6676667999991,934.6676667999991,937.3780357999995,f,0,2.6970486999998684,None,direct,15,"[18, 20, 19, 20, 19, 20, 19, 20, 19, 20, 19, 20, 19, 20, 16, 17, 14, 15, 12, 17, 15, 16, 15]",23,direct_gaze.png,f,0,2,results13,001,2026-04-14_11h17.01.657,mogelijke versie adaptive staircase builder,,2026.1.3,59.98271298217992,2026-04-14 11h17.01.850648 +0200,
12.5,ecc0,mid,40,0,40,f,1,2.391254499999377,None,0,1,1,1,40,0,40,0,937.4616056999994,,,,,,,,,,,,,,,937.4576053999999,937.4616056999994,938.378248,937.4616056999994,937.4616056999994,939.8614506999993,f,1,2.391254499999377,None,right,16,"[18, 20, 19, 20, 19, 20, 19, 20, 19, 20, 19, 20, 19, 20, 16, 17, 14, 15, 12, 17, 15, 16, 15, 16]",24,gaze_R_16.png,f,1,2,results13,001,2026-04-14_11h17.01.657,mogelijke versie adaptive staircase builder,,2026.1.3,59.98271298217992,2026-04-14 11h17.01.850648 +0200,
12.5,ecc0,mid,41,0,41,f,1,3.3166645000001154,None,0,1,1,1,41,0,41,0,939.9520183999994,,,,,,,,,,,,,,,939.9480231999996,939.9520183999994,940.8610057999995,939.9520183999994,939.9520183999994,943.2779647999996,f,1,3.3166645000001154,None,right,15,"[18, 20, 19, 20, 19, 20, 19, 20, 19, 20, 19, 20, 19, 20, 16, 17, 14, 15, 12, 17, 15, 16, 15, 16]",24,gaze_R_15.png,f,1,2,results13,001,2026-04-14_11h17.01.657,mogelijke versie adaptive staircase builder,,2026.1.3,59.98271298217992,2026-04-14 11h17.01.850648 +0200,
12.5,ecc0,mid,42,0,42,j,0,1.788266399999884,None,0,1,1,1,42,0,42,0,943.3684135999993,,,,,,,,,,,,,,,943.3643837999998,943.3684135999993,944.2777671999993,943.3684135999993,943.3684135999993,945.1612995999994,j,0,1.788266399999884,None,right,14,"[18, 20, 19, 20, 19, 20, 19, 20, 19, 20, 19, 20, 19, 20, 16, 17, 14, 15, 12, 17, 15, 16, 15, 16, 14]",25,gaze_R_14.png,j,0,2,results13,001,2026-04-14_11h17.01.657,mogelijke versie adaptive staircase builder,,2026.1.3,59.98271298217992,2026-04-14 11h17.01.850648 +0200,
12.5,ecc0,mid,43,0,43,j,0,2.534427099999448,None,0,1,1,1,43,0,43,0,945.2463582999999,,,,,,,,,,,,,,,945.2418017,945.2463582999999,946.1611825999998,945.2463582999999,945.2463582999999,947.7946875999996,j,0,2.534427099999448,None,right,15,"[18, 20, 19, 20, 19, 20, 19, 20, 19, 20, 19, 20, 19, 20, 16, 17, 14, 15, 12, 17, 15, 16, 15, 16, 14]",25,gaze_R_15.png,j,0,2,results13,001,2026-04-14_11h17.01.657,mogelijke versie adaptive staircase builder,,2026.1.3,59.98271298217992,2026-04-14 11h17.01.850648 +0200,
12.5,ecc0,mid,44,0,44,j,1,2.2711921999998594,None,0,1,1,1,44,0,44,0,947.8779797999996,,,,,,,,,,,,,,,947.8737319999991,947.8779797999996,948.7949002999994,947.8779797999996,947.8779797999996,950.1619271,j,1,2.2711921999998594,None,direct,16,"[18, 20, 19, 20, 19, 20, 19, 20, 19, 20, 19, 20, 19, 20, 16, 17, 14, 15, 12, 17, 15, 16, 15, 16, 14, 16]",26,direct_gaze.png,j,1,2,results13,001,2026-04-14_11h17.01.657,mogelijke versie adaptive staircase builder,,2026.1.3,59.98271298217992,2026-04-14 11h17.01.850648 +0200,
12.5,ecc0,mid,45,0,45,j,0,2.1590733999992153,None,0,1,1,1,45,0,45,0,950.2456310999996,,,,,,,,,,,,,,,950.2415922999999,950.2456310999996,951.1778115999996,950.2456310999996,950.2456310999996,952.4112708999992,j,0,2.1590733999992153,None,left,15,"[18, 20, 19, 20, 19, 20, 19, 20, 19, 20, 19, 20, 19, 20, 16, 17, 14, 15, 12, 17, 15, 16, 15, 16, 14, 16, 15]",27,gaze_L_15.png,j,0,2,results13,001,2026-04-14_11h17.01.657,mogelijke versie adaptive staircase builder,,2026.1.3,59.98271298217992,2026-04-14 11h17.01.850648 +0200,
12.5,ecc0,mid,46,0,46,f,1,1.6535635000000184,None,0,1,1,1,46,0,46,0,952.4952287999995,,,,,,,,,,,,,,,952.4906964999991,952.4952287999995,953.4113223999993,952.4952287999995,952.4952287999995,954.1610001999998,f,1,1.6535635000000184,None,right,16,"[18, 20, 19, 20, 19, 20, 19, 20, 19, 20, 19, 20, 19, 20, 16, 17, 14, 15, 12, 17, 15, 16, 15, 16, 14, 16, 15, 16]",28,gaze_R_16.png,f,1,2,results13,001,2026-04-14_11h17.01.657,mogelijke versie adaptive staircase builder,,2026.1.3,59.98271298217992,2026-04-14 11h17.01.850648 +0200,
12.5,ecc0,mid,47,0,47,f,1,1.7443490000005113,None,0,1,1,1,47,0,47,0,954.2448154999993,,,,,,,,,,,,,,,954.2406525999995,954.2448154999993,955.1613964999997,954.2448154999993,954.2448154999993,955.9953163999999,f,1,1.7443490000005113,None,right,15,"[18, 20, 19, 20, 19, 20, 19, 20, 19, 20, 19, 20, 19, 20, 16, 17, 14, 15, 12, 17, 15, 16, 15, 16, 14, 16, 15, 16]",28,gaze_R_15.png,f,1,2,results13,001,2026-04-14_11h17.01.657,mogelijke versie adaptive staircase builder,,2026.1.3,59.98271298217992,2026-04-14 11h17.01.850648 +0200,
12.5,ecc0,mid,48,0,48,j,1,2.018435799999679,None,0,1,1,1,48,0,48,0,956.0822352999994,,,,,,,,,,,,,,,956.0778881999995,956.0822352999994,957.0110906,956.0822352999994,956.0822352999994,958.1112467999992,j,1,2.018435799999679,None,direct,14,"[18, 20, 19, 20, 19, 20, 19, 20, 19, 20, 19, 20, 19, 20, 16, 17, 14, 15, 12, 17, 15, 16, 15, 16, 14, 16, 15, 16]",28,direct_gaze.png,j,1,2,results13,001,2026-04-14_11h17.01.657,mogelijke versie adaptive staircase builder,,2026.1.3,59.98271298217992,2026-04-14 11h17.01.850648 +0200,
12.5,ecc0,mid,49,0,49,f,1,2.338379700000587,None,0,1,1,1,49,0,49,0,958.2023931999993,,,,,,,,,,,,,,,958.1985332999993,958.2023931999993,959.1109967999992,958.2023931999993,958.2023931999993,960.5446104999992,f,1,2.338379700000587,None,right,13,"[18, 20, 19, 20, 19, 20, 19, 20, 19, 20, 19, 20, 19, 20, 16, 17, 14, 15, 12, 17, 15, 16, 15, 16, 14, 16, 15, 16]",28,gaze_R_13.png,f,1,2,results13,001,2026-04-14_11h17.01.657,mogelijke versie adaptive staircase builder,,2026.1.3,59.98271298217992,2026-04-14 11h17.01.850648 +0200,
12.5,ecc0,mid,50,0,50,j,0,2.041542400000253,None,0,1,1,1,50,0,50,0,960.6350500999997,,,,,,,,,,,,,,,960.6310553999992,960.6350500999997,961.5445192999996,960.6350500999997,960.6350500999997,962.6780166999997,j,0,2.041542400000253,None,right,12,"[18, 20, 19, 20, 19, 20, 19, 20, 19, 20, 19, 20, 19, 20, 16, 17, 14, 15, 12, 17, 15, 16, 15, 16, 14, 16, 15, 16, 12]",29,gaze_R_12.png,j,0,2,results13,001,2026-04-14_11h17.01.657,mogelijke versie adaptive staircase builder,,2026.1.3,59.98271298217992,2026-04-14 11h17.01.850648 +0200,
12.5,ecc0,mid,51,0,51,f,1,1.7878287000003183,None,0,1,1,1,51,0,51,0,962.7689570999992,,,,,,,,,,,,,,,962.7649489999994,962.7689570999992,963.6778665999991,962.7689570999992,962.7689570999992,964.5612583999991,f,1,1.7878287000003183,None,left,13,"[18, 20, 19, 20, 19, 20, 19, 20, 19, 20, 19, 20, 19, 20, 16, 17, 14, 15, 12, 17, 15, 16, 15, 16, 14, 16, 15, 16, 12, 13]",30,gaze_L_13.png,f,1,2,results13,001,2026-04-14_11h17.01.657,mogelijke versie adaptive staircase builder,,2026.1.3,59.98271298217992,2026-04-14 11h17.01.850648 +0200,
12.5,ecc0,mid,52,0,52,f,1,2.0079537000001437,None,0,1,1,1,52,0,52,0,964.6448303999996,,,,,,,,,,,,,,,964.6404845999996,964.6448303999996,965.5610655999999,964.6448303999996,964.6448303999996,966.6614550999993,f,1,2.0079537000001437,None,right,12,"[18, 20, 19, 20, 19, 20, 19, 20, 19, 20, 19, 20, 19, 20, 16, 17, 14, 15, 12, 17, 15, 16, 15, 16, 14, 16, 15, 16, 12, 13]",30,gaze_R_12.png,f,1,2,results13,001,2026-04-14_11h17.01.657,mogelijke versie adaptive staircase builder,,2026.1.3,59.98271298217992,2026-04-14 11h17.01.850648 +0200,
12.5,ecc0,mid,53,0,53,f,0,2.7060590999999476,None,0,1,1,1,53,0,53,0,966.7467044999994,,,,,,,,,,,,,,,966.7426223999992,966.7467044999994,967.6616467999993,966.7467044999994,966.7467044999994,969.4612383999993,f,0,2.7060590999999476,None,direct,11,"[18, 20, 19, 20, 19, 20, 19, 20, 19, 20, 19, 20, 19, 20, 16, 17, 14, 15, 12, 17, 15, 16, 15, 16, 14, 16, 15, 16, 12, 13, 11]",31,direct_gaze.png,f,0,2,results13,001,2026-04-14_11h17.01.657,mogelijke versie adaptive staircase builder,,2026.1.3,59.98271298217992,2026-04-14 11h17.01.850648 +0200,
12.5,ecc0,mid,54,0,54,f,1,3.869632900000397,None,0,1,1,1,54,0,54,0,969.5431396999993,,,,,,,,,,,,,,,969.5391780999998,969.5431396999993,970.4777025999992,969.5431396999993,969.5431396999993,973.4279465999998,f,1,3.869632900000397,None,right,12,"[18, 20, 19, 20, 19, 20, 19, 20, 19, 20, 19, 20, 19, 20, 16, 17, 14, 15, 12, 17, 15, 16, 15, 16, 14, 16, 15, 16, 12, 13, 11, 12]",32,gaze_R_12.png,f,1,2,results13,001,2026-04-14_11h17.01.657,mogelijke versie adaptive staircase builder,,2026.1.3,59.98271298217992,2026-04-14 11h17.01.850648 +0200,
12.5,ecc0,mid,55,0,55,j,0,1.6438646000005974,None,0,1,1,1,55,0,55,0,973.5209488999999,,,,,,,,,,,,,,,973.5170552,973.5209488999999,974.4282979,973.5209488999999,973.5209488999999,975.1778686999996,j,0,1.6438646000005974,None,left,11,"[18, 20, 19, 20, 19, 20, 19, 20, 19, 20, 19, 20, 19, 20, 16, 17, 14, 15, 12, 17, 15, 16, 15, 16, 14, 16, 15, 16, 12, 13, 11, 12, 11]",33,gaze_L_11.png,j,0,2,results13,001,2026-04-14_11h17.01.657,mogelijke versie adaptive staircase builder,,2026.1.3,59.98271298217992,2026-04-14 11h17.01.850648 +0200,
12.5,ecc0,mid,56,0,56,f,1,1.8241651999996975,None,0,1,1,1,56,0,56,0,975.2604533999993,,,,,,,,,,,,,,,975.2564675999993,975.2604533999993,976.1778397999997,975.2604533999993,975.2604533999993,977.0945546999992,f,1,1.8241651999996975,None,right,12,"[18, 20, 19, 20, 19, 20, 19, 20, 19, 20, 19, 20, 19, 20, 16, 17, 14, 15, 12, 17, 15, 16, 15, 16, 14, 16, 15, 16, 12, 13, 11, 12, 11, 12]",34,gaze_R_12.png,f,1,2,results13,001,2026-04-14_11h17.01.657,mogelijke versie adaptive staircase builder,,2026.1.3,59.98271298217992,2026-04-14 11h17.01.850648 +0200,
12.5,ecc0,mid,57,0,57,j,1,1.7541369000000486,None,0,1,1,1,57,0,57,0,977.1866480999997,,,,,,,,,,,,,,,977.1818052999997,977.1866480999997,978.0944021999994,977.1866480999997,977.1866480999997,978.9446009999992,j,1,1.7541369000000486,None,direct,11,"[18, 20, 19, 20, 19, 20, 19, 20, 19, 20, 19, 20, 19, 20, 16, 17, 14, 15, 12, 17, 15, 16, 15, 16, 14, 16, 15, 16, 12, 13, 11, 12, 11, 12]",34,direct_gaze.png,j,1,2,results13,001,2026-04-14_11h17.01.657,mogelijke versie adaptive staircase builder,,2026.1.3,59.98271298217992,2026-04-14 11h17.01.850648 +0200,
12.5,ecc0,mid,58,0,58,f,1,1.2665329000001293,None,0,1,1,1,58,0,58,0,979.4026355999995,,,,,,,,,,,,,,,979.3981787999992,979.4026355999995,979.9444202999994,979.4026355999995,979.4026355999995,980.6784614999997,f,1,1.2665329000001293,None,left,10,"[18, 20, 19, 20, 19, 20, 19, 20, 19, 20, 19, 20, 19, 20, 16, 17, 14, 15, 12, 17, 15, 16, 15, 16, 14, 16, 15, 16, 12, 13, 11, 12, 11, 12]",34,gaze_L_10.png,f,1,2,results13,001,2026-04-14_11h17.01.657,mogelijke versie adaptive staircase builder,,2026.1.3,59.98271298217992,2026-04-14 11h17.01.850648 +0200,
12.5,ecc0,mid,59,0,59,j,0,4.2202111999995395,None,0,1,1,1,59,0,59,0,980.7848232999995,,,,,,,,,,,,,,,980.7746525999992,980.7848232999995,981.6944201999995,980.7848232999995,980.7848232999995,985.0112716999993,j,0,4.2202111999995395,None,right,9,"[18, 20, 19, 20, 19, 20, 19, 20, 19, 20, 19, 20, 19, 20, 16, 17, 14, 15, 12, 17, 15, 16, 15, 16, 14, 16, 15, 16, 12, 13, 11, 12, 11, 12, 9]",35,gaze_R_9.png,j,0,2,results13,001,2026-04-14_11h17.01.657,mogelijke versie adaptive staircase builder,,2026.1.3,59.98271298217992,2026-04-14 11h17.01.850648 +0200,
12.5,ecc0,mid,1,1,0,,,,,0,1,1,1,,,,,,,,,,,,,,,,,,,,,,,,,,,,,,,,,,,,,,results13,001,2026-04-14_11h17.01.657,mogelijke versie adaptive staircase builder,,2026.1.3,59.98271298217992,2026-04-14 11h17.01.850648 +0200,
20.5,ecc10neg,right,0,0,0,j,0,2.8132147000005716,None,0,2,2,2,0,0,0,0,985.1280285999992,,,,,,,,,,,,,985.0322548999993,985.0323103999999,985.1187235999996,985.1280285999992,985.1280285999992,986.0444155999994,985.1280285999992,987.9446202999998,j,0,2.8132147000005716,None,left,20,[],0,shiftedgaze_L_20.png,j,0,3,results13,001,2026-04-14_11h17.01.657,mogelijke versie adaptive staircase builder,,2026.1.3,59.98271298217992,2026-04-14 11h17.01.850648 +0200,
20.5,ecc10neg,right,1,0,1,f,1,1.4183999000006224,None,0,2,2,2,1,0,1,0,988.0746124999996,,,,,,,,,,,,,,,988.0649907999996,988.0746124999996,988.0746124999996,988.9444004999996,988.0746124999996,989.4949029999998,f,1,1.4183999000006224,None,right,20,[20],1,shiftedgaze_R_20.png,f,1,3,results13,001,2026-04-14_11h17.01.657,mogelijke versie adaptive staircase builder,,2026.1.3,59.98271298217992,2026-04-14 11h17.01.850648 +0200,
20.5,ecc10neg,right,2,0,2,f,0,1.5250615999993897,None,0,2,2,2,2,0,2,0,989.6077078999997,,,,,,,,,,,,,,,989.5978050999993,989.6077078999997,989.6077078999997,990.4944394999993,989.6077078999997,991.1446370999993,f,0,1.5250615999993897,None,direct,19,"[20, 19]",2,shifteddirectgaze.png,f,0,3,results13,001,2026-04-14_11h17.01.657,mogelijke versie adaptive staircase builder,,2026.1.3,59.98271298217992,2026-04-14 11h17.01.850648 +0200,
20.5,ecc10neg,right,3,0,3,f,0,1.6766125999993164,None,0,2,2,2,3,0,3,0,991.2321671,,,,,,,,,,,,,,,991.2280332999999,991.2321671,991.2321671,992.1444347999995,991.2321671,992.9112864999997,f,0,1.6766125999993164,None,direct,20,"[20, 19]",2,shifteddirectgaze.png,f,0,3,results13,001,2026-04-14_11h17.01.657,mogelijke versie adaptive staircase builder,,2026.1.3,59.98271298217992,2026-04-14 11h17.01.850648 +0200,
20.5,ecc10neg,right,4,0,4,j,0,2.1256661000006716,None,0,2,2,2,4,0,4,0,992.9991311999993,,,,,,,,,,,,,,,992.9951099,992.9991311999993,992.9991311999993,993.9110257999992,992.9991311999993,995.1279499999991,j,0,2.1256661000006716,None,left,20,"[20, 19]",2,shiftedgaze_L_20.png,j,0,3,results13,001,2026-04-14_11h17.01.657,mogelijke versie adaptive staircase builder,,2026.1.3,59.98271298217992,2026-04-14 11h17.01.850648 +0200,
20.5,ecc10neg,right,5,0,5,f,1,1.6385335999993913,None,0,2,2,2,5,0,5,0,995.2303430999991,,,,,,,,,,,,,,,995.2204410999993,995.2303430999991,995.2303430999991,996.1279706999994,995.2303430999991,996.8778378999996,f,1,1.6385335999993913,None,right,20,"[20, 19, 20]",3,shiftedgaze_R_20.png,f,1,3,results13,001,2026-04-14_11h17.01.657,mogelijke versie adaptive staircase builder,,2026.1.3,59.98271298217992,2026-04-14 11h17.01.850648 +0200,
20.5,ecc10neg,right,6,0,6,f,1,1.654114699999809,None,0,2,2,2,6,0,6,0,996.9747213999999,,,,,,,,,,,,,,,996.9704586999997,996.9747213999999,996.9747213999999,997.8781654999993,996.9747213999999,998.6444769999998,f,1,1.654114699999809,None,right,19,"[20, 19, 20]",3,shiftedgaze_R_19.png,f,1,3,results13,001,2026-04-14_11h17.01.657,mogelijke versie adaptive staircase builder,,2026.1.3,59.98271298217992,2026-04-14 11h17.01.850648 +0200,
20.5,ecc10neg,right,7,0,7,f,0,1.5213362000004054,None,0,2,2,2,7,0,7,0,998.7395757999993,,,,,,,,,,,,,,,998.7288937999992,998.7395757999993,998.7395757999993,999.6444593999995,998.7395757999993,1000.2611747999999,f,0,1.5213362000004054,None,direct,18,"[20, 19, 20, 18]",4,shifteddirectgaze.png,f,0,3,results13,001,2026-04-14_11h17.01.657,mogelijke versie adaptive staircase builder,,2026.1.3,59.98271298217992,2026-04-14 11h17.01.850648 +0200,
20.5,ecc10neg,right,8,0,8,f,1,1.4958864999998696,None,0,2,2,2,8,0,8,0,1000.3568778999997,,,,,,,,,,,,,,,1000.3468267999997,1000.3568778999997,1000.3568778999997,1001.2610381999993,1000.3568778999997,1001.8612112999999,f,1,1.4958864999998696,None,right,19,"[20, 19, 20, 18, 19]",5,shiftedgaze_R_19.png,f,1,3,results13,001,2026-04-14_11h17.01.657,mogelijke versie adaptive staircase builder,,2026.1.3,59.98271298217992,2026-04-14 11h17.01.850648 +0200,
20.5,ecc10neg,right,9,0,9,f,1,1.4366948999995657,None,0,2,2,2,9,0,9,0,1001.9601277999991,,,,,,,,,,,,,,,1001.9489317999996,1001.9601277999991,1001.9601277999991,1002.8609701999994,1001.9601277999991,1003.4111146999994,f,1,1.4366948999995657,None,left,18,"[20, 19, 20, 18, 19]",5,shiftedgaze_L_18.png,f,1,3,results13,001,2026-04-14_11h17.01.657,mogelijke versie adaptive staircase builder,,2026.1.3,59.98271298217992,2026-04-14 11h17.01.850648 +0200,
20.5,ecc10neg,right,10,0,10,f,1,1.5919550999997227,None,0,2,2,2,10,0,10,0,1003.5168909999993,,,,,,,,,,,,,,,1003.5059283999999,1003.5168909999993,1003.5168909999993,1004.4114536999996,1003.5168909999993,1005.1111929999997,f,1,1.5919550999997227,None,right,17,"[20, 19, 20, 18, 19]",5,shiftedgaze_R_17.png,f,1,3,results13,001,2026-04-14_11h17.01.657,mogelijke versie adaptive staircase builder,,2026.1.3,59.98271298217992,2026-04-14 11h17.01.850648 +0200,
20.5,ecc10neg,right,11,0,11,f,1,1.6007236999994348,None,0,2,2,2,11,0,11,0,1005.2122548999996,,,,,,,,,,,,,,,1005.2074855999999,1005.2122548999996,1005.2122548999996,1006.1111586999996,1005.2122548999996,1006.8278493999996,f,1,1.6007236999994348,None,right,16,"[20, 19, 20, 18, 19]",5,shiftedgaze_R_16.png,f,1,3,results13,001,2026-04-14_11h17.01.657,mogelijke versie adaptive staircase builder,,2026.1.3,59.98271298217992,2026-04-14 11h17.01.850648 +0200,
20.5,ecc10neg,right,12,0,12,f,1,1.452322500000264,None,0,2,2,2,12,0,12,0,1006.9284493999994,,,,,,,,,,,,,,,1006.9179893999999,1006.9284493999994,1006.9284493999994,1007.8281483999999,1006.9284493999994,1008.3951818999994,f,1,1.452322500000264,None,right,15,"[20, 19, 20, 18, 19]",5,shiftedgaze_R_15.png,f,1,3,results13,001,2026-04-14_11h17.01.657,mogelijke versie adaptive staircase builder,,2026.1.3,59.98271298217992,2026-04-14 11h17.01.850648 +0200,
20.5,ecc10neg,right,13,0,13,f,0,1.596653900000092,None,0,2,2,2,13,0,13,0,1008.4802866999999,,,,,,,,,,,,,,,1008.4757774,1008.4802866999999,1008.4802866999999,1009.3948289999998,1008.4802866999999,1010.0784130999991,f,0,1.596653900000092,None,direct,14,"[20, 19, 20, 18, 19, 14]",6,shifteddirectgaze.png,f,0,3,results13,001,2026-04-14_11h17.01.657,mogelijke versie adaptive staircase builder,,2026.1.3,59.98271298217992,2026-04-14 11h17.01.850648 +0200,
20.5,ecc10neg,right,14,0,14,f,0,1.5761438999998063,None,0,2,2,2,14,0,14,0,1010.1649058999992,,,,,,,,,,,,,,,1010.1604560999995,1010.1649058999992,1010.1649058999992,1011.0781410999998,1010.1649058999992,1011.7451079999992,f,0,1.5761438999998063,None,direct,15,"[20, 19, 20, 18, 19, 14]",6,shifteddirectgaze.png,f,0,3,results13,001,2026-04-14_11h17.01.657,mogelijke versie adaptive staircase builder,,2026.1.3,59.98271298217992,2026-04-14 11h17.01.850648 +0200,
20.5,ecc10neg,right,15,0,15,j,1,2.0304576999997153,None,0,2,2,2,15,0,15,0,1011.8305971,,,,,,,,,,,,,,,1011.8259119999993,1011.8305971,1011.8305971,1012.7447392999993,1011.8305971,1013.8617274999997,j,1,2.0304576999997153,None,direct,16,"[20, 19, 20, 18, 19, 14, 16]",7,shifteddirectgaze.png,j,1,3,results13,001,2026-04-14_11h17.01.657,mogelijke versie adaptive staircase builder,,2026.1.3,59.98271298217992,2026-04-14 11h17.01.850648 +0200,
20.5,ecc10neg,right,16,0,16,j,0,1.9482284000005166,None,0,2,2,2,16,0,16,0,1013.9526557999998,,,,,,,,,,,,,,,1013.9485108999997,1013.9526557999998,1013.9526557999998,1014.8776895999999,1013.9526557999998,1015.9117635999992,j,0,1.9482284000005166,None,left,15,"[20, 19, 20, 18, 19, 14, 16, 15]",8,shiftedgaze_L_15.png,j,0,3,results13,001,2026-04-14_11h17.01.657,mogelijke versie adaptive staircase builder,,2026.1.3,59.98271298217992,2026-04-14 11h17.01.850648 +0200,
20.5,ecc10neg,right,17,0,17,f,1,1.7293541999997615,None,0,2,2,2,17,0,17,0,1016.0118426999998,,,,,,,,,,,,,,,1016.0015096999996,1016.0118426999998,1016.0118426999998,1016.9112173999993,1016.0118426999998,1017.7449948999993,f,1,1.7293541999997615,None,right,16,"[20, 19, 20, 18, 19, 14, 16, 15, 16]",9,shiftedgaze_R_16.png,f,1,3,results13,001,2026-04-14_11h17.01.657,mogelijke versie adaptive staircase builder,,2026.1.3,59.98271298217992,2026-04-14 11h17.01.850648 +0200,
20.5,ecc10neg,right,18,0,18,j,0,1.8575699000002714,None,0,2,2,2,18,0,18,0,1017.8436702999998,,,,,,,,,,,,,,,1017.8335701999995,1017.8436702999998,1017.8436702999998,1018.7448473999993,1017.8436702999998,1019.7117609999996,j,0,1.8575699000002714,None,left,15,"[20, 19, 20, 18, 19, 14, 16, 15, 16, 15]",10,shiftedgaze_L_15.png,j,0,3,results13,001,2026-04-14_11h17.01.657,mogelijke versie adaptive staircase builder,,2026.1.3,59.98271298217992,2026-04-14 11h17.01.850648 +0200,
20.5,ecc10neg,right,19,0,19,f,1,1.5287566000006336,None,0,2,2,2,19,0,19,0,1019.8124310999992,,,,,,,,,,,,,,,1019.8018121999994,1019.8124310999992,1019.8124310999992,1020.7277079999994,1019.8124310999992,1021.3448466,f,1,1.5287566000006336,None,right,16,"[20, 19, 20, 18, 19, 14, 16, 15, 16, 15, 16]",11,shiftedgaze_R_16.png,f,1,3,results13,001,2026-04-14_11h17.01.657,mogelijke versie adaptive staircase builder,,2026.1.3,59.98271298217992,2026-04-14 11h17.01.850648 +0200,
20.5,ecc10neg,right,20,0,20,j,0,1.4856634999996459,None,0,2,2,2,20,0,20,0,1021.4392609999995,,,,,,,,,,,,,,,1021.4282721,1021.4392609999995,1021.4392609999995,1022.3445800999998,1021.4392609999995,1022.9284259999995,j,0,1.4856634999996459,None,left,15,"[20, 19, 20, 18, 19, 14, 16, 15, 16, 15, 16, 15]",12,shiftedgaze_L_15.png,j,0,3,results13,001,2026-04-14_11h17.01.657,mogelijke versie adaptive staircase builder,,2026.1.3,59.98271298217992,2026-04-14 11h17.01.850648 +0200,
20.5,ecc10neg,right,21,0,21,j,0,1.6804060000004029,None,0,2,2,2,21,0,21,0,1023.0207991999996,,,,,,,,,,,,,,,1023.0164610999991,1023.0207991999996,1023.0207991999996,1023.9448216999999,1023.0207991999996,1024.7118093,j,0,1.6804060000004029,None,left,16,"[20, 19, 20, 18, 19, 14, 16, 15, 16, 15, 16, 15]",12,shiftedgaze_L_16.png,j,0,3,results13,001,2026-04-14_11h17.01.657,mogelijke versie adaptive staircase builder,,2026.1.3,59.98271298217992,2026-04-14 11h17.01.850648 +0200,
20.5,ecc10neg,right,22,0,22,f,1,1.6414963000006537,None,0,2,2,2,22,0,22,0,1024.8113363999992,,,,,,,,,,,,,,,1024.800509399999,1024.8113363999992,1024.8113363999992,1025.7113065999993,1024.8113363999992,1026.4614769999998,f,1,1.6414963000006537,None,right,17,"[20, 19, 20, 18, 19, 14, 16, 15, 16, 15, 16, 15, 17]",13,shiftedgaze_R_17.png,f,1,3,results13,001,2026-04-14_11h17.01.657,mogelijke versie adaptive staircase builder,,2026.1.3,59.98271298217992,2026-04-14 11h17.01.850648 +0200,
20.5,ecc10neg,right,23,0,23,f,1,2.3625707999999577,None,0,2,2,2,23,0,23,0,1026.5546571999994,,,,,,,,,,,,,,,1026.5500797999994,1026.5546571999994,1026.5546571999994,1027.4609751999997,1026.5546571999994,1028.9284904999995,f,1,2.3625707999999577,None,right,16,"[20, 19, 20, 18, 19, 14, 16, 15, 16, 15, 16, 15, 17]",13,shiftedgaze_R_16.png,f,1,3,results13,001,2026-04-14_11h17.01.657,mogelijke versie adaptive staircase builder,,2026.1.3,59.98271298217992,2026-04-14 11h17.01.850648 +0200,
20.5,ecc10neg,right,24,0,24,j,0,1.837068900000304,None,0,2,2,2,24,0,24,0,1029.0237340999993,,,,,,,,,,,,,,,1029.0125363999996,1029.0237340999993,1029.0237340999993,1029.9281763,1029.0237340999993,1030.8611022999994,j,0,1.837068900000304,None,left,15,"[20, 19, 20, 18, 19, 14, 16, 15, 16, 15, 16, 15, 17, 15]",14,shiftedgaze_L_15.png,j,0,3,results13,001,2026-04-14_11h17.01.657,mogelijke versie adaptive staircase builder,,2026.1.3,59.98271298217992,2026-04-14 11h17.01.850648 +0200,
20.5,ecc10neg,right,25,0,25,f,0,2.3618562999999995,None,0,2,2,2,25,0,25,0,1030.9471841999994,,,,,,,,,,,,,,,1030.9425835999991,1030.9471841999994,1030.9471841999994,1031.8609912999991,1030.9471841999994,1033.3117279999997,f,0,2.3618562999999995,None,direct,16,"[20, 19, 20, 18, 19, 14, 16, 15, 16, 15, 16, 15, 17, 15]",14,shifteddirectgaze.png,f,0,3,results13,001,2026-04-14_11h17.01.657,mogelijke versie adaptive staircase builder,,2026.1.3,59.98271298217992,2026-04-14 11h17.01.850648 +0200,
20.5,ecc10neg,right,26,0,26,f,1,1.538840700000037,None,0,2,2,2,26,0,26,0,1033.4102845999996,,,,,,,,,,,,,,,1033.3995616999991,1033.4102845999996,1033.4102845999996,1034.3115265999995,1033.4102845999996,1034.9617517999995,f,1,1.538840700000037,None,right,17,"[20, 19, 20, 18, 19, 14, 16, 15, 16, 15, 16, 15, 17, 15, 17]",15,shiftedgaze_R_17.png,f,1,3,results13,001,2026-04-14_11h17.01.657,mogelijke versie adaptive staircase builder,,2026.1.3,59.98271298217992,2026-04-14 11h17.01.850648 +0200,
20.5,ecc10neg,right,27,0,27,f,0,1.9812933000002886,None,0,2,2,2,27,0,27,0,1035.0555025999993,,,,,,,,,,,,,,,1035.0450758999996,1035.0555025999993,1035.0555025999993,1035.9614703999996,1035.0555025999993,1037.0443886999992,f,0,1.9812933000002886,None,direct,16,"[20, 19, 20, 18, 19, 14, 16, 15, 16, 15, 16, 15, 17, 15, 17, 16]",16,shifteddirectgaze.png,f,0,3,results13,001,2026-04-14_11h17.01.657,mogelijke versie adaptive staircase builder,,2026.1.3,59.98271298217992,2026-04-14 11h17.01.850648 +0200,
20.5,ecc10neg,right,28,0,28,f,1,1.580990099999326,None,0,2,2,2,28,0,28,0,1037.1518155999993,,,,,,,,,,,,,,,1037.1408787999999,1037.1518155999993,1037.1518155999993,1038.0447577999994,1037.1518155999993,1038.7445443999995,f,1,1.580990099999326,None,right,17,"[20, 19, 20, 18, 19, 14, 16, 15, 16, 15, 16, 15, 17, 15, 17, 16, 17]",17,shiftedgaze_R_17.png,f,1,3,results13,001,2026-04-14_11h17.01.657,mogelijke versie adaptive staircase builder,,2026.1.3,59.98271298217992,2026-04-14 11h17.01.850648 +0200,
20.5,ecc10neg,right,29,0,29,j,1,1.6487978999994084,None,0,2,2,2,29,0,29,0,1038.8360817999992,,,,,,,,,,,,,,,1038.8256859999992,1038.8360817999992,1038.8360817999992,1039.7448204999992,1038.8360817999992,1040.4944245999995,j,1,1.6487978999994084,None,direct,16,"[20, 19, 20, 18, 19, 14, 16, 15, 16, 15, 16, 15, 17, 15, 17, 16, 17]",17,shifteddirectgaze.png,j,1,3,results13,001,2026-04-14_11h17.01.657,mogelijke versie adaptive staircase builder,,2026.1.3,59.98271298217992,2026-04-14 11h17.01.850648 +0200,
20.5,ecc10neg,right,30,0,30,f,1,1.6171015999998417,None,0,2,2,2,30,0,30,0,1040.5797633999991,,,,,,,,,,,,,,,1040.5750046999992,1040.5797633999991,1040.5797633999991,1041.4947023999994,1040.5797633999991,1042.2111507999998,f,1,1.6171015999998417,None,right,15,"[20, 19, 20, 18, 19, 14, 16, 15, 16, 15, 16, 15, 17, 15, 17, 16, 17]",17,shiftedgaze_R_15.png,f,1,3,results13,001,2026-04-14_11h17.01.657,mogelijke versie adaptive staircase builder,,2026.1.3,59.98271298217992,2026-04-14 11h17.01.850648 +0200,
20.5,ecc10neg,right,31,0,31,f,1,1.5969703999999183,None,0,2,2,2,31,0,31,0,1042.3042137999992,,,,,,,,,,,,,,,1042.2994696999995,1042.3042137999992,1042.3042137999992,1043.2109529,1042.3042137999992,1043.9114283,f,1,1.5969703999999183,None,right,14,"[20, 19, 20, 18, 19, 14, 16, 15, 16, 15, 16, 15, 17, 15, 17, 16, 17]",17,shiftedgaze_R_14.png,f,1,3,results13,001,2026-04-14_11h17.01.657,mogelijke versie adaptive staircase builder,,2026.1.3,59.98271298217992,2026-04-14 11h17.01.850648 +0200,
20.5,ecc10neg,right,32,0,32,f,1,1.6027586000000156,None,0,2,2,2,32,0,32,0,1044.0024346999999,,,,,,,,,,,,,,,1043.9976884999996,1044.0024346999999,1044.0024346999999,1044.9112582999996,1044.0024346999999,1045.6120824999998,f,1,1.6027586000000156,None,right,13,"[20, 19, 20, 18, 19, 14, 16, 15, 16, 15, 16, 15, 17, 15, 17, 16, 17]",17,shiftedgaze_R_13.png,f,1,3,results13,001,2026-04-14_11h17.01.657,mogelijke versie adaptive staircase builder,,2026.1.3,59.98271298217992,2026-04-14 11h17.01.850648 +0200,
20.5,ecc10neg,right,33,0,33,j,1,1.9268340999997235,None,0,2,2,2,33,0,33,0,1045.6944058,,,,,,,,,,,,,,,1045.6899386999994,1045.6944058,1045.6944058,1046.6113868999992,1045.6944058,1047.6284245999996,j,1,1.9268340999997235,None,direct,12,"[20, 19, 20, 18, 19, 14, 16, 15, 16, 15, 16, 15, 17, 15, 17, 16, 17]",17,shifteddirectgaze.png,j,1,3,results13,001,2026-04-14_11h17.01.657,mogelijke versie adaptive staircase builder,,2026.1.3,59.98271298217992,2026-04-14 11h17.01.850648 +0200,
20.5,ecc10neg,right,34,0,34,f,1,1.7036662999998953,None,0,2,2,2,34,0,34,0,1047.7176210999996,,,,,,,,,,,,,,,1047.7135455999996,1047.7176210999996,1047.7176210999996,1048.627910099999,1047.7176210999996,1049.4285516999998,f,1,1.7036662999998953,None,left,11,"[20, 19, 20, 18, 19, 14, 16, 15, 16, 15, 16, 15, 17, 15, 17, 16, 17]",17,shiftedgaze_L_11.png,f,1,3,results13,001,2026-04-14_11h17.01.657,mogelijke versie adaptive staircase builder,,2026.1.3,59.98271298217992,2026-04-14 11h17.01.850648 +0200,
20.5,ecc10neg,right,35,0,35,j,0,1.2019829999999274,None,0,2,2,2,35,0,35,0,1049.8829100999992,,,,,,,,,,,,,,,1049.8787890999993,1049.8829100999992,1049.8829100999992,1050.4442768999997,1049.8829100999992,1051.0944949999994,j,0,1.2019829999999274,None,left,10,"[20, 19, 20, 18, 19, 14, 16, 15, 16, 15, 16, 15, 17, 15, 17, 16, 17, 10]",18,shiftedgaze_L_10.png,j,0,3,results13,001,2026-04-14_11h17.01.657,mogelijke versie adaptive staircase builder,,2026.1.3,59.98271298217992,2026-04-14 11h17.01.850648 +0200,
20.5,ecc10neg,right,36,0,36,j,0,2.810865499999636,None,0,2,2,2,36,0,36,0,1051.1784027999993,,,,,,,,,,,,,,,1051.1744234999996,1051.1784027999993,1051.1784027999993,1052.0948492999996,1051.1784027999993,1053.9951022999994,j,0,2.810865499999636,None,left,11,"[20, 19, 20, 18, 19, 14, 16, 15, 16, 15, 16, 15, 17, 15, 17, 16, 17, 10]",18,shiftedgaze_L_11.png,j,0,3,results13,001,2026-04-14_11h17.01.657,mogelijke versie adaptive staircase builder,,2026.1.3,59.98271298217992,2026-04-14 11h17.01.850648 +0200,
20.5,ecc10neg,right,37,0,37,f,1,1.6824794000003749,None,0,2,2,2,37,0,37,0,1054.0986606999995,,,,,,,,,,,,,,,1054.0884196999996,1054.0986606999995,1054.0986606999995,1054.9947709999997,1054.0986606999995,1055.7947488,f,1,1.6824794000003749,None,right,12,"[20, 19, 20, 18, 19, 14, 16, 15, 16, 15, 16, 15, 17, 15, 17, 16, 17, 10, 12]",19,shiftedgaze_R_12.png,f,1,3,results13,001,2026-04-14_11h17.01.657,mogelijke versie adaptive staircase builder,,2026.1.3,59.98271298217992,2026-04-14 11h17.01.850648 +0200,
20.5,ecc10neg,right,38,0,38,j,0,1.573445800000627,None,0,2,2,2,38,0,38,0,1055.8873641999999,,,,,,,,,,,,,,,1055.8776722999992,1055.8873641999999,1055.8873641999999,1056.7949188999992,1055.8873641999999,1057.4612149999994,j,0,1.573445800000627,None,left,11,"[20, 19, 20, 18, 19, 14, 16, 15, 16, 15, 16, 15, 17, 15, 17, 16, 17, 10, 12, 11]",20,shiftedgaze_L_11.png,j,0,3,results13,001,2026-04-14_11h17.01.657,mogelijke versie adaptive staircase builder,,2026.1.3,59.98271298217992,2026-04-14 11h17.01.850648 +0200,
20.5,ecc10neg,right,39,0,39,f,1,2.363243599999805,None,0,2,2,2,39,0,39,0,1057.5619315999993,,,,,,,,,,,,,,,1057.5573044999992,1057.5619315999993,1057.5619315999993,1058.4616737999995,1057.5619315999993,1059.9285673999993,f,1,2.363243599999805,None,left,12,"[20, 19, 20, 18, 19, 14, 16, 15, 16, 15, 16, 15, 17, 15, 17, 16, 17, 10, 12, 11, 12]",21,shiftedgaze_L_12.png,f,1,3,results13,001,2026-04-14_11h17.01.657,mogelijke versie adaptive staircase builder,,2026.1.3,59.98271298217992,2026-04-14 11h17.01.850648 +0200,
20.5,ecc10neg,right,40,0,40,f,0,1.766910899999857,None,0,2,2,2,40,0,40,0,1060.0138811999996,,,,,,,,,,,,,,,1060.0085118999996,1060.0138811999996,1060.0138811999996,1060.9444514999996,1060.0138811999996,1061.7948529999994,f,0,1.766910899999857,None,direct,11,"[20, 19, 20, 18, 19, 14, 16, 15, 16, 15, 16, 15, 17, 15, 17, 16, 17, 10, 12, 11, 12, 11]",22,shifteddirectgaze.png,f,0,3,results13,001,2026-04-14_11h17.01.657,mogelijke versie adaptive staircase builder,,2026.1.3,59.98271298217992,2026-04-14 11h17.01.850648 +0200,
20.5,ecc10neg,right,41,0,41,f,1,1.7740998999997828,None,0,2,2,2,41,0,41,0,1061.8869222999992,,,,,,,,,,,,,,,1061.8769030999993,1061.8869222999992,1061.8869222999992,1062.7945277999997,1061.8869222999992,1063.6619960999997,f,1,1.7740998999997828,None,right,12,"[20, 19, 20, 18, 19, 14, 16, 15, 16, 15, 16, 15, 17, 15, 17, 16, 17, 10, 12, 11, 12, 11, 12]",23,shiftedgaze_R_12.png,f,1,3,results13,001,2026-04-14_11h17.01.657,mogelijke versie adaptive staircase builder,,2026.1.3,59.98271298217992,2026-04-14 11h17.01.850648 +0200,
20.5,ecc10neg,right,42,0,42,f,0,1.691758299999492,None,0,2,2,2,42,0,42,0,1063.7529369999993,,,,,,,,,,,,,,,1063.7430941999992,1063.7529369999993,1063.7529369999993,1064.6615587999995,1063.7529369999993,1065.4448745,f,0,1.691758299999492,None,direct,11,"[20, 19, 20, 18, 19, 14, 16, 15, 16, 15, 16, 15, 17, 15, 17, 16, 17, 10, 12, 11, 12, 11, 12, 11]",24,shifteddirectgaze.png,f,0,3,results13,001,2026-04-14_11h17.01.657,mogelijke versie adaptive staircase builder,,2026.1.3,59.98271298217992,2026-04-14 11h17.01.850648 +0200,
20.5,ecc10neg,right,43,0,43,j,1,1.8359318000002531,None,0,2,2,2,43,0,43,0,1065.5291240999995,,,,,,,,,,,,,,,1065.5243509999991,1065.5291240999995,1065.5291240999995,1066.4444323999996,1065.5291240999995,1067.3782321999997,j,1,1.8359318000002531,None,direct,12,"[20, 19, 20, 18, 19, 14, 16, 15, 16, 15, 16, 15, 17, 15, 17, 16, 17, 10, 12, 11, 12, 11, 12, 11, 12]",25,shifteddirectgaze.png,j,1,3,results13,001,2026-04-14_11h17.01.657,mogelijke versie adaptive staircase builder,,2026.1.3,59.98271298217992,2026-04-14 11h17.01.850648 +0200,
20.5,ecc10neg,right,44,0,44,f,1,1.5622668999994858,None,0,2,2,2,44,0,44,0,1067.4664180999998,,,,,,,,,,,,,,,1067.4618474,1067.4664180999998,1067.4664180999998,1068.3778364999998,1067.4664180999998,1069.0446143999998,f,1,1.5622668999994858,None,left,11,"[20, 19, 20, 18, 19, 14, 16, 15, 16, 15, 16, 15, 17, 15, 17, 16, 17, 10, 12, 11, 12, 11, 12, 11, 12]",25,shiftedgaze_L_11.png,f,1,3,results13,001,2026-04-14_11h17.01.657,mogelijke versie adaptive staircase builder,,2026.1.3,59.98271298217992,2026-04-14 11h17.01.850648 +0200,
20.5,ecc10neg,right,45,0,45,f,0,1.6367287000002761,None,0,2,2,2,45,0,45,0,1069.1280510999995,,,,,,,,,,,,,,,1069.1236833999992,1069.1280510999995,1069.1280510999995,1070.0444631999999,1069.1280510999995,1070.7779569999993,f,0,1.6367287000002761,None,direct,10,"[20, 19, 20, 18, 19, 14, 16, 15, 16, 15, 16, 15, 17, 15, 17, 16, 17, 10, 12, 11, 12, 11, 12, 11, 12, 10]",26,shifteddirectgaze.png,f,0,3,results13,001,2026-04-14_11h17.01.657,mogelijke versie adaptive staircase builder,,2026.1.3,59.98271298217992,2026-04-14 11h17.01.850648 +0200,
20.5,ecc10neg,right,46,0,46,j,0,1.894455999999991,None,0,2,2,2,46,0,46,0,1070.8625662999993,,,,,,,,,,,,,,,1070.8580272,1070.8625662999993,1070.8625662999993,1071.7782715999992,1070.8625662999993,1072.7616874999994,j,0,1.894455999999991,None,left,11,"[20, 19, 20, 18, 19, 14, 16, 15, 16, 15, 16, 15, 17, 15, 17, 16, 17, 10, 12, 11, 12, 11, 12, 11, 12, 10]",26,shiftedgaze_L_11.png,j,0,3,results13,001,2026-04-14_11h17.01.657,mogelijke versie adaptive staircase builder,,2026.1.3,59.98271298217992,2026-04-14 11h17.01.850648 +0200,
20.5,ecc10neg,right,47,0,47,f,0,1.5592796999999337,None,0,2,2,2,47,0,47,0,1072.8455428999996,,,,,,,,,,,,,,,1072.8414543999997,1072.8455428999996,1072.8455428999996,1073.7616310999992,1072.8455428999996,1074.4112759999998,f,0,1.5592796999999337,None,direct,12,"[20, 19, 20, 18, 19, 14, 16, 15, 16, 15, 16, 15, 17, 15, 17, 16, 17, 10, 12, 11, 12, 11, 12, 11, 12, 10]",26,shifteddirectgaze.png,f,0,3,results13,001,2026-04-14_11h17.01.657,mogelijke versie adaptive staircase builder,,2026.1.3,59.98271298217992,2026-04-14 11h17.01.850648 +0200,
20.5,ecc10neg,right,48,0,48,j,1,2.0072486999997636,None,0,2,2,2,48,0,48,0,1074.4939058999998,,,,,,,,,,,,,,,1074.4897841999991,1074.4939058999998,1074.4939058999998,1075.4114756999998,1074.4939058999998,1076.5119278999991,j,1,2.0072486999997636,None,direct,13,"[20, 19, 20, 18, 19, 14, 16, 15, 16, 15, 16, 15, 17, 15, 17, 16, 17, 10, 12, 11, 12, 11, 12, 11, 12, 10, 13]",27,shifteddirectgaze.png,j,1,3,results13,001,2026-04-14_11h17.01.657,mogelijke versie adaptive staircase builder,,2026.1.3,59.98271298217992,2026-04-14 11h17.01.850648 +0200,
20.5,ecc10neg,right,49,0,49,f,1,1.7502457999999024,None,0,2,2,2,49,0,49,0,1076.6064778999998,,,,,,,,,,,,,,,1076.5969216999993,1076.6064778999998,1076.6064778999998,1077.5277643,1076.6064778999998,1078.3613963999996,f,1,1.7502457999999024,None,right,12,"[20, 19, 20, 18, 19, 14, 16, 15, 16, 15, 16, 15, 17, 15, 17, 16, 17, 10, 12, 11, 12, 11, 12, 11, 12, 10, 13]",27,shiftedgaze_R_12.png,f,1,3,results13,001,2026-04-14_11h17.01.657,mogelijke versie adaptive staircase builder,,2026.1.3,59.98271298217992,2026-04-14 11h17.01.850648 +0200,
20.5,ecc10neg,right,50,0,50,j,0,1.7182826999996905,None,0,2,2,2,50,0,50,0,1078.4543214999994,,,,,,,,,,,,,,,1078.4444177999994,1078.4543214999994,1078.4543214999994,1079.3610614999998,1078.4543214999994,1080.1780151999992,j,0,1.7182826999996905,None,left,11,"[20, 19, 20, 18, 19, 14, 16, 15, 16, 15, 16, 15, 17, 15, 17, 16, 17, 10, 12, 11, 12, 11, 12, 11, 12, 10, 13, 11]",28,shiftedgaze_L_11.png,j,0,3,results13,001,2026-04-14_11h17.01.657,mogelijke versie adaptive staircase builder,,2026.1.3,59.98271298217992,2026-04-14 11h17.01.850648 +0200,
20.5,ecc10neg,right,51,0,51,f,0,1.6612200999998095,None,0,2,2,2,51,0,51,0,1080.2635609999998,,,,,,,,,,,,,,,1080.2586730999992,1080.2635609999998,1080.2635609999998,1081.1777788,1080.2635609999998,1081.9280743999998,f,0,1.6612200999998095,None,direct,12,"[20, 19, 20, 18, 19, 14, 16, 15, 16, 15, 16, 15, 17, 15, 17, 16, 17, 10, 12, 11, 12, 11, 12, 11, 12, 10, 13, 11]",28,shifteddirectgaze.png,f,0,3,results13,001,2026-04-14_11h17.01.657,mogelijke versie adaptive staircase builder,,2026.1.3,59.98271298217992,2026-04-14 11h17.01.850648 +0200,
20.5,ecc10neg,right,52,0,52,f,1,1.7682057000001805,None,0,2,2,2,52,0,52,0,1082.0125808999992,,,,,,,,,,,,,,,1082.0078801,1082.0125808999992,1082.0125808999992,1082.9279963999998,1082.0125808999992,1083.7946389999997,f,1,1.7682057000001805,None,right,13,"[20, 19, 20, 18, 19, 14, 16, 15, 16, 15, 16, 15, 17, 15, 17, 16, 17, 10, 12, 11, 12, 11, 12, 11, 12, 10, 13, 11, 13]",29,shiftedgaze_R_13.png,f,1,3,results13,001,2026-04-14_11h17.01.657,mogelijke versie adaptive staircase builder,,2026.1.3,59.98271298217992,2026-04-14 11h17.01.850648 +0200,
20.5,ecc10neg,right,53,0,53,f,1,2.305176799999572,None,0,2,2,2,53,0,53,0,1083.8835439999993,,,,,,,,,,,,,,,1083.8731263999998,1083.8835439999993,1083.8835439999993,1084.7949455999997,1083.8835439999993,1086.1946853,f,1,2.305176799999572,None,right,12,"[20, 19, 20, 18, 19, 14, 16, 15, 16, 15, 16, 15, 17, 15, 17, 16, 17, 10, 12, 11, 12, 11, 12, 11, 12, 10, 13, 11, 13]",29,shiftedgaze_R_12.png,f,1,3,results13,001,2026-04-14_11h17.01.657,mogelijke versie adaptive staircase builder,,2026.1.3,59.98271298217992,2026-04-14 11h17.01.850648 +0200,
20.5,ecc10neg,right,54,0,54,j,1,1.7960493999999017,None,0,2,2,2,54,0,54,0,1086.2890789999992,,,,,,,,,,,,,,,1086.2790105999993,1086.2890789999992,1086.2890789999992,1087.1943419,1086.2890789999992,1088.0952854999996,j,1,1.7960493999999017,None,direct,11,"[20, 19, 20, 18, 19, 14, 16, 15, 16, 15, 16, 15, 17, 15, 17, 16, 17, 10, 12, 11, 12, 11, 12, 11, 12, 10, 13, 11, 13]",29,shifteddirectgaze.png,j,1,3,results13,001,2026-04-14_11h17.01.657,mogelijke versie adaptive staircase builder,,2026.1.3,59.98271298217992,2026-04-14 11h17.01.850648 +0200,
20.5,ecc10neg,right,55,0,55,f,0,1.7784683999998379,None,0,2,2,2,55,0,55,0,1088.1784147999997,,,,,,,,,,,,,,,1088.1742608999994,1088.1784147999997,1088.1784147999997,1089.094838,1088.1784147999997,1089.9614353999996,f,0,1.7784683999998379,None,direct,10,"[20, 19, 20, 18, 19, 14, 16, 15, 16, 15, 16, 15, 17, 15, 17, 16, 17, 10, 12, 11, 12, 11, 12, 11, 12, 10, 13, 11, 13, 10]",30,shifteddirectgaze.png,f,0,3,results13,001,2026-04-14_11h17.01.657,mogelijke versie adaptive staircase builder,,2026.1.3,59.98271298217992,2026-04-14 11h17.01.850648 +0200,
20.5,ecc10neg,right,56,0,56,f,0,1.5137881000000561,None,0,2,2,2,56,0,56,0,1090.0429663999994,,,,,,,,,,,,,,,1090.0388405999993,1090.0429663999994,1090.0429663999994,1090.9615885999992,1090.0429663999994,1091.5612386999992,f,0,1.5137881000000561,None,direct,11,"[20, 19, 20, 18, 19, 14, 16, 15, 16, 15, 16, 15, 17, 15, 17, 16, 17, 10, 12, 11, 12, 11, 12, 11, 12, 10, 13, 11, 13, 10]",30,shifteddirectgaze.png,f,0,3,results13,001,2026-04-14_11h17.01.657,mogelijke versie adaptive staircase builder,,2026.1.3,59.98271298217992,2026-04-14 11h17.01.850648 +0200,
20.5,ecc10neg,right,57,0,57,f,1,1.6075684000006731,None,0,2,2,2,57,0,57,0,1091.6536014999992,,,,,,,,,,,,,,,1091.6430242999995,1091.6536014999992,1091.6536014999992,1092.5615994,1091.6536014999992,1093.2614716999997,f,1,1.6075684000006731,None,right,12,"[20, 19, 20, 18, 19, 14, 16, 15, 16, 15, 16, 15, 17, 15, 17, 16, 17, 10, 12, 11, 12, 11, 12, 11, 12, 10, 13, 11, 13, 10, 12]",31,shiftedgaze_R_12.png,f,1,3,results13,001,2026-04-14_11h17.01.657,mogelijke versie adaptive staircase builder,,2026.1.3,59.98271298217992,2026-04-14 11h17.01.850648 +0200,
20.5,ecc10neg,right,58,0,58,f,1,1.5689804000003278,None,0,2,2,2,58,0,58,0,1093.3637315999995,,,,,,,,,,,,,,,1093.3534585999996,1093.3637315999995,1093.3637315999995,1094.2611035999998,1093.3637315999995,1094.9446315999994,f,1,1.5689804000003278,None,right,11,"[20, 19, 20, 18, 19, 14, 16, 15, 16, 15, 16, 15, 17, 15, 17, 16, 17, 10, 12, 11, 12, 11, 12, 11, 12, 10, 13, 11, 13, 10, 12]",31,shiftedgaze_R_11.png,f,1,3,results13,001,2026-04-14_11h17.01.657,mogelijke versie adaptive staircase builder,,2026.1.3,59.98271298217992,2026-04-14 11h17.01.850648 +0200,
20.5,ecc10neg,right,59,0,59,j,1,2.162001199999395,None,0,2,2,2,59,0,59,0,1095.0266248999997,,,,,,,,,,,,,,,1095.0224698999991,1095.0266248999997,1095.0266248999997,1095.9447394999997,1095.0266248999997,1097.1945542999993,j,1,2.162001199999395,None,direct,10,"[20, 19, 20, 18, 19, 14, 16, 15, 16, 15, 16, 15, 17, 15, 17, 16, 17, 10, 12, 11, 12, 11, 12, 11, 12, 10, 13, 11, 13, 10, 12]",31,shifteddirectgaze.png,j,1,3,results13,001,2026-04-14_11h17.01.657,mogelijke versie adaptive staircase builder,,2026.1.3,59.98271298217992,2026-04-14 11h17.01.850648 +0200,
20.5,ecc10neg,right,2,2,0,,,,,0,2,2,2,,,,,,,,,,,,,,,,,,,,,,,,,,,,,,,,,,,,,,results13,001,2026-04-14_11h17.01.657,mogelijke versie adaptive staircase builder,,2026.1.3,59.98271298217992,2026-04-14 11h17.01.850648 +0200,
