xPos,stimulusSet,whichImage,thisN,thisTrialN,thisRepN,key_resp.keys,key_resp.corr,key_resp.rt,key_resp.duration,blocks.thisRepN,blocks.thisTrialN,blocks.thisN,blocks.thisIndex,trials.thisRepN,trials.thisTrialN,trials.thisN,trials.thisIndex,thisRow.t,notes,piloting,intro.started,introinstructions.started,intro_key.started,demo_image_left.started,demo_image_middle.started,demo_image_right.started,intro.stopped,intro_key.keys,intro_key.rt,intro_key.duration,block_start.started,block_start.stopped,trial.started,key_resp.started,middle_image.started,right_image.started,left_image.started,trial.stopped,trials.key_resp.keys,trials.key_resp.corr,trials.key_resp.rt,trials.key_resp.duration,direction,angle,reversal_intensities,number_reversals,stimulus,response,correct,blockNumber,participant,session,date,expName,expVersion,psychopyVersion,frameRate,expStart,
,,,,,,,,,,,,,,,,,,,,False,0.0034425000003466266,0.006251800000427465,0.006251800000427465,0.006251800000427465,0.006251800000427465,0.006251800000427465,1305.9312216999997,space,1305.806103,0.11194649999924877,,,,,,,,,,,,,,,,,,,,,results14,001,2026-04-14_11h52.24.061,mogelijke versie adaptive staircase builder,,2026.1.3,60.08636814558529,2026-04-14 11h52.24.347206 +0200,
4.5,ecc10pos,left,0,0,0,j,0,11.923942100000204,None,0,0,0,0,0,0,0,0,1306.2645335000007,,,,,,,,,,,,,1306.1569408000005,1306.1569979000005,1306.2616236000003,1306.2645335000007,1306.2645335000007,1306.2645335000007,1307.164302600001,1318.1978492999997,j,0,11.923942100000204,None,left,20,[],0,shiftedgaze_L_20.png,j,0,1,results14,001,2026-04-14_11h52.24.061,mogelijke versie adaptive staircase builder,,2026.1.3,60.08636814558529,2026-04-14 11h52.24.347206 +0200,
4.5,ecc10pos,left,1,0,1,j,0,8.081525100000363,None,0,0,0,0,1,0,1,0,1318.3629499000008,,,,,,,,,,,,,,,1318.3578055999997,1318.3629499000008,1318.3629499000008,1318.3629499000008,1319.1974584000009,1326.4476893,j,0,8.081525100000363,None,right,20,[],0,shiftedgaze_R_20.png,j,0,1,results14,001,2026-04-14_11h52.24.061,mogelijke versie adaptive staircase builder,,2026.1.3,60.08636814558529,2026-04-14 11h52.24.347206 +0200,
4.5,ecc10pos,left,2,0,2,j,0,14.712954299999183,None,0,0,0,0,2,0,2,0,1326.5796531999995,,,,,,,,,,,,,,,1326.5690569000008,1326.5796531999995,1326.5796531999995,1326.5796531999995,1327.4481963000007,1341.2985999000002,j,0,14.712954299999183,None,left,20,[],0,shiftedgaze_L_20.png,j,0,1,results14,001,2026-04-14_11h52.24.061,mogelijke versie adaptive staircase builder,,2026.1.3,60.08636814558529,2026-04-14 11h52.24.347206 +0200,
4.5,ecc10pos,left,3,0,3,f,1,11.4050172999996,None,0,0,0,0,3,0,3,0,1341.391433400001,,,,,,,,,,,,,,,1341.3870453000009,1341.391433400001,1341.391433400001,1341.391433400001,1342.314433800001,1352.7981365999995,f,1,11.4050172999996,None,left,20,[20],1,shiftedgaze_L_20.png,f,1,1,results14,001,2026-04-14_11h52.24.061,mogelijke versie adaptive staircase builder,,2026.1.3,60.08636814558529,2026-04-14 11h52.24.347206 +0200,
4.5,ecc10pos,left,4,0,4,f,1,2.036985499998991,None,0,0,0,0,4,0,4,0,1352.8954292999997,,,,,,,,,,,,,,,1352.8913008000009,1352.8954292999997,1352.8954292999997,1352.8954292999997,1353.7977555999996,1354.947937,f,1,2.036985499998991,None,left,19,[20],1,shiftedgaze_L_19.png,f,1,1,results14,001,2026-04-14_11h52.24.061,mogelijke versie adaptive staircase builder,,2026.1.3,60.08636814558529,2026-04-14 11h52.24.347206 +0200,
4.5,ecc10pos,left,5,0,5,f,0,2.5861605999998574,None,0,0,0,0,5,0,5,0,1355.0662447000004,,,,,,,,,,,,,,,1355.054975,1355.0662447000004,1355.0662447000004,1355.0662447000004,1355.9476093000003,1357.6651948999997,f,0,2.5861605999998574,None,direct,18,"[20, 18]",2,shifteddirectgaze.png,f,0,1,results14,001,2026-04-14_11h52.24.061,mogelijke versie adaptive staircase builder,,2026.1.3,60.08636814558529,2026-04-14 11h52.24.347206 +0200,
4.5,ecc10pos,left,6,0,6,j,0,1.7947311000007176,None,0,0,0,0,6,0,6,0,1357.7698482999995,,,,,,,,,,,,,,,1357.7601339000003,1357.7698482999995,1357.7698482999995,1357.7698482999995,1358.6648997000002,1359.5651473000007,j,0,1.7947311000007176,None,left,19,"[20, 18]",2,shiftedgaze_L_19.png,j,0,1,results14,001,2026-04-14_11h52.24.061,mogelijke versie adaptive staircase builder,,2026.1.3,60.08636814558529,2026-04-14 11h52.24.347206 +0200,
4.5,ecc10pos,left,7,0,7,j,0,5.145124299999225,None,0,0,0,0,7,0,7,0,1359.6596187000005,,,,,,,,,,,,,,,1359.6554772999998,1359.6596187000005,1359.6596187000005,1359.6596187000005,1360.5811091999994,1364.8151356000008,j,0,5.145124299999225,None,left,20,"[20, 18]",2,shiftedgaze_L_20.png,j,0,1,results14,001,2026-04-14_11h52.24.061,mogelijke versie adaptive staircase builder,,2026.1.3,60.08636814558529,2026-04-14 11h52.24.347206 +0200,
4.5,ecc10pos,left,8,0,8,f,1,3.229945700000826,None,0,0,0,0,8,0,8,0,1364.9103870000008,,,,,,,,,,,,,,,1364.9004488,1364.9103870000008,1364.9103870000008,1364.9103870000008,1365.8147667000003,1368.1476727,f,1,3.229945700000826,None,right,20,"[20, 18, 20]",3,shiftedgaze_R_20.png,f,1,1,results14,001,2026-04-14_11h52.24.061,mogelijke versie adaptive staircase builder,,2026.1.3,60.08636814558529,2026-04-14 11h52.24.347206 +0200,
4.5,ecc10pos,left,9,0,9,f,0,6.031742600000143,None,0,0,0,0,9,0,9,0,1368.2366823000002,,,,,,,,,,,,,,,1368.2319138000012,1368.2366823000002,1368.2366823000002,1368.2366823000002,1369.1477986,1374.2812354999996,f,0,6.031742600000143,None,direct,19,"[20, 18, 20, 19]",4,shifteddirectgaze.png,f,0,1,results14,001,2026-04-14_11h52.24.061,mogelijke versie adaptive staircase builder,,2026.1.3,60.08636814558529,2026-04-14 11h52.24.347206 +0200,
4.5,ecc10pos,left,10,0,10,f,0,4.544750400000339,None,0,0,0,0,10,0,10,0,1374.363642700001,,,,,,,,,,,,,,,1374.359778000001,1374.363642700001,1374.363642700001,1374.363642700001,1375.2815655000004,1378.9148835000005,f,0,4.544750400000339,None,direct,20,"[20, 18, 20, 19]",4,shifteddirectgaze.png,f,0,1,results14,001,2026-04-14_11h52.24.061,mogelijke versie adaptive staircase builder,,2026.1.3,60.08636814558529,2026-04-14 11h52.24.347206 +0200,
4.5,ecc10pos,left,11,0,11,f,1,3.421053399999437,None,0,0,0,0,11,0,11,0,1378.9993616000002,,,,,,,,,,,,,,,1378.9953245999995,1378.9993616000002,1378.9993616000002,1378.9993616000002,1379.9310284000012,1382.4312598000006,f,1,3.421053399999437,None,right,20,"[20, 18, 20, 19, 20]",5,shiftedgaze_R_20.png,f,1,1,results14,001,2026-04-14_11h52.24.061,mogelijke versie adaptive staircase builder,,2026.1.3,60.08636814558529,2026-04-14 11h52.24.347206 +0200,
4.5,ecc10pos,left,12,0,12,f,1,1.3718585000005987,None,0,0,0,0,12,0,12,0,1382.5365107000007,,,,,,,,,,,,,,,1382.5265105000008,1382.5365107000007,1382.5365107000007,1382.5365107000007,1383.4310819000011,1383.9144951999997,f,1,1.3718585000005987,None,right,19,"[20, 18, 20, 19, 20]",5,shiftedgaze_R_19.png,f,1,1,results14,001,2026-04-14_11h52.24.061,mogelijke versie adaptive staircase builder,,2026.1.3,60.08636814558529,2026-04-14 11h52.24.347206 +0200,
4.5,ecc10pos,left,13,0,13,j,1,2.4055693999998766,None,0,0,0,0,13,0,13,0,1384.0067573999995,,,,,,,,,,,,,,,1383.9974907999995,1384.0067573999995,1384.0067573999995,1384.0067573999995,1384.9141324000002,1386.414366600001,j,1,2.4055693999998766,None,direct,18,"[20, 18, 20, 19, 20]",5,shifteddirectgaze.png,j,1,1,results14,001,2026-04-14_11h52.24.061,mogelijke versie adaptive staircase builder,,2026.1.3,60.08636814558529,2026-04-14 11h52.24.347206 +0200,
4.5,ecc10pos,left,14,0,14,j,0,5.27616769999986,None,0,0,0,0,14,0,14,0,1386.5682363999995,,,,,,,,,,,,,,,1386.5575663999998,1386.5682363999995,1386.5682363999995,1386.5682363999995,1387.4142143,1391.8479654000012,j,0,5.27616769999986,None,left,17,"[20, 18, 20, 19, 20, 17]",6,shiftedgaze_L_17.png,j,0,1,results14,001,2026-04-14_11h52.24.061,mogelijke versie adaptive staircase builder,,2026.1.3,60.08636814558529,2026-04-14 11h52.24.347206 +0200,
4.5,ecc10pos,left,15,0,15,j,0,5.792145899999014,None,0,0,0,0,15,0,15,0,1391.9483234999998,,,,,,,,,,,,,,,1391.9443822000003,1391.9483234999998,1391.9483234999998,1391.9483234999998,1392.8475618000002,1397.7477745000006,j,0,5.792145899999014,None,left,18,"[20, 18, 20, 19, 20, 17]",6,shiftedgaze_L_18.png,j,0,1,results14,001,2026-04-14_11h52.24.061,mogelijke versie adaptive staircase builder,,2026.1.3,60.08636814558529,2026-04-14 11h52.24.347206 +0200,
4.5,ecc10pos,left,16,0,16,f,1,1.3912817999989784,None,0,0,0,0,16,0,16,0,1397.8372174999995,,,,,,,,,,,,,,,1397.8331616999994,1397.8372174999995,1397.8372174999995,1397.8372174999995,1398.747946800001,1399.2311801000005,f,1,1.3912817999989784,None,left,19,"[20, 18, 20, 19, 20, 17, 19]",7,shiftedgaze_L_19.png,f,1,1,results14,001,2026-04-14_11h52.24.061,mogelijke versie adaptive staircase builder,,2026.1.3,60.08636814558529,2026-04-14 11h52.24.347206 +0200,
4.5,ecc10pos,left,17,0,17,j,1,2.6850389999999607,None,0,0,0,0,17,0,17,0,1399.3273316000004,,,,,,,,,,,,,,,1399.317576800001,1399.3273316000004,1399.3273316000004,1399.3273316000004,1400.2309918,1402.0144938000003,j,1,2.6850389999999607,None,direct,18,"[20, 18, 20, 19, 20, 17, 19]",7,shifteddirectgaze.png,j,1,1,results14,001,2026-04-14_11h52.24.061,mogelijke versie adaptive staircase builder,,2026.1.3,60.08636814558529,2026-04-14 11h52.24.347206 +0200,
4.5,ecc10pos,left,18,0,18,f,0,7.940673200000674,None,0,0,0,0,18,0,18,0,1402.0958937999994,,,,,,,,,,,,,,,1402.0919504000003,1402.0958937999994,1402.0958937999994,1402.0958937999994,1403.014255000001,1410.0479870000008,f,0,7.940673200000674,None,direct,17,"[20, 18, 20, 19, 20, 17, 19, 17]",8,shifteddirectgaze.png,f,0,1,results14,001,2026-04-14_11h52.24.061,mogelijke versie adaptive staircase builder,,2026.1.3,60.08636814558529,2026-04-14 11h52.24.347206 +0200,
4.5,ecc10pos,left,19,0,19,f,1,3.1797153999996226,None,0,0,0,0,19,0,19,0,1410.1371331,,,,,,,,,,,,,,,1410.133208100001,1410.1371331,1410.1371331,1410.1371331,1411.0478469,1413.3317577999997,f,1,3.1797153999996226,None,right,18,"[20, 18, 20, 19, 20, 17, 19, 17, 18]",9,shiftedgaze_R_18.png,f,1,1,results14,001,2026-04-14_11h52.24.061,mogelijke versie adaptive staircase builder,,2026.1.3,60.08636814558529,2026-04-14 11h52.24.347206 +0200,
4.5,ecc10pos,left,20,0,20,f,1,6.305665300000328,None,0,0,0,0,20,0,20,0,1413.4348067,,,,,,,,,,,,,,,1413.4250674999994,1413.4348067,1413.4348067,1413.4348067,1414.3315205999997,1419.747816,f,1,6.305665300000328,None,left,17,"[20, 18, 20, 19, 20, 17, 19, 17, 18]",9,shiftedgaze_L_17.png,f,1,1,results14,001,2026-04-14_11h52.24.061,mogelijke versie adaptive staircase builder,,2026.1.3,60.08636814558529,2026-04-14 11h52.24.347206 +0200,
4.5,ecc10pos,left,21,0,21,j,1,2.0526631999982783,None,0,0,0,0,21,0,21,0,1419.847842100001,,,,,,,,,,,,,,,1419.8374996000011,1419.847842100001,1419.847842100001,1419.847842100001,1420.7476510999995,1421.9149005999998,j,1,2.0526631999982783,None,direct,16,"[20, 18, 20, 19, 20, 17, 19, 17, 18]",9,shifteddirectgaze.png,j,1,1,results14,001,2026-04-14_11h52.24.061,mogelijke versie adaptive staircase builder,,2026.1.3,60.08636814558529,2026-04-14 11h52.24.347206 +0200,
4.5,ecc10pos,left,22,0,22,j,0,1.8311648999988392,None,0,0,0,0,22,0,22,0,1422.0056769000012,,,,,,,,,,,,,,,1422.0009,1422.0056769000012,1422.0056769000012,1422.0056769000012,1422.914780600001,1423.8483048999997,j,0,1.8311648999988392,None,right,15,"[20, 18, 20, 19, 20, 17, 19, 17, 18, 15]",10,shiftedgaze_R_15.png,j,0,1,results14,001,2026-04-14_11h52.24.061,mogelijke versie adaptive staircase builder,,2026.1.3,60.08636814558529,2026-04-14 11h52.24.347206 +0200,
4.5,ecc10pos,left,23,0,23,f,1,2.162261400000716,None,0,0,0,0,23,0,23,0,1423.9541868999995,,,,,,,,,,,,,,,1423.9437186000005,1423.9541868999995,1423.9541868999995,1423.9541868999995,1424.8478815000008,1426.1311352000002,f,1,2.162261400000716,None,left,16,"[20, 18, 20, 19, 20, 17, 19, 17, 18, 15, 16]",11,shiftedgaze_L_16.png,f,1,1,results14,001,2026-04-14_11h52.24.061,mogelijke versie adaptive staircase builder,,2026.1.3,60.08636814558529,2026-04-14 11h52.24.347206 +0200,
4.5,ecc10pos,left,24,0,24,f,0,3.2561934999994264,None,0,0,0,0,24,0,24,0,1426.220402,,,,,,,,,,,,,,,1426.2105359000007,1426.220402,1426.220402,1426.220402,1427.130939900001,1429.4816676,f,0,3.2561934999994264,None,direct,15,"[20, 18, 20, 19, 20, 17, 19, 17, 18, 15, 16, 15]",12,shifteddirectgaze.png,f,0,1,results14,001,2026-04-14_11h52.24.061,mogelijke versie adaptive staircase builder,,2026.1.3,60.08636814558529,2026-04-14 11h52.24.347206 +0200,
4.5,ecc10pos,left,25,0,25,f,0,2.7859284000005573,None,0,0,0,0,25,0,25,0,1429.5709015000002,,,,,,,,,,,,,,,1429.5662022000006,1429.5709015000002,1429.5709015000002,1429.5709015000002,1430.4811115000002,1432.3649959000004,f,0,2.7859284000005573,None,direct,16,"[20, 18, 20, 19, 20, 17, 19, 17, 18, 15, 16, 15]",12,shifteddirectgaze.png,f,0,1,results14,001,2026-04-14_11h52.24.061,mogelijke versie adaptive staircase builder,,2026.1.3,60.08636814558529,2026-04-14 11h52.24.347206 +0200,
4.5,ecc10pos,left,26,0,26,f,0,4.729684999998426,None,0,0,0,0,26,0,26,0,1432.4512743999994,,,,,,,,,,,,,,,1432.4470339000009,1432.4512743999994,1432.4512743999994,1432.4512743999994,1433.3812100000005,1437.1818446999996,f,0,4.729684999998426,None,direct,17,"[20, 18, 20, 19, 20, 17, 19, 17, 18, 15, 16, 15]",12,shifteddirectgaze.png,f,0,1,results14,001,2026-04-14_11h52.24.061,mogelijke versie adaptive staircase builder,,2026.1.3,60.08636814558529,2026-04-14 11h52.24.347206 +0200,
4.5,ecc10pos,left,27,0,27,f,1,1.4833605000003445,None,0,0,0,0,27,0,27,0,1437.265040700001,,,,,,,,,,,,,,,1437.2612399,1437.265040700001,1437.265040700001,1437.265040700001,1438.1814304000009,1438.7645206000007,f,1,1.4833605000003445,None,right,18,"[20, 18, 20, 19, 20, 17, 19, 17, 18, 15, 16, 15, 18]",13,shiftedgaze_R_18.png,f,1,1,results14,001,2026-04-14_11h52.24.061,mogelijke versie adaptive staircase builder,,2026.1.3,60.08636814558529,2026-04-14 11h52.24.347206 +0200,
4.5,ecc10pos,left,28,0,28,j,1,6.260710900000049,None,0,0,0,0,28,0,28,0,1438.8478106000011,,,,,,,,,,,,,,,1438.843855600001,1438.8478106000011,1438.8478106000011,1438.8478106000011,1439.7645072000005,1445.1151122,j,1,6.260710900000049,None,direct,17,"[20, 18, 20, 19, 20, 17, 19, 17, 18, 15, 16, 15, 18]",13,shifteddirectgaze.png,j,1,1,results14,001,2026-04-14_11h52.24.061,mogelijke versie adaptive staircase builder,,2026.1.3,60.08636814558529,2026-04-14 11h52.24.347206 +0200,
4.5,ecc10pos,left,29,0,29,j,1,3.0141160000002856,None,0,0,0,0,29,0,29,0,1445.198376700001,,,,,,,,,,,,,,,1445.1942999000012,1445.198376700001,1445.198376700001,1445.198376700001,1446.1309205999996,1448.2145049,j,1,3.0141160000002856,None,direct,16,"[20, 18, 20, 19, 20, 17, 19, 17, 18, 15, 16, 15, 18]",13,shifteddirectgaze.png,j,1,1,results14,001,2026-04-14_11h52.24.061,mogelijke versie adaptive staircase builder,,2026.1.3,60.08636814558529,2026-04-14 11h52.24.347206 +0200,
4.5,ecc10pos,left,30,0,30,f,1,8.711399600000732,None,0,0,0,0,30,0,30,0,1448.3173417999997,,,,,,,,,,,,,,,1448.3075617000004,1448.3173417999997,1448.3173417999997,1448.3173417999997,1449.2146022999996,1457.0318670000006,f,1,8.711399600000732,None,left,15,"[20, 18, 20, 19, 20, 17, 19, 17, 18, 15, 16, 15, 18]",13,shiftedgaze_L_15.png,f,1,1,results14,001,2026-04-14_11h52.24.061,mogelijke versie adaptive staircase builder,,2026.1.3,60.08636814558529,2026-04-14 11h52.24.347206 +0200,
4.5,ecc10pos,left,31,0,31,j,0,3.0893464000000677,None,0,0,0,0,31,0,31,0,1457.1314601000004,,,,,,,,,,,,,,,1457.121888300001,1457.1314601000004,1457.1314601000004,1457.1314601000004,1458.0313661999999,1460.231889900001,j,0,3.0893464000000677,None,right,14,"[20, 18, 20, 19, 20, 17, 19, 17, 18, 15, 16, 15, 18, 14]",14,shiftedgaze_R_14.png,j,0,1,results14,001,2026-04-14_11h52.24.061,mogelijke versie adaptive staircase builder,,2026.1.3,60.08636814558529,2026-04-14 11h52.24.347206 +0200,
4.5,ecc10pos,left,32,0,32,j,0,3.482554000000164,None,0,0,0,0,32,0,32,0,1460.3298619999996,,,,,,,,,,,,,,,1460.3196882000002,1460.3298619999996,1460.3298619999996,1460.3298619999996,1461.2477552999999,1463.8145615000003,j,0,3.482554000000164,None,left,15,"[20, 18, 20, 19, 20, 17, 19, 17, 18, 15, 16, 15, 18, 14]",14,shiftedgaze_L_15.png,j,0,1,results14,001,2026-04-14_11h52.24.061,mogelijke versie adaptive staircase builder,,2026.1.3,60.08636814558529,2026-04-14 11h52.24.347206 +0200,
4.5,ecc10pos,left,33,0,33,f,0,1.4865893000005599,None,0,0,0,0,33,0,33,0,1463.9098789999998,,,,,,,,,,,,,,,1463.8991524000003,1463.9098789999998,1463.9098789999998,1463.9098789999998,1464.8144469000008,1465.398245200001,f,0,1.4865893000005599,None,direct,16,"[20, 18, 20, 19, 20, 17, 19, 17, 18, 15, 16, 15, 18, 14]",14,shifteddirectgaze.png,f,0,1,results14,001,2026-04-14_11h52.24.061,mogelijke versie adaptive staircase builder,,2026.1.3,60.08636814558529,2026-04-14 11h52.24.347206 +0200,
4.5,ecc10pos,left,34,0,34,f,1,2.894407100000535,None,0,0,0,0,34,0,34,0,1465.5103616000006,,,,,,,,,,,,,,,1465.5002360999997,1465.5103616000006,1465.5103616000006,1465.5103616000006,1466.3980585,1468.4153945999997,f,1,2.894407100000535,None,left,17,"[20, 18, 20, 19, 20, 17, 19, 17, 18, 15, 16, 15, 18, 14, 17]",15,shiftedgaze_L_17.png,f,1,1,results14,001,2026-04-14_11h52.24.061,mogelijke versie adaptive staircase builder,,2026.1.3,60.08636814558529,2026-04-14 11h52.24.347206 +0200,
4.5,ecc10pos,left,35,0,35,j,1,1.4157027000001108,None,0,0,0,0,35,0,35,0,1468.5090518000006,,,,,,,,,,,,,,,1468.499180400001,1468.5090518000006,1468.5090518000006,1468.5090518000006,1469.4310928999994,1469.9318544999996,j,1,1.4157027000001108,None,direct,16,"[20, 18, 20, 19, 20, 17, 19, 17, 18, 15, 16, 15, 18, 14, 17]",15,shifteddirectgaze.png,j,1,1,results14,001,2026-04-14_11h52.24.061,mogelijke versie adaptive staircase builder,,2026.1.3,60.08636814558529,2026-04-14 11h52.24.347206 +0200,
4.5,ecc10pos,left,36,0,36,f,0,1.9470901999993657,None,0,0,0,0,36,0,36,0,1470.0172890000003,,,,,,,,,,,,,,,1470.0131692999994,1470.0172890000003,1470.0172890000003,1470.0172890000003,1470.9316466999999,1471.9648637,f,0,1.9470901999993657,None,direct,15,"[20, 18, 20, 19, 20, 17, 19, 17, 18, 15, 16, 15, 18, 14, 17, 15]",16,shifteddirectgaze.png,f,0,1,results14,001,2026-04-14_11h52.24.061,mogelijke versie adaptive staircase builder,,2026.1.3,60.08636814558529,2026-04-14 11h52.24.347206 +0200,
4.5,ecc10pos,left,37,0,37,j,1,3.317192200000136,None,0,0,0,0,37,0,37,0,1472.0634347000005,,,,,,,,,,,,,,,1472.0591855000011,1472.0634347000005,1472.0634347000005,1472.0634347000005,1472.9644882000002,1475.3818098000002,j,1,3.317192200000136,None,direct,16,"[20, 18, 20, 19, 20, 17, 19, 17, 18, 15, 16, 15, 18, 14, 17, 15, 16]",17,shifteddirectgaze.png,j,1,1,results14,001,2026-04-14_11h52.24.061,mogelijke versie adaptive staircase builder,,2026.1.3,60.08636814558529,2026-04-14 11h52.24.347206 +0200,
4.5,ecc10pos,left,38,0,38,j,0,3.8257799000002706,None,0,0,0,0,38,0,38,0,1475.4666506000003,,,,,,,,,,,,,,,1475.4628868999998,1475.4666506000003,1475.4666506000003,1475.4666506000003,1476.397734700001,1479.2979107,j,0,3.8257799000002706,None,right,15,"[20, 18, 20, 19, 20, 17, 19, 17, 18, 15, 16, 15, 18, 14, 17, 15, 16, 15]",18,shiftedgaze_R_15.png,j,0,1,results14,001,2026-04-14_11h52.24.061,mogelijke versie adaptive staircase builder,,2026.1.3,60.08636814558529,2026-04-14 11h52.24.347206 +0200,
4.5,ecc10pos,left,39,0,39,j,1,2.999509199999011,None,0,0,0,0,39,0,39,0,1479.3810929,,,,,,,,,,,,,,,1479.3770843000011,1479.3810929,1479.3810929,1479.3810929,1480.2977844999996,1482.3812200000002,j,1,2.999509199999011,None,direct,16,"[20, 18, 20, 19, 20, 17, 19, 17, 18, 15, 16, 15, 18, 14, 17, 15, 16, 15, 16]",19,shifteddirectgaze.png,j,1,1,results14,001,2026-04-14_11h52.24.061,mogelijke versie adaptive staircase builder,,2026.1.3,60.08636814558529,2026-04-14 11h52.24.347206 +0200,
4.5,ecc10pos,left,40,0,40,j,1,4.076317200000631,None,0,0,0,0,40,0,40,0,1482.4644626,,,,,,,,,,,,,,,1482.4604374,1482.4644626,1482.4644626,1482.4644626,1483.381096,1486.5483513999998,j,1,4.076317200000631,None,direct,15,"[20, 18, 20, 19, 20, 17, 19, 17, 18, 15, 16, 15, 18, 14, 17, 15, 16, 15, 16]",19,shifteddirectgaze.png,j,1,1,results14,001,2026-04-14_11h52.24.061,mogelijke versie adaptive staircase builder,,2026.1.3,60.08636814558529,2026-04-14 11h52.24.347206 +0200,
4.5,ecc10pos,left,41,0,41,f,1,2.076462499999252,None,0,0,0,0,41,0,41,0,1486.6318641999997,,,,,,,,,,,,,,,1486.6277873999998,1486.6318641999997,1486.6318641999997,1486.6318641999997,1487.5477167,1488.714702100001,f,1,2.076462499999252,None,right,14,"[20, 18, 20, 19, 20, 17, 19, 17, 18, 15, 16, 15, 18, 14, 17, 15, 16, 15, 16]",19,shiftedgaze_R_14.png,f,1,1,results14,001,2026-04-14_11h52.24.061,mogelijke versie adaptive staircase builder,,2026.1.3,60.08636814558529,2026-04-14 11h52.24.347206 +0200,
4.5,ecc10pos,left,42,0,42,j,0,3.4525236999998015,None,0,0,0,0,42,0,42,0,1488.8080450000007,,,,,,,,,,,,,,,1488.8040585999997,1488.8080450000007,1488.8080450000007,1488.8080450000007,1489.7145463999996,1492.2650072999995,j,0,3.4525236999998015,None,left,13,"[20, 18, 20, 19, 20, 17, 19, 17, 18, 15, 16, 15, 18, 14, 17, 15, 16, 15, 16, 13]",20,shiftedgaze_L_13.png,j,0,1,results14,001,2026-04-14_11h52.24.061,mogelijke versie adaptive staircase builder,,2026.1.3,60.08636814558529,2026-04-14 11h52.24.347206 +0200,
4.5,ecc10pos,left,43,0,43,j,1,1.5195278999999573,None,0,0,0,0,43,0,43,0,1492.3488714000005,,,,,,,,,,,,,,,1492.3448027000004,1492.3488714000005,1492.3488714000005,1492.3488714000005,1493.264914800001,1493.8812767999998,j,1,1.5195278999999573,None,direct,14,"[20, 18, 20, 19, 20, 17, 19, 17, 18, 15, 16, 15, 18, 14, 17, 15, 16, 15, 16, 13, 14]",21,shifteddirectgaze.png,j,1,1,results14,001,2026-04-14_11h52.24.061,mogelijke versie adaptive staircase builder,,2026.1.3,60.08636814558529,2026-04-14 11h52.24.347206 +0200,
4.5,ecc10pos,left,44,0,44,j,1,9.879231100001562,None,0,0,0,0,44,0,44,0,1493.9650849,,,,,,,,,,,,,,,1493.9610604,1493.9650849,1493.9650849,1493.9650849,1494.8810848000003,1503.8480014999996,j,1,9.879231100001562,None,direct,13,"[20, 18, 20, 19, 20, 17, 19, 17, 18, 15, 16, 15, 18, 14, 17, 15, 16, 15, 16, 13, 14]",21,shifteddirectgaze.png,j,1,1,results14,001,2026-04-14_11h52.24.061,mogelijke versie adaptive staircase builder,,2026.1.3,60.08636814558529,2026-04-14 11h52.24.347206 +0200,
4.5,ecc10pos,left,45,0,45,f,1,5.768898100001024,None,0,0,0,0,45,0,45,0,1503.939522400001,,,,,,,,,,,,,,,1503.9354813,1503.939522400001,1503.939522400001,1503.939522400001,1504.8477520999995,1509.7146457000008,f,1,5.768898100001024,None,right,12,"[20, 18, 20, 19, 20, 17, 19, 17, 18, 15, 16, 15, 18, 14, 17, 15, 16, 15, 16, 13, 14]",21,shiftedgaze_R_12.png,f,1,1,results14,001,2026-04-14_11h52.24.061,mogelijke versie adaptive staircase builder,,2026.1.3,60.08636814558529,2026-04-14 11h52.24.347206 +0200,
4.5,ecc10pos,left,46,0,46,f,1,2.958328699998674,None,0,0,0,0,46,0,46,0,1509.8060372999998,,,,,,,,,,,,,,,1509.80195,1509.8060372999998,1509.8060372999998,1509.8060372999998,1510.7142739,1512.7646085999995,f,1,2.958328699998674,None,right,11,"[20, 18, 20, 19, 20, 17, 19, 17, 18, 15, 16, 15, 18, 14, 17, 15, 16, 15, 16, 13, 14]",21,shiftedgaze_R_11.png,f,1,1,results14,001,2026-04-14_11h52.24.061,mogelijke versie adaptive staircase builder,,2026.1.3,60.08636814558529,2026-04-14 11h52.24.347206 +0200,
4.5,ecc10pos,left,47,0,47,f,0,5.148109200001272,None,0,0,0,0,47,0,47,0,1512.8487976999995,,,,,,,,,,,,,,,1512.8448545,1512.8487976999995,1512.8487976999995,1512.8487976999995,1513.7643146,1517.9986688,f,0,5.148109200001272,None,direct,10,"[20, 18, 20, 19, 20, 17, 19, 17, 18, 15, 16, 15, 18, 14, 17, 15, 16, 15, 16, 13, 14, 10]",22,shifteddirectgaze.png,f,0,1,results14,001,2026-04-14_11h52.24.061,mogelijke versie adaptive staircase builder,,2026.1.3,60.08636814558529,2026-04-14 11h52.24.347206 +0200,
4.5,ecc10pos,left,48,0,48,j,0,7.591467199999897,None,0,0,0,0,48,0,48,0,1518.1009289000003,,,,,,,,,,,,,,,1518.0910957000006,1518.1009289000003,1518.1009289000003,1518.1009289000003,1519.0148841,1525.6979751999997,j,0,7.591467199999897,None,left,11,"[20, 18, 20, 19, 20, 17, 19, 17, 18, 15, 16, 15, 18, 14, 17, 15, 16, 15, 16, 13, 14, 10]",22,shiftedgaze_L_11.png,j,0,1,results14,001,2026-04-14_11h52.24.061,mogelijke versie adaptive staircase builder,,2026.1.3,60.08636814558529,2026-04-14 11h52.24.347206 +0200,
4.5,ecc10pos,left,49,0,49,f,0,6.185179000000062,None,0,0,0,0,49,0,49,0,1525.7957882,,,,,,,,,,,,,,,1525.7861906000007,1525.7957882,1525.7957882,1525.7957882,1526.6979137000008,1531.9817782,f,0,6.185179000000062,None,direct,12,"[20, 18, 20, 19, 20, 17, 19, 17, 18, 15, 16, 15, 18, 14, 17, 15, 16, 15, 16, 13, 14, 10]",22,shifteddirectgaze.png,f,0,1,results14,001,2026-04-14_11h52.24.061,mogelijke versie adaptive staircase builder,,2026.1.3,60.08636814558529,2026-04-14 11h52.24.347206 +0200,
4.5,ecc10pos,left,50,0,50,f,1,4.972737699999925,None,0,0,0,0,50,0,50,0,1532.0721335000007,,,,,,,,,,,,,,,1532.0682965999995,1532.0721335000007,1532.0721335000007,1532.0721335000007,1532.9814405000006,1537.0484943000001,f,1,4.972737699999925,None,right,13,"[20, 18, 20, 19, 20, 17, 19, 17, 18, 15, 16, 15, 18, 14, 17, 15, 16, 15, 16, 13, 14, 10, 13]",23,shiftedgaze_R_13.png,f,1,1,results14,001,2026-04-14_11h52.24.061,mogelijke versie adaptive staircase builder,,2026.1.3,60.08636814558529,2026-04-14 11h52.24.347206 +0200,
4.5,ecc10pos,left,51,0,51,j,1,5.513816299999235,None,0,0,0,0,51,0,51,0,1537.130651800001,,,,,,,,,,,,,,,1537.1264789999996,1537.130651800001,1537.130651800001,1537.130651800001,1538.048233300001,1542.6477815999997,j,1,5.513816299999235,None,direct,12,"[20, 18, 20, 19, 20, 17, 19, 17, 18, 15, 16, 15, 18, 14, 17, 15, 16, 15, 16, 13, 14, 10, 13]",23,shifteddirectgaze.png,j,1,1,results14,001,2026-04-14_11h52.24.061,mogelijke versie adaptive staircase builder,,2026.1.3,60.08636814558529,2026-04-14 11h52.24.347206 +0200,
4.5,ecc10pos,left,52,0,52,f,1,5.435792899999797,None,0,0,0,0,52,0,52,0,1542.737035000001,,,,,,,,,,,,,,,1542.7330673999995,1542.737035000001,1542.737035000001,1542.737035000001,1543.6475947999998,1548.1812851000004,f,1,5.435792899999797,None,right,11,"[20, 18, 20, 19, 20, 17, 19, 17, 18, 15, 16, 15, 18, 14, 17, 15, 16, 15, 16, 13, 14, 10, 13]",23,shiftedgaze_R_11.png,f,1,1,results14,001,2026-04-14_11h52.24.061,mogelijke versie adaptive staircase builder,,2026.1.3,60.08636814558529,2026-04-14 11h52.24.347206 +0200,
4.5,ecc10pos,left,53,0,53,j,1,3.682319699999425,None,0,0,0,0,53,0,53,0,1548.2741434999998,,,,,,,,,,,,,,,1548.2701798999997,1548.2741434999998,1548.2741434999998,1548.2741434999998,1549.181008800001,1551.9645351999998,j,1,3.682319699999425,None,direct,10,"[20, 18, 20, 19, 20, 17, 19, 17, 18, 15, 16, 15, 18, 14, 17, 15, 16, 15, 16, 13, 14, 10, 13]",23,shifteddirectgaze.png,j,1,1,results14,001,2026-04-14_11h52.24.061,mogelijke versie adaptive staircase builder,,2026.1.3,60.08636814558529,2026-04-14 11h52.24.347206 +0200,
4.5,ecc10pos,left,54,0,54,f,0,2.661075800000617,None,0,0,0,0,54,0,54,0,1552.0553463999995,,,,,,,,,,,,,,,1552.0513318000003,1552.0553463999995,1552.0553463999995,1552.0553463999995,1552.9642488,1554.7311201000002,f,0,2.661075800000617,None,direct,9,"[20, 18, 20, 19, 20, 17, 19, 17, 18, 15, 16, 15, 18, 14, 17, 15, 16, 15, 16, 13, 14, 10, 13, 9]",24,shifteddirectgaze.png,f,0,1,results14,001,2026-04-14_11h52.24.061,mogelijke versie adaptive staircase builder,,2026.1.3,60.08636814558529,2026-04-14 11h52.24.347206 +0200,
4.5,ecc10pos,left,55,0,55,j,1,3.838872399999673,None,0,0,0,0,55,0,55,0,1554.813634000001,,,,,,,,,,,,,,,1554.8095203000003,1554.813634000001,1554.813634000001,1554.813634000001,1555.7309470999999,1558.6647899000009,j,1,3.838872399999673,None,direct,10,"[20, 18, 20, 19, 20, 17, 19, 17, 18, 15, 16, 15, 18, 14, 17, 15, 16, 15, 16, 13, 14, 10, 13, 9, 10]",25,shifteddirectgaze.png,j,1,1,results14,001,2026-04-14_11h52.24.061,mogelijke versie adaptive staircase builder,,2026.1.3,60.08636814558529,2026-04-14 11h52.24.347206 +0200,
4.5,ecc10pos,left,56,0,56,j,1,2.272778099999414,None,0,0,0,0,56,0,56,0,1558.7481042999998,,,,,,,,,,,,,,,1558.7440361,1558.7481042999998,1558.7481042999998,1558.7481042999998,1559.6644083,1561.0317249000009,j,1,2.272778099999414,None,direct,9,"[20, 18, 20, 19, 20, 17, 19, 17, 18, 15, 16, 15, 18, 14, 17, 15, 16, 15, 16, 13, 14, 10, 13, 9, 10]",25,shifteddirectgaze.png,j,1,1,results14,001,2026-04-14_11h52.24.061,mogelijke versie adaptive staircase builder,,2026.1.3,60.08636814558529,2026-04-14 11h52.24.347206 +0200,
4.5,ecc10pos,left,57,0,57,j,0,3.802985300000728,None,0,0,0,0,57,0,57,0,1561.1215235000009,,,,,,,,,,,,,,,1561.1174220000003,1561.1215235000009,1561.1215235000009,1561.1215235000009,1562.0314454000008,1564.9310508999997,j,0,3.802985300000728,None,right,8,"[20, 18, 20, 19, 20, 17, 19, 17, 18, 15, 16, 15, 18, 14, 17, 15, 16, 15, 16, 13, 14, 10, 13, 9, 10, 8]",26,shiftedgaze_R_8.png,j,0,1,results14,001,2026-04-14_11h52.24.061,mogelijke versie adaptive staircase builder,,2026.1.3,60.08636814558529,2026-04-14 11h52.24.347206 +0200,
4.5,ecc10pos,left,58,0,58,f,1,3.1906967000013537,None,0,0,0,0,58,0,58,0,1565.0223152999997,,,,,,,,,,,,,,,1565.0185138000006,1565.0223152999997,1565.0223152999997,1565.0223152999997,1565.931432100001,1568.214761600001,f,1,3.1906967000013537,None,left,9,"[20, 18, 20, 19, 20, 17, 19, 17, 18, 15, 16, 15, 18, 14, 17, 15, 16, 15, 16, 13, 14, 10, 13, 9, 10, 8, 9]",27,shiftedgaze_L_9.png,f,1,1,results14,001,2026-04-14_11h52.24.061,mogelijke versie adaptive staircase builder,,2026.1.3,60.08636814558529,2026-04-14 11h52.24.347206 +0200,
4.5,ecc10pos,left,59,0,59,j,0,3.1765726000012364,None,0,0,0,0,59,0,59,0,1568.6598765000008,,,,,,,,,,,,,,,1568.6556914000003,1568.6598765000008,1568.6598765000008,1568.6598765000008,1569.2148490999998,1571.8478528000005,j,0,3.1765726000012364,None,left,8,"[20, 18, 20, 19, 20, 17, 19, 17, 18, 15, 16, 15, 18, 14, 17, 15, 16, 15, 16, 13, 14, 10, 13, 9, 10, 8, 9, 8]",28,shiftedgaze_L_8.png,j,0,1,results14,001,2026-04-14_11h52.24.061,mogelijke versie adaptive staircase builder,,2026.1.3,60.08636814558529,2026-04-14 11h52.24.347206 +0200,
4.5,ecc10pos,left,0,0,0,,,,,0,0,0,0,,,,,,,,,,,,,,,,,,,,,,,,,,,,,,,,,,,,,,results14,001,2026-04-14_11h52.24.061,mogelijke versie adaptive staircase builder,,2026.1.3,60.08636814558529,2026-04-14 11h52.24.347206 +0200,
12.5,ecc0,mid,0,0,0,j,0,10.514906500000507,None,0,1,1,1,0,0,0,0,1571.953870100001,,,,,,,,,,,,,1571.8662351000012,1571.8662804000005,1571.9500300000009,1571.953870100001,1572.8809509000012,1571.953870100001,1571.953870100001,1582.4818301999994,j,0,10.514906500000507,None,right,20,[],0,gaze_R_20.png,j,0,2,results14,001,2026-04-14_11h52.24.061,mogelijke versie adaptive staircase builder,,2026.1.3,60.08636814558529,2026-04-14 11h52.24.347206 +0200,
12.5,ecc0,mid,1,0,1,j,0,3.7914603000008356,None,0,1,1,1,1,0,1,0,1582.5729493000008,,,,,,,,,,,,,,,1582.5690560000012,1582.5729493000008,1583.4977198000006,1582.5729493000008,1582.5729493000008,1586.3646459000001,j,0,3.7914603000008356,None,left,20,[],0,gaze_L_20.png,j,0,2,results14,001,2026-04-14_11h52.24.061,mogelijke versie adaptive staircase builder,,2026.1.3,60.08636814558529,2026-04-14 11h52.24.347206 +0200,
12.5,ecc0,mid,2,0,2,j,0,15.029117199999746,None,0,1,1,1,2,0,2,0,1586.4473047000001,,,,,,,,,,,,,,,1586.4434147000002,1586.4473047000001,1587.3644816999995,1586.4473047000001,1586.4473047000001,1601.4812892,j,0,15.029117199999746,None,right,20,[],0,gaze_R_20.png,j,0,2,results14,001,2026-04-14_11h52.24.061,mogelijke versie adaptive staircase builder,,2026.1.3,60.08636814558529,2026-04-14 11h52.24.347206 +0200,
12.5,ecc0,mid,3,0,3,j,0,3.662638900001184,None,0,1,1,1,3,0,3,0,1601.5661396000005,,,,,,,,,,,,,,,1601.561643,1601.5661396000005,1602.481083400001,1601.5661396000005,1601.5661396000005,1605.2319259999995,j,0,3.662638900001184,None,right,20,[],0,gaze_R_20.png,j,0,2,results14,001,2026-04-14_11h52.24.061,mogelijke versie adaptive staircase builder,,2026.1.3,60.08636814558529,2026-04-14 11h52.24.347206 +0200,
12.5,ecc0,mid,4,0,4,f,0,1.9384802000004129,None,0,1,1,1,4,0,4,0,1605.3219309999995,,,,,,,,,,,,,,,1605.317928200001,1605.3219309999995,1606.2312069000009,1605.3219309999995,1605.3219309999995,1607.2646166000004,f,0,1.9384802000004129,None,direct,20,[],0,direct_gaze.png,f,0,2,results14,001,2026-04-14_11h52.24.061,mogelijke versie adaptive staircase builder,,2026.1.3,60.08636814558529,2026-04-14 11h52.24.347206 +0200,
12.5,ecc0,mid,5,0,5,f,1,2.672596099999282,None,0,1,1,1,5,0,5,0,1607.3478416999997,,,,,,,,,,,,,,,1607.3438985000003,1607.3478416999997,1608.264743300001,1607.3478416999997,1607.3478416999997,1610.0318701999995,f,1,2.672596099999282,None,left,20,[20],1,gaze_L_20.png,f,1,2,results14,001,2026-04-14_11h52.24.061,mogelijke versie adaptive staircase builder,,2026.1.3,60.08636814558529,2026-04-14 11h52.24.347206 +0200,
12.5,ecc0,mid,6,0,6,j,0,1.8742707000001246,None,0,1,1,1,6,0,6,0,1610.1301455000003,,,,,,,,,,,,,,,1610.1259283999998,1610.1301455000003,1611.0477777999995,1610.1301455000003,1610.1301455000003,1612.0151629000002,j,0,1.8742707000001246,None,left,19,"[20, 19]",2,gaze_L_19.png,j,0,2,results14,001,2026-04-14_11h52.24.061,mogelijke versie adaptive staircase builder,,2026.1.3,60.08636814558529,2026-04-14 11h52.24.347206 +0200,
12.5,ecc0,mid,7,0,7,j,0,1.8987548999994033,None,0,1,1,1,7,0,7,0,1612.0981550999995,,,,,,,,,,,,,,,1612.0942464000009,1612.0981550999995,1613.0312378000008,1612.0981550999995,1612.0981550999995,1613.9987222000009,j,0,1.8987548999994033,None,left,20,"[20, 19]",2,gaze_L_20.png,j,0,2,results14,001,2026-04-14_11h52.24.061,mogelijke versie adaptive staircase builder,,2026.1.3,60.08636814558529,2026-04-14 11h52.24.347206 +0200,
12.5,ecc0,mid,8,0,8,j,1,5.602655300001061,None,0,1,1,1,8,0,8,0,1614.0817680999999,,,,,,,,,,,,,,,1614.0777991999994,1614.0817680999999,1615.0143553999997,1614.0817680999999,1614.0817680999999,1619.6979297999997,j,1,5.602655300001061,None,direct,20,"[20, 19, 20]",3,direct_gaze.png,j,1,2,results14,001,2026-04-14_11h52.24.061,mogelijke versie adaptive staircase builder,,2026.1.3,60.08636814558529,2026-04-14 11h52.24.347206 +0200,
12.5,ecc0,mid,9,0,9,j,1,3.7031247000013536,None,0,1,1,1,9,0,9,0,1619.7814946000008,,,,,,,,,,,,,,,1619.7774722000004,1619.7814946000008,1620.697781400001,1619.7814946000008,1619.7814946000008,1623.4979690999999,j,1,3.7031247000013536,None,direct,19,"[20, 19, 20]",3,direct_gaze.png,j,1,2,results14,001,2026-04-14_11h52.24.061,mogelijke versie adaptive staircase builder,,2026.1.3,60.08636814558529,2026-04-14 11h52.24.347206 +0200,
12.5,ecc0,mid,10,0,10,j,1,5.357847200000833,None,0,1,1,1,10,0,10,0,1623.5825840999996,,,,,,,,,,,,,,,1623.5786493999994,1623.5825840999996,1624.4977585999995,1623.5825840999996,1623.5825840999996,1628.948249600001,j,1,5.357847200000833,None,direct,18,"[20, 19, 20]",3,direct_gaze.png,j,1,2,results14,001,2026-04-14_11h52.24.061,mogelijke versie adaptive staircase builder,,2026.1.3,60.08636814558529,2026-04-14 11h52.24.347206 +0200,
12.5,ecc0,mid,11,0,11,f,1,6.453340600000956,None,0,1,1,1,11,0,11,0,1629.0390681,,,,,,,,,,,,,,,1629.035076700001,1629.0390681,1629.9478473000008,1629.0390681,1629.0390681,1635.4978347000006,f,1,6.453340600000956,None,right,17,"[20, 19, 20]",3,gaze_R_17.png,f,1,2,results14,001,2026-04-14_11h52.24.061,mogelijke versie adaptive staircase builder,,2026.1.3,60.08636814558529,2026-04-14 11h52.24.347206 +0200,
12.5,ecc0,mid,12,0,12,f,1,4.592134500000611,None,0,1,1,1,12,0,12,0,1635.5888306999996,,,,,,,,,,,,,,,1635.5847595000005,1635.5888306999996,1636.4981294,1635.5888306999996,1635.5888306999996,1640.1817957000012,f,1,4.592134500000611,None,right,16,"[20, 19, 20]",3,gaze_R_16.png,f,1,2,results14,001,2026-04-14_11h52.24.061,mogelijke versie adaptive staircase builder,,2026.1.3,60.08636814558529,2026-04-14 11h52.24.347206 +0200,
12.5,ecc0,mid,13,0,13,f,1,9.390070899999046,None,0,1,1,1,13,0,13,0,1640.2704495000007,,,,,,,,,,,,,,,1640.2665267000002,1640.2704495000007,1641.1977827,1640.2704495000007,1640.2704495000007,1649.664674300001,f,1,9.390070899999046,None,right,15,"[20, 19, 20]",3,gaze_R_15.png,f,1,2,results14,001,2026-04-14_11h52.24.061,mogelijke versie adaptive staircase builder,,2026.1.3,60.08636814558529,2026-04-14 11h52.24.347206 +0200,
12.5,ecc0,mid,14,0,14,j,0,2.194463200001337,None,0,1,1,1,14,0,14,0,1649.7540419999996,,,,,,,,,,,,,,,1649.7498287000008,1649.7540419999996,1650.6643187,1649.7540419999996,1649.7540419999996,1651.9487079,j,0,2.194463200001337,None,left,14,"[20, 19, 20, 14]",4,gaze_L_14.png,j,0,2,results14,001,2026-04-14_11h52.24.061,mogelijke versie adaptive staircase builder,,2026.1.3,60.08636814558529,2026-04-14 11h52.24.347206 +0200,
12.5,ecc0,mid,15,0,15,f,1,4.813909099999364,None,0,1,1,1,15,0,15,0,1652.0385119000011,,,,,,,,,,,,,,,1652.0346715999995,1652.0385119000011,1652.9644501000012,1652.0385119000011,1652.0385119000011,1656.8646442,f,1,4.813909099999364,None,left,15,"[20, 19, 20, 14, 15]",5,gaze_L_15.png,f,1,2,results14,001,2026-04-14_11h52.24.061,mogelijke versie adaptive staircase builder,,2026.1.3,60.08636814558529,2026-04-14 11h52.24.347206 +0200,
12.5,ecc0,mid,16,0,16,j,0,2.0664120000001276,None,0,1,1,1,16,0,16,0,1656.9542322000007,,,,,,,,,,,,,,,1656.9504573000004,1656.9542322000007,1657.8643182000005,1656.9542322000007,1656.9542322000007,1659.0317795,j,0,2.0664120000001276,None,left,14,"[20, 19, 20, 14, 15, 14]",6,gaze_L_14.png,j,0,2,results14,001,2026-04-14_11h52.24.061,mogelijke versie adaptive staircase builder,,2026.1.3,60.08636814558529,2026-04-14 11h52.24.347206 +0200,
12.5,ecc0,mid,17,0,17,j,0,2.233606999998301,None,0,1,1,1,17,0,17,0,1659.1149214999996,,,,,,,,,,,,,,,1659.1109655999999,1659.1149214999996,1660.0315557000004,1659.1149214999996,1659.1149214999996,1661.3487358000011,j,0,2.233606999998301,None,left,15,"[20, 19, 20, 14, 15, 14]",6,gaze_L_15.png,j,0,2,results14,001,2026-04-14_11h52.24.061,mogelijke versie adaptive staircase builder,,2026.1.3,60.08636814558529,2026-04-14 11h52.24.347206 +0200,
12.5,ecc0,mid,18,0,18,j,0,6.276149600000281,None,0,1,1,1,18,0,18,0,1661.4323470999998,,,,,,,,,,,,,,,1661.4284763000005,1661.4323470999998,1662.3482285,1661.4323470999998,1661.4323470999998,1667.7145207000003,j,0,6.276149600000281,None,right,16,"[20, 19, 20, 14, 15, 14]",6,gaze_R_16.png,j,0,2,results14,001,2026-04-14_11h52.24.061,mogelijke versie adaptive staircase builder,,2026.1.3,60.08636814558529,2026-04-14 11h52.24.347206 +0200,
12.5,ecc0,mid,19,0,19,j,1,8.110017200000584,None,0,1,1,1,19,0,19,0,1667.7984672000011,,,,,,,,,,,,,,,1667.794510300001,1667.7984672000011,1668.7143227000006,1667.7984672000011,1667.7984672000011,1675.9144762999995,j,1,8.110017200000584,None,direct,17,"[20, 19, 20, 14, 15, 14, 17]",7,direct_gaze.png,j,1,2,results14,001,2026-04-14_11h52.24.061,mogelijke versie adaptive staircase builder,,2026.1.3,60.08636814558529,2026-04-14 11h52.24.347206 +0200,
12.5,ecc0,mid,20,0,20,j,0,3.614958199999819,None,0,1,1,1,20,0,20,0,1675.9980473999995,,,,,,,,,,,,,,,1675.9937660999994,1675.9980473999995,1676.9144408000002,1675.9980473999995,1675.9980473999995,1679.6148342999995,j,0,3.614958199999819,None,right,16,"[20, 19, 20, 14, 15, 14, 17, 16]",8,gaze_R_16.png,j,0,2,results14,001,2026-04-14_11h52.24.061,mogelijke versie adaptive staircase builder,,2026.1.3,60.08636814558529,2026-04-14 11h52.24.347206 +0200,
12.5,ecc0,mid,21,0,21,j,0,4.001661700000113,None,0,1,1,1,21,0,21,0,1679.6987015000004,,,,,,,,,,,,,,,1679.6946340000004,1679.6987015000004,1680.6147967000006,1679.6987015000004,1679.6987015000004,1683.7144068000007,j,0,4.001661700000113,None,right,17,"[20, 19, 20, 14, 15, 14, 17, 16]",8,gaze_R_17.png,j,0,2,results14,001,2026-04-14_11h52.24.061,mogelijke versie adaptive staircase builder,,2026.1.3,60.08636814558529,2026-04-14 11h52.24.347206 +0200,
12.5,ecc0,mid,22,0,22,j,0,2.2860638000001927,None,0,1,1,1,22,0,22,0,1683.8063807000008,,,,,,,,,,,,,,,1683.8024931999998,1683.8063807000008,1684.714825,1683.8063807000008,1683.8063807000008,1686.0978208000006,j,0,2.2860638000001927,None,left,18,"[20, 19, 20, 14, 15, 14, 17, 16]",8,gaze_L_18.png,j,0,2,results14,001,2026-04-14_11h52.24.061,mogelijke versie adaptive staircase builder,,2026.1.3,60.08636814558529,2026-04-14 11h52.24.347206 +0200,
12.5,ecc0,mid,23,0,23,f,1,1.9193981000007625,None,0,1,1,1,23,0,23,0,1686.1891196999995,,,,,,,,,,,,,,,1686.1849458000006,1686.1891196999995,1687.0981014,1686.1891196999995,1686.1891196999995,1688.1144704000008,f,1,1.9193981000007625,None,right,19,"[20, 19, 20, 14, 15, 14, 17, 16, 19]",9,gaze_R_19.png,f,1,2,results14,001,2026-04-14_11h52.24.061,mogelijke versie adaptive staircase builder,,2026.1.3,60.08636814558529,2026-04-14 11h52.24.347206 +0200,
12.5,ecc0,mid,24,0,24,f,1,5.8691311000002315,None,0,1,1,1,24,0,24,0,1688.2072725000007,,,,,,,,,,,,,,,1688.2032527000001,1688.2072725000007,1689.1140729999997,1688.2072725000007,1688.2072725000007,1694.0812075000003,f,1,5.8691311000002315,None,right,18,"[20, 19, 20, 14, 15, 14, 17, 16, 19]",9,gaze_R_18.png,f,1,2,results14,001,2026-04-14_11h52.24.061,mogelijke versie adaptive staircase builder,,2026.1.3,60.08636814558529,2026-04-14 11h52.24.347206 +0200,
12.5,ecc0,mid,25,0,25,j,1,9.824322599999505,None,0,1,1,1,25,0,25,0,1694.1640183000009,,,,,,,,,,,,,,,1694.1599742999997,1694.1640183000009,1695.0813069999995,1694.1640183000009,1694.1640183000009,1703.9979818000002,j,1,9.824322599999505,None,direct,17,"[20, 19, 20, 14, 15, 14, 17, 16, 19]",9,direct_gaze.png,j,1,2,results14,001,2026-04-14_11h52.24.061,mogelijke versie adaptive staircase builder,,2026.1.3,60.08636814558529,2026-04-14 11h52.24.347206 +0200,
12.5,ecc0,mid,26,0,26,j,1,3.9865678999995,None,0,1,1,1,26,0,26,0,1704.0817668999998,,,,,,,,,,,,,,,1704.0779888000006,1704.0817668999998,1704.9977547000008,1704.0817668999998,1704.0817668999998,1708.081275200001,j,1,3.9865678999995,None,direct,16,"[20, 19, 20, 14, 15, 14, 17, 16, 19]",9,direct_gaze.png,j,1,2,results14,001,2026-04-14_11h52.24.061,mogelijke versie adaptive staircase builder,,2026.1.3,60.08636814558529,2026-04-14 11h52.24.347206 +0200,
12.5,ecc0,mid,27,0,27,f,0,9.74383520000083,None,0,1,1,1,27,0,27,0,1708.164717300001,,,,,,,,,,,,,,,1708.1609192000005,1708.164717300001,1709.0811930999998,1708.164717300001,1708.164717300001,1717.9146950000004,f,0,9.74383520000083,None,direct,15,"[20, 19, 20, 14, 15, 14, 17, 16, 19, 15]",10,direct_gaze.png,f,0,2,results14,001,2026-04-14_11h52.24.061,mogelijke versie adaptive staircase builder,,2026.1.3,60.08636814558529,2026-04-14 11h52.24.347206 +0200,
12.5,ecc0,mid,28,0,28,j,0,6.078840199999831,None,0,1,1,1,28,0,28,0,1718.0056192000002,,,,,,,,,,,,,,,1718.0017448999997,1718.0056192000002,1718.9145147999998,1718.0056192000002,1718.0056192000002,1724.0978996000003,j,0,6.078840199999831,None,left,16,"[20, 19, 20, 14, 15, 14, 17, 16, 19, 15]",10,gaze_L_16.png,j,0,2,results14,001,2026-04-14_11h52.24.061,mogelijke versie adaptive staircase builder,,2026.1.3,60.08636814558529,2026-04-14 11h52.24.347206 +0200,
12.5,ecc0,mid,29,0,29,j,1,2.7037446000013006,None,0,1,1,1,29,0,29,0,1724.1808725,,,,,,,,,,,,,,,1724.176950600001,1724.1808725,1725.0977637999995,1724.1808725,1724.1808725,1726.8982676999995,j,1,2.7037446000013006,None,direct,17,"[20, 19, 20, 14, 15, 14, 17, 16, 19, 15, 17]",11,direct_gaze.png,j,1,2,results14,001,2026-04-14_11h52.24.061,mogelijke versie adaptive staircase builder,,2026.1.3,60.08636814558529,2026-04-14 11h52.24.347206 +0200,
12.5,ecc0,mid,30,0,30,j,0,3.054931900000156,None,0,1,1,1,30,0,30,0,1726.981877700001,,,,,,,,,,,,,,,1726.9775328000005,1726.981877700001,1727.897692900001,1726.981877700001,1726.981877700001,1730.0485952000008,j,0,3.054931900000156,None,left,16,"[20, 19, 20, 14, 15, 14, 17, 16, 19, 15, 17, 16]",12,gaze_L_16.png,j,0,2,results14,001,2026-04-14_11h52.24.061,mogelijke versie adaptive staircase builder,,2026.1.3,60.08636814558529,2026-04-14 11h52.24.347206 +0200,
12.5,ecc0,mid,31,0,31,j,0,5.6008693000003404,None,0,1,1,1,31,0,31,0,1730.1315392000006,,,,,,,,,,,,,,,1730.1276767999998,1730.1315392000006,1731.048318600001,1730.1315392000006,1730.1315392000006,1735.7480158999997,j,0,5.6008693000003404,None,right,17,"[20, 19, 20, 14, 15, 14, 17, 16, 19, 15, 17, 16]",12,gaze_R_17.png,j,0,2,results14,001,2026-04-14_11h52.24.061,mogelijke versie adaptive staircase builder,,2026.1.3,60.08636814558529,2026-04-14 11h52.24.347206 +0200,
12.5,ecc0,mid,32,0,32,j,1,7.332273800000621,None,0,1,1,1,32,0,32,0,1735.8321860000005,,,,,,,,,,,,,,,1735.8283277,1735.8321860000005,1736.7478036000002,1735.8321860000005,1735.8321860000005,1743.1647225999995,j,1,7.332273800000621,None,direct,18,"[20, 19, 20, 14, 15, 14, 17, 16, 19, 15, 17, 16, 18]",13,direct_gaze.png,j,1,2,results14,001,2026-04-14_11h52.24.061,mogelijke versie adaptive staircase builder,,2026.1.3,60.08636814558529,2026-04-14 11h52.24.347206 +0200,
12.5,ecc0,mid,33,0,33,f,1,10.71624460000021,None,0,1,1,1,33,0,33,0,1743.2481039000004,,,,,,,,,,,,,,,1743.2441688999997,1743.2481039000004,1744.1649647000004,1743.2481039000004,1743.2481039000004,1753.9812518000008,f,1,10.71624460000021,None,right,17,"[20, 19, 20, 14, 15, 14, 17, 16, 19, 15, 17, 16, 18]",13,gaze_R_17.png,f,1,2,results14,001,2026-04-14_11h52.24.061,mogelijke versie adaptive staircase builder,,2026.1.3,60.08636814558529,2026-04-14 11h52.24.347206 +0200,
12.5,ecc0,mid,34,0,34,j,1,4.9417788999999175,None,0,1,1,1,34,0,34,0,1754.0707981999994,,,,,,,,,,,,,,,1754.0670244000003,1754.0707981999994,1754.9811865000001,1754.0707981999994,1754.0707981999994,1759.0145120000007,j,1,4.9417788999999175,None,direct,16,"[20, 19, 20, 14, 15, 14, 17, 16, 19, 15, 17, 16, 18]",13,direct_gaze.png,j,1,2,results14,001,2026-04-14_11h52.24.061,mogelijke versie adaptive staircase builder,,2026.1.3,60.08636814558529,2026-04-14 11h52.24.347206 +0200,
12.5,ecc0,mid,35,0,35,j,0,9.059121400001459,None,0,1,1,1,35,0,35,0,1759.0977731000012,,,,,,,,,,,,,,,1759.0938560000004,1759.0977731000012,1760.0142655999998,1759.0977731000012,1759.0977731000012,1768.1649910000006,j,0,9.059121400001459,None,left,15,"[20, 19, 20, 14, 15, 14, 17, 16, 19, 15, 17, 16, 18, 15]",14,gaze_L_15.png,j,0,2,results14,001,2026-04-14_11h52.24.061,mogelijke versie adaptive staircase builder,,2026.1.3,60.08636814558529,2026-04-14 11h52.24.347206 +0200,
12.5,ecc0,mid,36,0,36,f,1,5.842989200000375,None,0,1,1,1,36,0,36,0,1768.2498501,,,,,,,,,,,,,,,1768.246100200001,1768.2498501,1769.1647975000005,1768.2498501,1768.2498501,1774.098520300001,f,1,5.842989200000375,None,left,16,"[20, 19, 20, 14, 15, 14, 17, 16, 19, 15, 17, 16, 18, 15, 16]",15,gaze_L_16.png,f,1,2,results14,001,2026-04-14_11h52.24.061,mogelijke versie adaptive staircase builder,,2026.1.3,60.08636814558529,2026-04-14 11h52.24.347206 +0200,
12.5,ecc0,mid,37,0,37,j,0,5.7586864000004425,None,0,1,1,1,37,0,37,0,1774.1818035000006,,,,,,,,,,,,,,,1774.1778471000007,1774.1818035000006,1775.0981321999998,1774.1818035000006,1774.1818035000006,1779.947905,j,0,5.7586864000004425,None,right,15,"[20, 19, 20, 14, 15, 14, 17, 16, 19, 15, 17, 16, 18, 15, 16, 15]",16,gaze_R_15.png,j,0,2,results14,001,2026-04-14_11h52.24.061,mogelijke versie adaptive staircase builder,,2026.1.3,60.08636814558529,2026-04-14 11h52.24.347206 +0200,
12.5,ecc0,mid,38,0,38,j,1,6.131813200001488,None,0,1,1,1,38,0,38,0,1780.0326366,,,,,,,,,,,,,,,1780.0285267000008,1780.0326366,1780.9476333000011,1780.0326366,1780.0326366,1786.1816912000004,j,1,6.131813200001488,None,direct,16,"[20, 19, 20, 14, 15, 14, 17, 16, 19, 15, 17, 16, 18, 15, 16, 15, 16]",17,direct_gaze.png,j,1,2,results14,001,2026-04-14_11h52.24.061,mogelijke versie adaptive staircase builder,,2026.1.3,60.08636814558529,2026-04-14 11h52.24.347206 +0200,
12.5,ecc0,mid,39,0,39,j,0,2.4275993999999628,None,0,1,1,1,39,0,39,0,1786.264844100001,,,,,,,,,,,,,,,1786.2611315000004,1786.264844100001,1787.1977305999999,1786.264844100001,1786.264844100001,1788.6980040999997,j,0,2.4275993999999628,None,left,15,"[20, 19, 20, 14, 15, 14, 17, 16, 19, 15, 17, 16, 18, 15, 16, 15, 16, 15]",18,gaze_L_15.png,j,0,2,results14,001,2026-04-14_11h52.24.061,mogelijke versie adaptive staircase builder,,2026.1.3,60.08636814558529,2026-04-14 11h52.24.347206 +0200,
12.5,ecc0,mid,40,0,40,j,0,5.445960099999866,None,0,1,1,1,40,0,40,0,1788.7837119999995,,,,,,,,,,,,,,,1788.7797445000006,1788.7837119999995,1789.698151900001,1788.7837119999995,1788.7837119999995,1794.2315074000007,j,0,5.445960099999866,None,left,16,"[20, 19, 20, 14, 15, 14, 17, 16, 19, 15, 17, 16, 18, 15, 16, 15, 16, 15]",18,gaze_L_16.png,j,0,2,results14,001,2026-04-14_11h52.24.061,mogelijke versie adaptive staircase builder,,2026.1.3,60.08636814558529,2026-04-14 11h52.24.347206 +0200,
12.5,ecc0,mid,41,0,41,j,1,3.370072400000936,None,0,1,1,1,41,0,41,0,1794.3144383999997,,,,,,,,,,,,,,,1794.3104864999996,1794.3144383999997,1795.231261,1794.3144383999997,1794.3144383999997,1797.6977737000007,j,1,3.370072400000936,None,direct,17,"[20, 19, 20, 14, 15, 14, 17, 16, 19, 15, 17, 16, 18, 15, 16, 15, 16, 15, 17]",19,direct_gaze.png,j,1,2,results14,001,2026-04-14_11h52.24.061,mogelijke versie adaptive staircase builder,,2026.1.3,60.08636814558529,2026-04-14 11h52.24.347206 +0200,
12.5,ecc0,mid,42,0,42,f,1,3.2616613999998663,None,0,1,1,1,42,0,42,0,1797.7832325000008,,,,,,,,,,,,,,,1797.7791031999996,1797.7832325000008,1798.6981289999994,1797.7832325000008,1797.7832325000008,1801.0484066,f,1,3.2616613999998663,None,left,16,"[20, 19, 20, 14, 15, 14, 17, 16, 19, 15, 17, 16, 18, 15, 16, 15, 16, 15, 17]",19,gaze_L_16.png,f,1,2,results14,001,2026-04-14_11h52.24.061,mogelijke versie adaptive staircase builder,,2026.1.3,60.08636814558529,2026-04-14 11h52.24.347206 +0200,
12.5,ecc0,mid,43,0,43,j,0,5.344377999999779,None,0,1,1,1,43,0,43,0,1801.132184000001,,,,,,,,,,,,,,,1801.1279431000012,1801.132184000001,1802.0477357000009,1801.132184000001,1801.132184000001,1806.4816689000008,j,0,5.344377999999779,None,right,15,"[20, 19, 20, 14, 15, 14, 17, 16, 19, 15, 17, 16, 18, 15, 16, 15, 16, 15, 17, 15]",20,gaze_R_15.png,j,0,2,results14,001,2026-04-14_11h52.24.061,mogelijke versie adaptive staircase builder,,2026.1.3,60.08636814558529,2026-04-14 11h52.24.347206 +0200,
12.5,ecc0,mid,44,0,44,j,0,3.2858400999994046,None,0,1,1,1,44,0,44,0,1806.5666456999998,,,,,,,,,,,,,,,1806.5627295000004,1806.5666456999998,1807.4814890000007,1806.5666456999998,1806.5666456999998,1809.8644090000007,j,0,3.2858400999994046,None,right,16,"[20, 19, 20, 14, 15, 14, 17, 16, 19, 15, 17, 16, 18, 15, 16, 15, 16, 15, 17, 15]",20,gaze_R_16.png,j,0,2,results14,001,2026-04-14_11h52.24.061,mogelijke versie adaptive staircase builder,,2026.1.3,60.08636814558529,2026-04-14 11h52.24.347206 +0200,
12.5,ecc0,mid,45,0,45,j,1,4.830699399999503,None,0,1,1,1,45,0,45,0,1809.9499588000008,,,,,,,,,,,,,,,1809.9461144000006,1809.9499588000008,1810.8643416999994,1809.9499588000008,1809.9499588000008,1814.7815263000002,j,1,4.830699399999503,None,direct,17,"[20, 19, 20, 14, 15, 14, 17, 16, 19, 15, 17, 16, 18, 15, 16, 15, 16, 15, 17, 15, 17]",21,direct_gaze.png,j,1,2,results14,001,2026-04-14_11h52.24.061,mogelijke versie adaptive staircase builder,,2026.1.3,60.08636814558529,2026-04-14 11h52.24.347206 +0200,
12.5,ecc0,mid,46,0,46,j,1,5.5067111999997,None,0,1,1,1,46,0,46,0,1814.8657169000007,,,,,,,,,,,,,,,1814.8618533,1814.8657169000007,1815.7816021999997,1814.8657169000007,1814.8657169000007,1820.3813070000006,j,1,5.5067111999997,None,direct,16,"[20, 19, 20, 14, 15, 14, 17, 16, 19, 15, 17, 16, 18, 15, 16, 15, 16, 15, 17, 15, 17]",21,direct_gaze.png,j,1,2,results14,001,2026-04-14_11h52.24.061,mogelijke versie adaptive staircase builder,,2026.1.3,60.08636814558529,2026-04-14 11h52.24.347206 +0200,
12.5,ecc0,mid,47,0,47,j,0,12.22677719999956,None,0,1,1,1,47,0,47,0,1820.4655563000006,,,,,,,,,,,,,,,1820.461439900001,1820.4655563000006,1821.3813192000007,1820.4655563000006,1820.4655563000006,1832.6979949999995,j,0,12.22677719999956,None,left,15,"[20, 19, 20, 14, 15, 14, 17, 16, 19, 15, 17, 16, 18, 15, 16, 15, 16, 15, 17, 15, 17, 15]",22,gaze_L_15.png,j,0,2,results14,001,2026-04-14_11h52.24.061,mogelijke versie adaptive staircase builder,,2026.1.3,60.08636814558529,2026-04-14 11h52.24.347206 +0200,
12.5,ecc0,mid,48,0,48,f,1,3.027774700000009,None,0,1,1,1,48,0,48,0,1832.7845915999997,,,,,,,,,,,,,,,1832.7804943,1832.7845915999997,1833.6978007999996,1832.7845915999997,1832.7845915999997,1835.8145101,f,1,3.027774700000009,None,left,16,"[20, 19, 20, 14, 15, 14, 17, 16, 19, 15, 17, 16, 18, 15, 16, 15, 16, 15, 17, 15, 17, 15, 16]",23,gaze_L_16.png,f,1,2,results14,001,2026-04-14_11h52.24.061,mogelijke versie adaptive staircase builder,,2026.1.3,60.08636814558529,2026-04-14 11h52.24.347206 +0200,
12.5,ecc0,mid,49,0,49,j,1,2.1290986000003613,None,0,1,1,1,49,0,49,0,1835.8993072000003,,,,,,,,,,,,,,,1835.8950706000005,1835.8993072000003,1836.8144703999997,1835.8993072000003,1835.8993072000003,1838.0313013999994,j,1,2.1290986000003613,None,direct,15,"[20, 19, 20, 14, 15, 14, 17, 16, 19, 15, 17, 16, 18, 15, 16, 15, 16, 15, 17, 15, 17, 15, 16]",23,direct_gaze.png,j,1,2,results14,001,2026-04-14_11h52.24.061,mogelijke versie adaptive staircase builder,,2026.1.3,60.08636814558529,2026-04-14 11h52.24.347206 +0200,
12.5,ecc0,mid,50,0,50,j,0,2.5678234999995766,None,0,1,1,1,50,0,50,0,1838.1165984000008,,,,,,,,,,,,,,,1838.1125600000005,1838.1165984000008,1839.0311064999996,1838.1165984000008,1838.1165984000008,1840.6979257000012,j,0,2.5678234999995766,None,left,14,"[20, 19, 20, 14, 15, 14, 17, 16, 19, 15, 17, 16, 18, 15, 16, 15, 16, 15, 17, 15, 17, 15, 16, 14]",24,gaze_L_14.png,j,0,2,results14,001,2026-04-14_11h52.24.061,mogelijke versie adaptive staircase builder,,2026.1.3,60.08636814558529,2026-04-14 11h52.24.347206 +0200,
12.5,ecc0,mid,51,0,51,j,0,4.309224700000414,None,0,1,1,1,51,0,51,0,1840.7832064000004,,,,,,,,,,,,,,,1840.7791128,1840.7832064000004,1841.697726200001,1840.7832064000004,1840.7832064000004,1845.0978084999997,j,0,4.309224700000414,None,left,15,"[20, 19, 20, 14, 15, 14, 17, 16, 19, 15, 17, 16, 18, 15, 16, 15, 16, 15, 17, 15, 17, 15, 16, 14]",24,gaze_L_15.png,j,0,2,results14,001,2026-04-14_11h52.24.061,mogelijke versie adaptive staircase builder,,2026.1.3,60.08636814558529,2026-04-14 11h52.24.347206 +0200,
12.5,ecc0,mid,52,0,52,j,1,6.742777100000239,None,0,1,1,1,52,0,52,0,1845.1816506000005,,,,,,,,,,,,,,,1845.1776505999997,1845.1816506000005,1846.0977943999997,1845.1816506000005,1845.1816506000005,1851.931287100001,j,1,6.742777100000239,None,direct,16,"[20, 19, 20, 14, 15, 14, 17, 16, 19, 15, 17, 16, 18, 15, 16, 15, 16, 15, 17, 15, 17, 15, 16, 14, 16]",25,direct_gaze.png,j,1,2,results14,001,2026-04-14_11h52.24.061,mogelijke versie adaptive staircase builder,,2026.1.3,60.08636814558529,2026-04-14 11h52.24.347206 +0200,
12.5,ecc0,mid,53,0,53,j,0,8.964753399999609,None,0,1,1,1,53,0,53,0,1852.0159814999997,,,,,,,,,,,,,,,1852.0121086999998,1852.0159814999997,1852.9312271000008,1852.0159814999997,1852.0159814999997,1860.9816285999996,j,0,8.964753399999609,None,right,15,"[20, 19, 20, 14, 15, 14, 17, 16, 19, 15, 17, 16, 18, 15, 16, 15, 16, 15, 17, 15, 17, 15, 16, 14, 16, 15]",26,gaze_R_15.png,j,0,2,results14,001,2026-04-14_11h52.24.061,mogelijke versie adaptive staircase builder,,2026.1.3,60.08636814558529,2026-04-14 11h52.24.347206 +0200,
12.5,ecc0,mid,54,0,54,j,0,3.8739750999993703,None,0,1,1,1,54,0,54,0,1861.0664411000007,,,,,,,,,,,,,,,1861.0619510000006,1861.0664411000007,1861.9813975999996,1861.0664411000007,1861.0664411000007,1864.9479001000009,j,0,3.8739750999993703,None,left,16,"[20, 19, 20, 14, 15, 14, 17, 16, 19, 15, 17, 16, 18, 15, 16, 15, 16, 15, 17, 15, 17, 15, 16, 14, 16, 15]",26,gaze_L_16.png,j,0,2,results14,001,2026-04-14_11h52.24.061,mogelijke versie adaptive staircase builder,,2026.1.3,60.08636814558529,2026-04-14 11h52.24.347206 +0200,
12.5,ecc0,mid,55,0,55,j,0,5.549020000000382,None,0,1,1,1,55,0,55,0,1865.0315161999997,,,,,,,,,,,,,,,1865.0274768000008,1865.0315161999997,1865.9476905000001,1865.0315161999997,1865.0315161999997,1870.581352600001,j,0,5.549020000000382,None,right,17,"[20, 19, 20, 14, 15, 14, 17, 16, 19, 15, 17, 16, 18, 15, 16, 15, 16, 15, 17, 15, 17, 15, 16, 14, 16, 15]",26,gaze_R_17.png,j,0,2,results14,001,2026-04-14_11h52.24.061,mogelijke versie adaptive staircase builder,,2026.1.3,60.08636814558529,2026-04-14 11h52.24.347206 +0200,
12.5,ecc0,mid,56,0,56,j,1,3.5711945999992167,None,0,1,1,1,56,0,56,0,1870.665702700001,,,,,,,,,,,,,,,1870.6618549000004,1870.665702700001,1871.5809708999996,1870.665702700001,1870.665702700001,1874.2489385,j,1,3.5711945999992167,None,direct,18,"[20, 19, 20, 14, 15, 14, 17, 16, 19, 15, 17, 16, 18, 15, 16, 15, 16, 15, 17, 15, 17, 15, 16, 14, 16, 15, 18]",27,direct_gaze.png,j,1,2,results14,001,2026-04-14_11h52.24.061,mogelijke versie adaptive staircase builder,,2026.1.3,60.08636814558529,2026-04-14 11h52.24.347206 +0200,
12.5,ecc0,mid,57,0,57,f,0,3.719421699999657,None,0,1,1,1,57,0,57,0,1874.3334581000008,,,,,,,,,,,,,,,1874.3295624000011,1874.3334581000008,1875.2642055000006,1874.3334581000008,1874.3334581000008,1878.0646963000008,f,0,3.719421699999657,None,direct,17,"[20, 19, 20, 14, 15, 14, 17, 16, 19, 15, 17, 16, 18, 15, 16, 15, 16, 15, 17, 15, 17, 15, 16, 14, 16, 15, 18, 17]",28,direct_gaze.png,f,0,2,results14,001,2026-04-14_11h52.24.061,mogelijke versie adaptive staircase builder,,2026.1.3,60.08636814558529,2026-04-14 11h52.24.347206 +0200,
12.5,ecc0,mid,58,0,58,j,0,5.5522117000000435,None,0,1,1,1,58,0,58,0,1878.1482669000006,,,,,,,,,,,,,,,1878.1443477000003,1878.1482669000006,1879.0648050999998,1878.1482669000006,1878.1482669000006,1883.7144454,j,0,5.5522117000000435,None,left,18,"[20, 19, 20, 14, 15, 14, 17, 16, 19, 15, 17, 16, 18, 15, 16, 15, 16, 15, 17, 15, 17, 15, 16, 14, 16, 15, 18, 17]",28,gaze_L_18.png,j,0,2,results14,001,2026-04-14_11h52.24.061,mogelijke versie adaptive staircase builder,,2026.1.3,60.08636814558529,2026-04-14 11h52.24.347206 +0200,
12.5,ecc0,mid,59,0,59,j,1,8.629068299998835,None,0,1,1,1,59,0,59,0,1883.79979,,,,,,,,,,,,,,,1883.7959010000004,1883.79979,1884.7142451000009,1883.79979,1883.79979,1892.4317729000004,j,1,8.629068299998835,None,direct,19,"[20, 19, 20, 14, 15, 14, 17, 16, 19, 15, 17, 16, 18, 15, 16, 15, 16, 15, 17, 15, 17, 15, 16, 14, 16, 15, 18, 17, 19]",29,direct_gaze.png,j,1,2,results14,001,2026-04-14_11h52.24.061,mogelijke versie adaptive staircase builder,,2026.1.3,60.08636814558529,2026-04-14 11h52.24.347206 +0200,
12.5,ecc0,mid,1,1,0,,,,,0,1,1,1,,,,,,,,,,,,,,,,,,,,,,,,,,,,,,,,,,,,,,results14,001,2026-04-14_11h52.24.061,mogelijke versie adaptive staircase builder,,2026.1.3,60.08636814558529,2026-04-14 11h52.24.347206 +0200,
20.5,ecc10neg,right,0,0,0,j,0,3.103431700001238,None,0,2,2,2,0,0,0,0,1892.5488704999998,,,,,,,,,,,,,1892.4348020999996,1892.4348586999995,1892.5385340000003,1892.5488704999998,1892.5488704999998,1893.448091000001,1892.5488704999998,1895.6647920000005,j,0,3.103431700001238,None,right,20,[],0,shiftedgaze_R_20.png,j,0,3,results14,001,2026-04-14_11h52.24.061,mogelijke versie adaptive staircase builder,,2026.1.3,60.08636814558529,2026-04-14 11h52.24.347206 +0200,
20.5,ecc10neg,right,1,0,1,j,0,3.7033847000002424,None,0,2,2,2,1,0,1,0,1895.7730676,,,,,,,,,,,,,,,1895.7622251000003,1895.7730676,1895.7730676,1896.6642488000007,1895.7730676,1899.4813633000003,j,0,3.7033847000002424,None,left,20,[],0,shiftedgaze_L_20.png,j,0,3,results14,001,2026-04-14_11h52.24.061,mogelijke versie adaptive staircase builder,,2026.1.3,60.08636814558529,2026-04-14 11h52.24.347206 +0200,
20.5,ecc10neg,right,2,0,2,f,1,4.60623840000153,None,0,2,2,2,2,0,2,0,1899.5900960000008,,,,,,,,,,,,,,,1899.5787932000012,1899.5900960000008,1899.5900960000008,1900.4973791000002,1899.5900960000008,1904.197942400001,f,1,4.60623840000153,None,right,20,[20],1,shiftedgaze_R_20.png,f,1,3,results14,001,2026-04-14_11h52.24.061,mogelijke versie adaptive staircase builder,,2026.1.3,60.08636814558529,2026-04-14 11h52.24.347206 +0200,
20.5,ecc10neg,right,3,0,3,f,0,13.489256299999397,None,0,2,2,2,3,0,3,0,1904.3152137000006,,,,,,,,,,,,,,,1904.304573100001,1904.3152137000006,1904.3152137000006,1905.1977514,1904.3152137000006,1917.8143977999998,f,0,13.489256299999397,None,direct,19,"[20, 19]",2,shifteddirectgaze.png,f,0,3,results14,001,2026-04-14_11h52.24.061,mogelijke versie adaptive staircase builder,,2026.1.3,60.08636814558529,2026-04-14 11h52.24.347206 +0200,
20.5,ecc10neg,right,4,0,4,f,0,5.664894699999422,None,0,2,2,2,4,0,4,0,1917.9076212999998,,,,,,,,,,,,,,,1917.903515500001,1917.9076212999998,1917.9076212999998,1918.8142765000002,1917.9076212999998,1923.5813215999997,f,0,5.664894699999422,None,direct,20,"[20, 19]",2,shifteddirectgaze.png,f,0,3,results14,001,2026-04-14_11h52.24.061,mogelijke versie adaptive staircase builder,,2026.1.3,60.08636814558529,2026-04-14 11h52.24.347206 +0200,
20.5,ecc10neg,right,5,0,5,f,0,2.251401999999871,None,0,2,2,2,5,0,5,0,1923.6651035000004,,,,,,,,,,,,,,,1923.6610716999994,1923.6651035000004,1923.6651035000004,1924.581490200001,1923.6651035000004,1925.9317978000008,f,0,2.251401999999871,None,direct,20,"[20, 19]",2,shifteddirectgaze.png,f,0,3,results14,001,2026-04-14_11h52.24.061,mogelijke versie adaptive staircase builder,,2026.1.3,60.08636814558529,2026-04-14 11h52.24.347206 +0200,
20.5,ecc10neg,right,6,0,6,f,0,6.3093480999996245,None,0,2,2,2,6,0,6,0,1926.015424600001,,,,,,,,,,,,,,,1926.0114022000007,1926.015424600001,1926.015424600001,1926.947705200001,1926.015424600001,1932.3317883999998,f,0,6.3093480999996245,None,direct,20,"[20, 19]",2,shifteddirectgaze.png,f,0,3,results14,001,2026-04-14_11h52.24.061,mogelijke versie adaptive staircase builder,,2026.1.3,60.08636814558529,2026-04-14 11h52.24.347206 +0200,
20.5,ecc10neg,right,7,0,7,f,0,3.1723280000005616,None,0,2,2,2,7,0,7,0,1932.4161171999995,,,,,,,,,,,,,,,1932.412175800001,1932.4161171999995,1932.4161171999995,1933.3475831000005,1932.4161171999995,1935.5985537000006,f,0,3.1723280000005616,None,direct,20,"[20, 19]",2,shifteddirectgaze.png,f,0,3,results14,001,2026-04-14_11h52.24.061,mogelijke versie adaptive staircase builder,,2026.1.3,60.08636814558529,2026-04-14 11h52.24.347206 +0200,
20.5,ecc10neg,right,8,0,8,j,0,4.227895500000159,None,0,2,2,2,8,0,8,0,1935.688570700001,,,,,,,,,,,,,,,1935.6843913000002,1935.688570700001,1935.688570700001,1936.6143906999996,1935.688570700001,1939.9312691999994,j,0,4.227895500000159,None,left,20,"[20, 19]",2,shiftedgaze_L_20.png,j,0,3,results14,001,2026-04-14_11h52.24.061,mogelijke versie adaptive staircase builder,,2026.1.3,60.08636814558529,2026-04-14 11h52.24.347206 +0200,
20.5,ecc10neg,right,9,0,9,j,0,4.148916300000565,None,0,2,2,2,9,0,9,0,1940.0154849,,,,,,,,,,,,,,,1940.0114306999994,1940.0154849,1940.0154849,1940.9311289000007,1940.0154849,1944.1646415999994,j,0,4.148916300000565,None,left,20,"[20, 19]",2,shiftedgaze_L_20.png,j,0,3,results14,001,2026-04-14_11h52.24.061,mogelijke versie adaptive staircase builder,,2026.1.3,60.08636814558529,2026-04-14 11h52.24.347206 +0200,
20.5,ecc10neg,right,10,0,10,j,0,3.035583400000178,None,0,2,2,2,10,0,10,0,1944.2487563000004,,,,,,,,,,,,,,,1944.2447361000004,1944.2487563000004,1944.2487563000004,1945.1644110999996,1944.2487563000004,1947.2982698000005,j,0,3.035583400000178,None,left,20,"[20, 19]",2,shiftedgaze_L_20.png,j,0,3,results14,001,2026-04-14_11h52.24.061,mogelijke versie adaptive staircase builder,,2026.1.3,60.08636814558529,2026-04-14 11h52.24.347206 +0200,
20.5,ecc10neg,right,11,0,11,f,1,2.430891399999382,None,0,2,2,2,11,0,11,0,1947.405508500001,,,,,,,,,,,,,,,1947.3959337000006,1947.405508500001,1947.405508500001,1948.2981193999995,1947.405508500001,1949.8479815,f,1,2.430891399999382,None,right,20,"[20, 19, 20]",3,shiftedgaze_R_20.png,f,1,3,results14,001,2026-04-14_11h52.24.061,mogelijke versie adaptive staircase builder,,2026.1.3,60.08636814558529,2026-04-14 11h52.24.347206 +0200,
20.5,ecc10neg,right,12,0,12,f,0,2.1433399000015925,None,0,2,2,2,12,0,12,0,1949.9491148999996,,,,,,,,,,,,,,,1949.9383160999996,1949.9491148999996,1949.9491148999996,1950.8477635999998,1949.9491148999996,1952.0980557000012,f,0,2.1433399000015925,None,direct,19,"[20, 19, 20, 19]",4,shifteddirectgaze.png,f,0,3,results14,001,2026-04-14_11h52.24.061,mogelijke versie adaptive staircase builder,,2026.1.3,60.08636814558529,2026-04-14 11h52.24.347206 +0200,
20.5,ecc10neg,right,13,0,13,f,0,4.231589299999541,None,0,2,2,2,13,0,13,0,1952.1811484,,,,,,,,,,,,,,,1952.177171800001,1952.1811484,1952.1811484,1953.0982632999994,1952.1811484,1956.4147994000004,f,0,4.231589299999541,None,direct,20,"[20, 19, 20, 19]",4,shifteddirectgaze.png,f,0,3,results14,001,2026-04-14_11h52.24.061,mogelijke versie adaptive staircase builder,,2026.1.3,60.08636814558529,2026-04-14 11h52.24.347206 +0200,
20.5,ecc10neg,right,14,0,14,f,1,5.490454700000555,None,0,2,2,2,14,0,14,0,1956.4979706000004,,,,,,,,,,,,,,,1956.4939812000002,1956.4979706000004,1956.4979706000004,1957.4144423999996,1956.4979706000004,1961.997930300001,f,1,5.490454700000555,None,left,20,"[20, 19, 20, 19, 20]",5,shiftedgaze_L_20.png,f,1,3,results14,001,2026-04-14_11h52.24.061,mogelijke versie adaptive staircase builder,,2026.1.3,60.08636814558529,2026-04-14 11h52.24.347206 +0200,
20.5,ecc10neg,right,15,0,15,f,1,1.9020688999989943,None,0,2,2,2,15,0,15,0,1962.1023968,,,,,,,,,,,,,,,1962.0925784,1962.1023968,1962.1023968,1962.9978089999995,1962.1023968,1964.0146069000011,f,1,1.9020688999989943,None,right,19,"[20, 19, 20, 19, 20]",5,shiftedgaze_R_19.png,f,1,3,results14,001,2026-04-14_11h52.24.061,mogelijke versie adaptive staircase builder,,2026.1.3,60.08636814558529,2026-04-14 11h52.24.347206 +0200,
20.5,ecc10neg,right,16,0,16,f,1,3.295586500000354,None,0,2,2,2,16,0,16,0,1964.108747700001,,,,,,,,,,,,,,,1964.1044567,1964.108747700001,1964.108747700001,1965.0149310000006,1964.108747700001,1967.4145536000005,f,1,3.295586500000354,None,right,18,"[20, 19, 20, 19, 20]",5,shiftedgaze_R_18.png,f,1,3,results14,001,2026-04-14_11h52.24.061,mogelijke versie adaptive staircase builder,,2026.1.3,60.08636814558529,2026-04-14 11h52.24.347206 +0200,
20.5,ecc10neg,right,17,0,17,j,1,1.7305801000002248,None,0,2,2,2,17,0,17,0,1967.506204100001,,,,,,,,,,,,,,,1967.496057700001,1967.506204100001,1967.506204100001,1968.4148943999999,1967.506204100001,1969.2482233,j,1,1.7305801000002248,None,direct,17,"[20, 19, 20, 19, 20]",5,shifteddirectgaze.png,j,1,3,results14,001,2026-04-14_11h52.24.061,mogelijke versie adaptive staircase builder,,2026.1.3,60.08636814558529,2026-04-14 11h52.24.347206 +0200,
20.5,ecc10neg,right,18,0,18,f,1,1.8088257999988855,None,0,2,2,2,18,0,18,0,1969.3395921000001,,,,,,,,,,,,,,,1969.3355600000004,1969.3395921000001,1969.3395921000001,1970.247988,1969.3395921000001,1971.1648145000008,f,1,1.8088257999988855,None,left,16,"[20, 19, 20, 19, 20]",5,shiftedgaze_L_16.png,f,1,3,results14,001,2026-04-14_11h52.24.061,mogelijke versie adaptive staircase builder,,2026.1.3,60.08636814558529,2026-04-14 11h52.24.347206 +0200,
20.5,ecc10neg,right,19,0,19,j,0,1.6205835000000661,None,0,2,2,2,19,0,19,0,1971.2638484000008,,,,,,,,,,,,,,,1971.2595878000002,1971.2638484000008,1971.2638484000008,1972.1645142000007,1971.2638484000008,1972.8979504999998,j,0,1.6205835000000661,None,left,15,"[20, 19, 20, 19, 20, 15]",6,shiftedgaze_L_15.png,j,0,3,results14,001,2026-04-14_11h52.24.061,mogelijke versie adaptive staircase builder,,2026.1.3,60.08636814558529,2026-04-14 11h52.24.347206 +0200,
20.5,ecc10neg,right,20,0,20,f,0,2.183161900000414,None,0,2,2,2,20,0,20,0,1972.981109200001,,,,,,,,,,,,,,,1972.977203200001,1972.981109200001,1972.981109200001,1973.8982645999995,1972.981109200001,1975.164531200001,f,0,2.183161900000414,None,direct,16,"[20, 19, 20, 19, 20, 15]",6,shifteddirectgaze.png,f,0,3,results14,001,2026-04-14_11h52.24.061,mogelijke versie adaptive staircase builder,,2026.1.3,60.08636814558529,2026-04-14 11h52.24.347206 +0200,
20.5,ecc10neg,right,21,0,21,j,1,4.9142560999989655,None,0,2,2,2,21,0,21,0,1975.2502658000003,,,,,,,,,,,,,,,1975.2462998,1975.2502658000003,1975.2502658000003,1976.1644356000006,1975.2502658000003,1980.181028,j,1,4.9142560999989655,None,direct,17,"[20, 19, 20, 19, 20, 15, 17]",7,shifteddirectgaze.png,j,1,3,results14,001,2026-04-14_11h52.24.061,mogelijke versie adaptive staircase builder,,2026.1.3,60.08636814558529,2026-04-14 11h52.24.347206 +0200,
20.5,ecc10neg,right,22,0,22,j,1,5.606150100000377,None,0,2,2,2,22,0,22,0,1980.2781693000006,,,,,,,,,,,,,,,1980.2741223000003,1980.2781693000006,1980.2781693000006,1981.1815883999998,1980.2781693000006,1985.8979602000009,j,1,5.606150100000377,None,direct,16,"[20, 19, 20, 19, 20, 15, 17]",7,shifteddirectgaze.png,j,1,3,results14,001,2026-04-14_11h52.24.061,mogelijke versie adaptive staircase builder,,2026.1.3,60.08636814558529,2026-04-14 11h52.24.347206 +0200,
20.5,ecc10neg,right,23,0,23,j,0,5.254239099998813,None,0,2,2,2,23,0,23,0,1985.982383900001,,,,,,,,,,,,,,,1985.9783108000001,1985.982383900001,1985.982383900001,1986.8976430000012,1985.982383900001,1991.2485449000005,j,0,5.254239099998813,None,left,15,"[20, 19, 20, 19, 20, 15, 17, 15]",8,shiftedgaze_L_15.png,j,0,3,results14,001,2026-04-14_11h52.24.061,mogelijke versie adaptive staircase builder,,2026.1.3,60.08636814558529,2026-04-14 11h52.24.347206 +0200,
20.5,ecc10neg,right,24,0,24,f,0,3.6712457000012364,None,0,2,2,2,24,0,24,0,1991.3333200000006,,,,,,,,,,,,,,,1991.3293182999996,1991.3333200000006,1991.3333200000006,1992.2643632999998,1991.3333200000006,1995.0151840999997,f,0,3.6712457000012364,None,direct,16,"[20, 19, 20, 19, 20, 15, 17, 15]",8,shifteddirectgaze.png,f,0,3,results14,001,2026-04-14_11h52.24.061,mogelijke versie adaptive staircase builder,,2026.1.3,60.08636814558529,2026-04-14 11h52.24.347206 +0200,
20.5,ecc10neg,right,25,0,25,j,0,9.871257099999639,None,0,2,2,2,25,0,25,0,1995.1257816000007,,,,,,,,,,,,,,,1995.1140086000005,1995.1257816000007,1995.1257816000007,1996.0148717000002,1995.1257816000007,2004.9977781999996,j,0,9.871257099999639,None,right,17,"[20, 19, 20, 19, 20, 15, 17, 15]",8,shiftedgaze_R_17.png,j,0,3,results14,001,2026-04-14_11h52.24.061,mogelijke versie adaptive staircase builder,,2026.1.3,60.08636814558529,2026-04-14 11h52.24.347206 +0200,
20.5,ecc10neg,right,26,0,26,j,0,4.764462400000411,None,0,2,2,2,26,0,26,0,2005.0964027,,,,,,,,,,,,,,,2005.0861384999998,2005.0964027,2005.0964027,2005.9976494000011,2005.0964027,2009.8651926000011,j,0,4.764462400000411,None,left,18,"[20, 19, 20, 19, 20, 15, 17, 15]",8,shiftedgaze_L_18.png,j,0,3,results14,001,2026-04-14_11h52.24.061,mogelijke versie adaptive staircase builder,,2026.1.3,60.08636814558529,2026-04-14 11h52.24.347206 +0200,
20.5,ecc10neg,right,27,0,27,f,1,2.0340898000013112,None,0,2,2,2,27,0,27,0,2009.9547740999997,,,,,,,,,,,,,,,2009.9507294000005,2009.9547740999997,2009.9547740999997,2010.8813292000004,2009.9547740999997,2011.9984613000006,f,1,2.0340898000013112,None,left,19,"[20, 19, 20, 19, 20, 15, 17, 15, 19]",9,shiftedgaze_L_19.png,f,1,3,results14,001,2026-04-14_11h52.24.061,mogelijke versie adaptive staircase builder,,2026.1.3,60.08636814558529,2026-04-14 11h52.24.347206 +0200,
20.5,ecc10neg,right,28,0,28,f,1,2.021273000000292,None,0,2,2,2,28,0,28,0,2012.103560800001,,,,,,,,,,,,,,,2012.0940206999994,2012.103560800001,2012.103560800001,2012.9981396000012,2012.103560800001,2014.1318235999997,f,1,2.021273000000292,None,right,18,"[20, 19, 20, 19, 20, 15, 17, 15, 19]",9,shiftedgaze_R_18.png,f,1,3,results14,001,2026-04-14_11h52.24.061,mogelijke versie adaptive staircase builder,,2026.1.3,60.08636814558529,2026-04-14 11h52.24.347206 +0200,
20.5,ecc10neg,right,29,0,29,j,0,3.9169800999989093,None,0,2,2,2,29,0,29,0,2014.239870800001,,,,,,,,,,,,,,,2014.2298923000008,2014.239870800001,2014.239870800001,2015.1475840000012,2014.239870800001,2018.165142500001,j,0,3.9169800999989093,None,left,17,"[20, 19, 20, 19, 20, 15, 17, 15, 19, 17]",10,shiftedgaze_L_17.png,j,0,3,results14,001,2026-04-14_11h52.24.061,mogelijke versie adaptive staircase builder,,2026.1.3,60.08636814558529,2026-04-14 11h52.24.347206 +0200,
20.5,ecc10neg,right,30,0,30,j,0,4.774120799998855,None,0,2,2,2,30,0,30,0,2018.2623940000003,,,,,,,,,,,,,,,2018.251690600001,2018.2623940000003,2018.2623940000003,2019.1810223000002,2018.2623940000003,2023.047819800001,j,0,4.774120799998855,None,right,18,"[20, 19, 20, 19, 20, 15, 17, 15, 19, 17]",10,shiftedgaze_R_18.png,j,0,3,results14,001,2026-04-14_11h52.24.061,mogelijke versie adaptive staircase builder,,2026.1.3,60.08636814558529,2026-04-14 11h52.24.347206 +0200,
20.5,ecc10neg,right,31,0,31,j,1,9.537072100001751,None,0,2,2,2,31,0,31,0,2023.1394559999999,,,,,,,,,,,,,,,2023.129640600001,2023.1394559999999,2023.1394559999999,2024.0476239000009,2023.1394559999999,2032.6813454000012,j,1,9.537072100001751,None,direct,19,"[20, 19, 20, 19, 20, 15, 17, 15, 19, 17, 19]",11,shifteddirectgaze.png,j,1,3,results14,001,2026-04-14_11h52.24.061,mogelijke versie adaptive staircase builder,,2026.1.3,60.08636814558529,2026-04-14 11h52.24.347206 +0200,
20.5,ecc10neg,right,32,0,32,j,0,3.4981664000006276,None,0,2,2,2,32,0,32,0,2032.7787029,,,,,,,,,,,,,,,2032.769017900001,2032.7787029,2032.7787029,2033.6812493999996,2032.7787029,2036.2817894999998,j,0,3.4981664000006276,None,right,18,"[20, 19, 20, 19, 20, 15, 17, 15, 19, 17, 19, 18]",12,shiftedgaze_R_18.png,j,0,3,results14,001,2026-04-14_11h52.24.061,mogelijke versie adaptive staircase builder,,2026.1.3,60.08636814558529,2026-04-14 11h52.24.347206 +0200,
20.5,ecc10neg,right,33,0,33,f,0,7.724444899999071,None,0,2,2,2,33,0,33,0,2036.3760286000006,,,,,,,,,,,,,,,2036.3658280000009,2036.3760286000006,2036.3760286000006,2037.2815123999999,2036.3760286000006,2044.1145115000008,f,0,7.724444899999071,None,direct,19,"[20, 19, 20, 19, 20, 15, 17, 15, 19, 17, 19, 18]",12,shifteddirectgaze.png,f,0,3,results14,001,2026-04-14_11h52.24.061,mogelijke versie adaptive staircase builder,,2026.1.3,60.08636814558529,2026-04-14 11h52.24.347206 +0200,
20.5,ecc10neg,right,34,0,34,f,0,10.982926900000166,None,0,2,2,2,34,0,34,0,2044.197648800001,,,,,,,,,,,,,,,2044.1937335000011,2044.197648800001,2044.197648800001,2045.1148280999996,2044.197648800001,2055.181273000001,f,0,10.982926900000166,None,direct,20,"[20, 19, 20, 19, 20, 15, 17, 15, 19, 17, 19, 18]",12,shifteddirectgaze.png,f,0,3,results14,001,2026-04-14_11h52.24.061,mogelijke versie adaptive staircase builder,,2026.1.3,60.08636814558529,2026-04-14 11h52.24.347206 +0200,
20.5,ecc10neg,right,35,0,35,f,1,4.873416000000361,None,0,2,2,2,35,0,35,0,2055.267021300001,,,,,,,,,,,,,,,2055.2628835999994,2055.267021300001,2055.267021300001,2056.1815101,2055.267021300001,2060.1478491000007,f,1,4.873416000000361,None,left,20,"[20, 19, 20, 19, 20, 15, 17, 15, 19, 17, 19, 18, 20]",13,shiftedgaze_L_20.png,f,1,3,results14,001,2026-04-14_11h52.24.061,mogelijke versie adaptive staircase builder,,2026.1.3,60.08636814558529,2026-04-14 11h52.24.347206 +0200,
20.5,ecc10neg,right,36,0,36,f,1,2.683277399999497,None,0,2,2,2,36,0,36,0,2060.2490456000005,,,,,,,,,,,,,,,2060.239016300001,2060.2490456000005,2060.2490456000005,2061.1478779,2060.2490456000005,2062.947885300001,f,1,2.683277399999497,None,right,19,"[20, 19, 20, 19, 20, 15, 17, 15, 19, 17, 19, 18, 20]",13,shiftedgaze_R_19.png,f,1,3,results14,001,2026-04-14_11h52.24.061,mogelijke versie adaptive staircase builder,,2026.1.3,60.08636814558529,2026-04-14 11h52.24.347206 +0200,
20.5,ecc10neg,right,37,0,37,f,1,4.196126100001493,None,0,2,2,2,37,0,37,0,2063.0486971,,,,,,,,,,,,,,,2063.0377495000002,2063.0486971,2063.0486971,2063.9478449000007,2063.0486971,2067.248574100001,f,1,4.196126100001493,None,left,18,"[20, 19, 20, 19, 20, 15, 17, 15, 19, 17, 19, 18, 20]",13,shiftedgaze_L_18.png,f,1,3,results14,001,2026-04-14_11h52.24.061,mogelijke versie adaptive staircase builder,,2026.1.3,60.08636814558529,2026-04-14 11h52.24.347206 +0200,
20.5,ecc10neg,right,38,0,38,f,0,2.832206299999598,None,0,2,2,2,38,0,38,0,2067.3322364999995,,,,,,,,,,,,,,,2067.327946800001,2067.3322364999995,2067.3322364999995,2068.2482162999995,2067.3322364999995,2070.1646257,f,0,2.832206299999598,None,direct,17,"[20, 19, 20, 19, 20, 15, 17, 15, 19, 17, 19, 18, 20, 17]",14,shifteddirectgaze.png,f,0,3,results14,001,2026-04-14_11h52.24.061,mogelijke versie adaptive staircase builder,,2026.1.3,60.08636814558529,2026-04-14 11h52.24.347206 +0200,
20.5,ecc10neg,right,39,0,39,j,1,8.595270200001323,None,0,2,2,2,39,0,39,0,2070.2495045000005,,,,,,,,,,,,,,,2070.2451823,2070.2495045000005,2070.2495045000005,2071.164428000001,2070.2495045000005,2078.848309400001,j,1,8.595270200001323,None,direct,18,"[20, 19, 20, 19, 20, 15, 17, 15, 19, 17, 19, 18, 20, 17, 18]",15,shifteddirectgaze.png,j,1,3,results14,001,2026-04-14_11h52.24.061,mogelijke versie adaptive staircase builder,,2026.1.3,60.08636814558529,2026-04-14 11h52.24.347206 +0200,
20.5,ecc10neg,right,40,0,40,f,1,5.85349479999968,None,0,2,2,2,40,0,40,0,2078.9349255999996,,,,,,,,,,,,,,,2078.930684600001,2078.9349255999996,2078.9349255999996,2079.847910900001,2078.9349255999996,2084.797932300001,f,1,5.85349479999968,None,left,17,"[20, 19, 20, 19, 20, 15, 17, 15, 19, 17, 19, 18, 20, 17, 18]",15,shiftedgaze_L_17.png,f,1,3,results14,001,2026-04-14_11h52.24.061,mogelijke versie adaptive staircase builder,,2026.1.3,60.08636814558529,2026-04-14 11h52.24.347206 +0200,
20.5,ecc10neg,right,41,0,41,j,1,2.6670981999996,None,0,2,2,2,41,0,41,0,2084.881242300001,,,,,,,,,,,,,,,2084.8772235999995,2084.881242300001,2084.881242300001,2085.7983034,2084.881242300001,2087.5646031999995,j,1,2.6670981999996,None,direct,16,"[20, 19, 20, 19, 20, 15, 17, 15, 19, 17, 19, 18, 20, 17, 18]",15,shifteddirectgaze.png,j,1,3,results14,001,2026-04-14_11h52.24.061,mogelijke versie adaptive staircase builder,,2026.1.3,60.08636814558529,2026-04-14 11h52.24.347206 +0200,
20.5,ecc10neg,right,42,0,42,f,0,9.700652100000298,None,0,2,2,2,42,0,42,0,2087.6478228999995,,,,,,,,,,,,,,,2087.6438967000004,2087.6478228999995,2087.6478228999995,2088.5643826999994,2087.6478228999995,2097.3488485000007,f,0,9.700652100000298,None,direct,15,"[20, 19, 20, 19, 20, 15, 17, 15, 19, 17, 19, 18, 20, 17, 18, 15]",16,shifteddirectgaze.png,f,0,3,results14,001,2026-04-14_11h52.24.061,mogelijke versie adaptive staircase builder,,2026.1.3,60.08636814558529,2026-04-14 11h52.24.347206 +0200,
20.5,ecc10neg,right,43,0,43,f,0,4.972377300000517,None,0,2,2,2,43,0,43,0,2097.4321026000007,,,,,,,,,,,,,,,2097.4282085000004,2097.4321026000007,2097.4321026000007,2098.3644355000006,2097.4321026000007,2102.4152839999997,f,0,4.972377300000517,None,direct,16,"[20, 19, 20, 19, 20, 15, 17, 15, 19, 17, 19, 18, 20, 17, 18, 15]",16,shifteddirectgaze.png,f,0,3,results14,001,2026-04-14_11h52.24.061,mogelijke versie adaptive staircase builder,,2026.1.3,60.08636814558529,2026-04-14 11h52.24.347206 +0200,
20.5,ecc10neg,right,44,0,44,f,1,6.554767400000856,None,0,2,2,2,44,0,44,0,2102.4978562999995,,,,,,,,,,,,,,,2102.4938254,2102.4978562999995,2102.4978562999995,2103.4310362999995,2102.4978562999995,2109.0649893,f,1,6.554767400000856,None,left,17,"[20, 19, 20, 19, 20, 15, 17, 15, 19, 17, 19, 18, 20, 17, 18, 15, 17]",17,shiftedgaze_L_17.png,f,1,3,results14,001,2026-04-14_11h52.24.061,mogelijke versie adaptive staircase builder,,2026.1.3,60.08636814558529,2026-04-14 11h52.24.347206 +0200,
20.5,ecc10neg,right,45,0,45,j,0,7.688659900000857,None,0,2,2,2,45,0,45,0,2109.1478555000003,,,,,,,,,,,,,,,2109.1438207,2109.1478555000003,2109.1478555000003,2110.064432,2109.1478555000003,2116.8478294999995,j,0,7.688659900000857,None,left,16,"[20, 19, 20, 19, 20, 15, 17, 15, 19, 17, 19, 18, 20, 17, 18, 15, 17, 16]",18,shiftedgaze_L_16.png,j,0,3,results14,001,2026-04-14_11h52.24.061,mogelijke versie adaptive staircase builder,,2026.1.3,60.08636814558529,2026-04-14 11h52.24.347206 +0200,
20.5,ecc10neg,right,46,0,46,j,0,8.200197400001343,None,0,2,2,2,46,0,46,0,2116.948327000001,,,,,,,,,,,,,,,2116.9389101000006,2116.948327000001,2116.948327000001,2117.8477293999995,2116.948327000001,2125.148746600001,j,0,8.200197400001343,None,right,17,"[20, 19, 20, 19, 20, 15, 17, 15, 19, 17, 19, 18, 20, 17, 18, 15, 17, 16]",18,shiftedgaze_R_17.png,j,0,3,results14,001,2026-04-14_11h52.24.061,mogelijke versie adaptive staircase builder,,2026.1.3,60.08636814558529,2026-04-14 11h52.24.347206 +0200,
20.5,ecc10neg,right,47,0,47,j,0,4.478424700000687,None,0,2,2,2,47,0,47,0,2125.2464085,,,,,,,,,,,,,,,2125.2337866000007,2125.2464085,2125.2464085,2126.1478589999997,2125.2464085,2129.7316796000005,j,0,4.478424700000687,None,left,18,"[20, 19, 20, 19, 20, 15, 17, 15, 19, 17, 19, 18, 20, 17, 18, 15, 17, 16]",18,shiftedgaze_L_18.png,j,0,3,results14,001,2026-04-14_11h52.24.061,mogelijke versie adaptive staircase builder,,2026.1.3,60.08636814558529,2026-04-14 11h52.24.347206 +0200,
20.5,ecc10neg,right,48,0,48,f,1,2.6162759000017104,None,0,2,2,2,48,0,48,0,2129.8288237999996,,,,,,,,,,,,,,,2129.8193911000008,2129.8288237999996,2129.8288237999996,2130.7310018,2129.8288237999996,2132.4484353,f,1,2.6162759000017104,None,right,19,"[20, 19, 20, 19, 20, 15, 17, 15, 19, 17, 19, 18, 20, 17, 18, 15, 17, 16, 19]",19,shiftedgaze_R_19.png,f,1,3,results14,001,2026-04-14_11h52.24.061,mogelijke versie adaptive staircase builder,,2026.1.3,60.08636814558529,2026-04-14 11h52.24.347206 +0200,
20.5,ecc10neg,right,49,0,49,f,1,2.9044801000000007,None,0,2,2,2,49,0,49,0,2132.5480541000006,,,,,,,,,,,,,,,2132.5382572999997,2132.5480541000006,2132.5480541000006,2133.4481387999995,2132.5480541000006,2135.4651889000006,f,1,2.9044801000000007,None,left,18,"[20, 19, 20, 19, 20, 15, 17, 15, 19, 17, 19, 18, 20, 17, 18, 15, 17, 16, 19]",19,shiftedgaze_L_18.png,f,1,3,results14,001,2026-04-14_11h52.24.061,mogelijke versie adaptive staircase builder,,2026.1.3,60.08636814558529,2026-04-14 11h52.24.347206 +0200,
20.5,ecc10neg,right,50,0,50,f,1,3.736874499998521,None,0,2,2,2,50,0,50,0,2135.5639710999994,,,,,,,,,,,,,,,2135.5545271,2135.5639710999994,2135.5639710999994,2136.464857400001,2135.5639710999994,2139.3151798999997,f,1,3.736874499998521,None,right,17,"[20, 19, 20, 19, 20, 15, 17, 15, 19, 17, 19, 18, 20, 17, 18, 15, 17, 16, 19]",19,shiftedgaze_R_17.png,f,1,3,results14,001,2026-04-14_11h52.24.061,mogelijke versie adaptive staircase builder,,2026.1.3,60.08636814558529,2026-04-14 11h52.24.347206 +0200,
20.5,ecc10neg,right,51,0,51,f,1,12.133856499998728,None,0,2,2,2,51,0,51,0,2139.4066429000004,,,,,,,,,,,,,,,2139.3968502,2139.4066429000004,2139.4066429000004,2140.331013,2139.4066429000004,2151.5481413999996,f,1,12.133856499998728,None,left,16,"[20, 19, 20, 19, 20, 15, 17, 15, 19, 17, 19, 18, 20, 17, 18, 15, 17, 16, 19]",19,shiftedgaze_L_16.png,f,1,3,results14,001,2026-04-14_11h52.24.061,mogelijke versie adaptive staircase builder,,2026.1.3,60.08636814558529,2026-04-14 11h52.24.347206 +0200,
20.5,ecc10neg,right,52,0,52,j,0,2.220854400000462,None,0,2,2,2,52,0,52,0,2151.6320341,,,,,,,,,,,,,,,2151.6278914000004,2151.6320341,2151.6320341,2152.5481616999996,2151.6320341,2153.865084,j,0,2.220854400000462,None,left,15,"[20, 19, 20, 19, 20, 15, 17, 15, 19, 17, 19, 18, 20, 17, 18, 15, 17, 16, 19, 15]",20,shiftedgaze_L_15.png,j,0,3,results14,001,2026-04-14_11h52.24.061,mogelijke versie adaptive staircase builder,,2026.1.3,60.08636814558529,2026-04-14 11h52.24.347206 +0200,
20.5,ecc10neg,right,53,0,53,j,1,3.559849600000234,None,0,2,2,2,53,0,53,0,2153.9487572000007,,,,,,,,,,,,,,,2153.9448440000006,2153.9487572000007,2153.9487572000007,2154.8810127000006,2153.9487572000007,2157.515134600001,j,1,3.559849600000234,None,direct,16,"[20, 19, 20, 19, 20, 15, 17, 15, 19, 17, 19, 18, 20, 17, 18, 15, 17, 16, 19, 15, 16]",21,shifteddirectgaze.png,j,1,3,results14,001,2026-04-14_11h52.24.061,mogelijke versie adaptive staircase builder,,2026.1.3,60.08636814558529,2026-04-14 11h52.24.347206 +0200,
20.5,ecc10neg,right,54,0,54,f,1,4.336721399999078,None,0,2,2,2,54,0,54,0,2157.6118866999996,,,,,,,,,,,,,,,2157.6076901999995,2157.6118866999996,2157.6118866999996,2158.514535000001,2157.6118866999996,2161.9488475000007,f,1,4.336721399999078,None,right,15,"[20, 19, 20, 19, 20, 15, 17, 15, 19, 17, 19, 18, 20, 17, 18, 15, 17, 16, 19, 15, 16]",21,shiftedgaze_R_15.png,f,1,3,results14,001,2026-04-14_11h52.24.061,mogelijke versie adaptive staircase builder,,2026.1.3,60.08636814558529,2026-04-14 11h52.24.347206 +0200,
20.5,ecc10neg,right,55,0,55,j,0,2.0131717000003846,None,0,2,2,2,55,0,55,0,2162.0392256999994,,,,,,,,,,,,,,,2162.035173000001,2162.0392256999994,2162.0392256999994,2162.9481403,2162.0392256999994,2164.0645094,j,0,2.0131717000003846,None,left,14,"[20, 19, 20, 19, 20, 15, 17, 15, 19, 17, 19, 18, 20, 17, 18, 15, 17, 16, 19, 15, 16, 14]",22,shiftedgaze_L_14.png,j,0,3,results14,001,2026-04-14_11h52.24.061,mogelijke versie adaptive staircase builder,,2026.1.3,60.08636814558529,2026-04-14 11h52.24.347206 +0200,
20.5,ecc10neg,right,56,0,56,j,0,5.639889300000505,None,0,2,2,2,56,0,56,0,2164.148534000001,,,,,,,,,,,,,,,2164.1446110999996,2164.148534000001,2164.148534000001,2165.064257000001,2164.148534000001,2169.7976989999997,j,0,5.639889300000505,None,left,15,"[20, 19, 20, 19, 20, 15, 17, 15, 19, 17, 19, 18, 20, 17, 18, 15, 17, 16, 19, 15, 16, 14]",22,shiftedgaze_L_15.png,j,0,3,results14,001,2026-04-14_11h52.24.061,mogelijke versie adaptive staircase builder,,2026.1.3,60.08636814558529,2026-04-14 11h52.24.347206 +0200,
20.5,ecc10neg,right,57,0,57,j,1,1.70480470000075,None,0,2,2,2,57,0,57,0,2169.8835384000004,,,,,,,,,,,,,,,2169.8796161,2169.8835384000004,2169.8835384000004,2170.7981522,2169.8835384000004,2171.597724800001,j,1,1.70480470000075,None,direct,16,"[20, 19, 20, 19, 20, 15, 17, 15, 19, 17, 19, 18, 20, 17, 18, 15, 17, 16, 19, 15, 16, 14, 16]",23,shifteddirectgaze.png,j,1,3,results14,001,2026-04-14_11h52.24.061,mogelijke versie adaptive staircase builder,,2026.1.3,60.08636814558529,2026-04-14 11h52.24.347206 +0200,
20.5,ecc10neg,right,58,0,58,f,1,3.9694937000003847,None,0,2,2,2,58,0,58,0,2171.6832124000002,,,,,,,,,,,,,,,2171.6792969000007,2171.6832124000002,2171.6832124000002,2172.5978693999996,2171.6832124000002,2175.6648718000006,f,1,3.9694937000003847,None,right,15,"[20, 19, 20, 19, 20, 15, 17, 15, 19, 17, 19, 18, 20, 17, 18, 15, 17, 16, 19, 15, 16, 14, 16]",23,shiftedgaze_R_15.png,f,1,3,results14,001,2026-04-14_11h52.24.061,mogelijke versie adaptive staircase builder,,2026.1.3,60.08636814558529,2026-04-14 11h52.24.347206 +0200,
20.5,ecc10neg,right,59,0,59,j,1,1.92852479999965,None,0,2,2,2,59,0,59,0,2175.747923600001,,,,,,,,,,,,,,,2175.7438047000005,2175.747923600001,2175.747923600001,2176.6644532,2175.747923600001,2177.6813618999995,j,1,1.92852479999965,None,direct,14,"[20, 19, 20, 19, 20, 15, 17, 15, 19, 17, 19, 18, 20, 17, 18, 15, 17, 16, 19, 15, 16, 14, 16]",23,shifteddirectgaze.png,j,1,3,results14,001,2026-04-14_11h52.24.061,mogelijke versie adaptive staircase builder,,2026.1.3,60.08636814558529,2026-04-14 11h52.24.347206 +0200,
20.5,ecc10neg,right,2,2,0,,,,,0,2,2,2,,,,,,,,,,,,,,,,,,,,,,,,,,,,,,,,,,,,,,results14,001,2026-04-14_11h52.24.061,mogelijke versie adaptive staircase builder,,2026.1.3,60.08636814558529,2026-04-14 11h52.24.347206 +0200,
