xPos,stimulusSet,whichImage,thisN,thisTrialN,thisRepN,key_resp.keys,key_resp.corr,key_resp.rt,key_resp.duration,blocks.thisRepN,blocks.thisTrialN,blocks.thisN,blocks.thisIndex,trials.thisRepN,trials.thisTrialN,trials.thisN,trials.thisIndex,thisRow.t,notes,piloting,intro.started,introinstructions.started,intro_key.started,demo_image_left.started,demo_image_middle.started,demo_image_right.started,intro.stopped,intro_key.keys,intro_key.rt,intro_key.duration,block_start.started,block_start.stopped,trial.started,key_resp.started,middle_image.started,right_image.started,left_image.started,trial.stopped,trials.key_resp.keys,trials.key_resp.corr,trials.key_resp.rt,trials.key_resp.duration,direction,angle,reversal_intensities,number_reversals,stimulus,response,correct,blockNumber,participant,session,date,expName,expVersion,psychopyVersion,frameRate,expStart,
,,,,,,,,,,,,,,,,,,,,False,0.0033667999996396247,0.0061707999993814155,0.0061707999993814155,0.0061707999993814155,0.0061707999993814155,0.0061707999993814155,369.3003523999996,space,369.1108671999991,0.1764448000012635,,,,,,,,,,,,,,,,,,,,,results15,001,2026-04-14_12h30.48.896,mogelijke versie adaptive staircase builder,,2026.1.3,60.04740141895502,2026-04-14 12h30.49.180699 +0200,
4.5,ecc10pos,left,0,0,0,f,0,5.2177711999993335,None,0,0,0,0,0,0,0,0,369.62772869999935,,,,,,,,,,,,,369.51189349999913,369.51195200000075,369.6210394000009,369.62772869999935,369.62772869999935,369.62772869999935,370.51624269999957,374.85003680000045,f,0,5.2177711999993335,None,direct,20,[],0,shifteddirectgaze.png,f,0,1,results15,001,2026-04-14_12h30.48.896,mogelijke versie adaptive staircase builder,,2026.1.3,60.04740141895502,2026-04-14 12h30.49.180699 +0200,
4.5,ecc10pos,left,1,0,1,j,1,5.024155699999028,None,0,0,0,0,1,0,1,0,374.9410263000009,,,,,,,,,,,,,,,374.9368350000004,374.9410263000009,374.9410263000009,374.9410263000009,375.8499668000004,379.9663435000002,j,1,5.024155699999028,None,direct,20,[20],1,shifteddirectgaze.png,j,1,1,results15,001,2026-04-14_12h30.48.896,mogelijke versie adaptive staircase builder,,2026.1.3,60.04740141895502,2026-04-14 12h30.49.180699 +0200,
4.5,ecc10pos,left,2,0,2,f,0,5.438859699999739,None,0,0,0,0,2,0,2,0,380.05420070000037,,,,,,,,,,,,,,,380.0502732999994,380.05420070000037,380.05420070000037,380.05420070000037,380.9660328000009,385.4996074999999,f,0,5.438859699999739,None,direct,19,"[20, 19]",2,shifteddirectgaze.png,f,0,1,results15,001,2026-04-14_12h30.48.896,mogelijke versie adaptive staircase builder,,2026.1.3,60.04740141895502,2026-04-14 12h30.49.180699 +0200,
4.5,ecc10pos,left,3,0,3,j,0,3.462533500000063,None,0,0,0,0,3,0,3,0,385.59862260000045,,,,,,,,,,,,,,,385.5947092999995,385.59862260000045,385.59862260000045,385.59862260000045,386.4994551,389.06631969999944,j,0,3.462533500000063,None,right,20,"[20, 19]",2,shiftedgaze_R_20.png,j,0,1,results15,001,2026-04-14_12h30.48.896,mogelijke versie adaptive staircase builder,,2026.1.3,60.04740141895502,2026-04-14 12h30.49.180699 +0200,
4.5,ecc10pos,left,4,0,4,j,1,4.666767900000195,None,0,0,0,0,4,0,4,0,389.1544083000008,,,,,,,,,,,,,,,389.15022769999996,389.1544083000008,389.1544083000008,389.1544083000008,390.0661682000009,393.83295949999956,j,1,4.666767900000195,None,direct,20,"[20, 19, 20]",3,shifteddirectgaze.png,j,1,1,results15,001,2026-04-14_12h30.48.896,mogelijke versie adaptive staircase builder,,2026.1.3,60.04740141895502,2026-04-14 12h30.49.180699 +0200,
4.5,ecc10pos,left,5,0,5,j,0,6.038459599998532,None,0,0,0,0,5,0,5,0,393.99070140000003,,,,,,,,,,,,,,,393.9855927000008,393.99070140000003,393.99070140000003,393.99070140000003,394.8328631000004,400.03283569999985,j,0,6.038459599998532,None,right,19,"[20, 19, 20, 19]",4,shiftedgaze_R_19.png,j,0,1,results15,001,2026-04-14_12h30.48.896,mogelijke versie adaptive staircase builder,,2026.1.3,60.04740141895502,2026-04-14 12h30.49.180699 +0200,
4.5,ecc10pos,left,6,0,6,f,1,4.0274534999989555,None,0,0,0,0,6,0,6,0,400.16170240000065,,,,,,,,,,,,,,,400.1523412000006,400.16170240000065,400.16170240000065,400.16170240000065,401.03262130000076,404.20075539999925,f,1,4.0274534999989555,None,left,20,"[20, 19, 20, 19, 20]",5,shiftedgaze_L_20.png,f,1,1,results15,001,2026-04-14_12h30.48.896,mogelijke versie adaptive staircase builder,,2026.1.3,60.04740141895502,2026-04-14 12h30.49.180699 +0200,
4.5,ecc10pos,left,7,0,7,j,0,2.2439324999995733,None,0,0,0,0,7,0,7,0,404.3052196000008,,,,,,,,,,,,,,,404.3011664000005,404.3052196000008,404.3052196000008,404.3052196000008,405.21610150000015,406.54957099999956,j,0,2.2439324999995733,None,left,19,"[20, 19, 20, 19, 20, 19]",6,shiftedgaze_L_19.png,j,0,1,results15,001,2026-04-14_12h30.48.896,mogelijke versie adaptive staircase builder,,2026.1.3,60.04740141895502,2026-04-14 12h30.49.180699 +0200,
4.5,ecc10pos,left,8,0,8,j,0,5.59446410000055,None,0,0,0,0,8,0,8,0,406.6431126000007,,,,,,,,,,,,,,,406.63896960000056,406.6431126000007,406.6431126000007,406.6431126000007,407.54937450000034,412.25008759999946,j,0,5.59446410000055,None,left,20,"[20, 19, 20, 19, 20, 19]",6,shiftedgaze_L_20.png,j,0,1,results15,001,2026-04-14_12h30.48.896,mogelijke versie adaptive staircase builder,,2026.1.3,60.04740141895502,2026-04-14 12h30.49.180699 +0200,
4.5,ecc10pos,left,9,0,9,f,0,4.887674899999183,None,0,0,0,0,9,0,9,0,412.3575815999993,,,,,,,,,,,,,,,412.3468429000004,412.3575815999993,412.3575815999993,412.3575815999993,413.24982230000023,417.2494889999998,f,0,4.887674899999183,None,direct,20,"[20, 19, 20, 19, 20, 19]",6,shifteddirectgaze.png,f,0,1,results15,001,2026-04-14_12h30.48.896,mogelijke versie adaptive staircase builder,,2026.1.3,60.04740141895502,2026-04-14 12h30.49.180699 +0200,
4.5,ecc10pos,left,10,0,10,j,0,4.431602499998917,None,0,0,0,0,10,0,10,0,417.3416906000002,,,,,,,,,,,,,,,417.33772209999916,417.3416906000002,417.3416906000002,417.3416906000002,418.2498359000001,421.78293010000016,j,0,4.431602499998917,None,right,20,"[20, 19, 20, 19, 20, 19]",6,shiftedgaze_R_20.png,j,0,1,results15,001,2026-04-14_12h30.48.896,mogelijke versie adaptive staircase builder,,2026.1.3,60.04740141895502,2026-04-14 12h30.49.180699 +0200,
4.5,ecc10pos,left,11,0,11,f,0,3.4792928000006214,None,0,0,0,0,11,0,11,0,421.8699398000008,,,,,,,,,,,,,,,421.8658703000001,421.8699398000008,421.8699398000008,421.8699398000008,422.7829898,425.34948670000085,f,0,3.4792928000006214,None,direct,20,"[20, 19, 20, 19, 20, 19]",6,shifteddirectgaze.png,f,0,1,results15,001,2026-04-14_12h30.48.896,mogelijke versie adaptive staircase builder,,2026.1.3,60.04740141895502,2026-04-14 12h30.49.180699 +0200,
4.5,ecc10pos,left,12,0,12,j,0,5.0062010000001465,None,0,0,0,0,12,0,12,0,425.4393679999994,,,,,,,,,,,,,,,425.43445539999993,425.4393679999994,425.4393679999994,425.4393679999994,426.34978950000004,430.4498930000009,j,0,5.0062010000001465,None,right,20,"[20, 19, 20, 19, 20, 19]",6,shiftedgaze_R_20.png,j,0,1,results15,001,2026-04-14_12h30.48.896,mogelijke versie adaptive staircase builder,,2026.1.3,60.04740141895502,2026-04-14 12h30.49.180699 +0200,
4.5,ecc10pos,left,13,0,13,f,0,4.967925999999352,None,0,0,0,0,13,0,13,0,430.53325269999914,,,,,,,,,,,,,,,430.5293223999997,430.53325269999914,430.53325269999914,430.53325269999914,431.4492738000008,435.5164026000002,f,0,4.967925999999352,None,direct,20,"[20, 19, 20, 19, 20, 19]",6,shifteddirectgaze.png,f,0,1,results15,001,2026-04-14_12h30.48.896,mogelijke versie adaptive staircase builder,,2026.1.3,60.04740141895502,2026-04-14 12h30.49.180699 +0200,
4.5,ecc10pos,left,14,0,14,j,0,4.25277350000033,None,0,0,0,0,14,0,14,0,435.60081770000033,,,,,,,,,,,,,,,435.59693870000046,435.60081770000033,435.60081770000033,435.60081770000033,436.51625720000084,439.86661339999955,j,0,4.25277350000033,None,right,20,"[20, 19, 20, 19, 20, 19]",6,shiftedgaze_R_20.png,j,0,1,results15,001,2026-04-14_12h30.48.896,mogelijke versie adaptive staircase builder,,2026.1.3,60.04740141895502,2026-04-14 12h30.49.180699 +0200,
4.5,ecc10pos,left,15,0,15,f,0,5.710468299999775,None,0,0,0,0,15,0,15,0,439.95116249999955,,,,,,,,,,,,,,,439.9469016000003,439.95116249999955,439.95116249999955,439.95116249999955,440.88270569999986,445.66665060000014,f,0,5.710468299999775,None,direct,20,"[20, 19, 20, 19, 20, 19]",6,shifteddirectgaze.png,f,0,1,results15,001,2026-04-14_12h30.48.896,mogelijke versie adaptive staircase builder,,2026.1.3,60.04740141895502,2026-04-14 12h30.49.180699 +0200,
4.5,ecc10pos,left,16,0,16,f,0,5.845802499999991,None,0,0,0,0,16,0,16,0,445.75179489999937,,,,,,,,,,,,,,,445.7474139999995,445.75179489999937,445.75179489999937,445.75179489999937,446.66651249999995,451.5997320000006,f,0,5.845802499999991,None,direct,20,"[20, 19, 20, 19, 20, 19]",6,shifteddirectgaze.png,f,0,1,results15,001,2026-04-14_12h30.48.896,mogelijke versie adaptive staircase builder,,2026.1.3,60.04740141895502,2026-04-14 12h30.49.180699 +0200,
4.5,ecc10pos,left,17,0,17,f,0,3.9532304999993357,None,0,0,0,0,17,0,17,0,451.6840501000006,,,,,,,,,,,,,,,451.6800647,451.6840501000006,451.6840501000006,451.6840501000006,452.5993268000002,455.6494156000008,f,0,3.9532304999993357,None,direct,20,"[20, 19, 20, 19, 20, 19]",6,shifteddirectgaze.png,f,0,1,results15,001,2026-04-14_12h30.48.896,mogelijke versie adaptive staircase builder,,2026.1.3,60.04740141895502,2026-04-14 12h30.49.180699 +0200,
4.5,ecc10pos,left,18,0,18,f,1,3.648444099999324,None,0,0,0,0,18,0,18,0,455.7330557999994,,,,,,,,,,,,,,,455.7288814000003,455.7330557999994,455.7330557999994,455.7330557999994,456.64983140000004,459.3831740000005,f,1,3.648444099999324,None,right,20,"[20, 19, 20, 19, 20, 19, 20]",7,shiftedgaze_R_20.png,f,1,1,results15,001,2026-04-14_12h30.48.896,mogelijke versie adaptive staircase builder,,2026.1.3,60.04740141895502,2026-04-14 12h30.49.180699 +0200,
4.5,ecc10pos,left,19,0,19,j,1,4.025544300000547,None,0,0,0,0,19,0,19,0,459.4676686999992,,,,,,,,,,,,,,,459.4635178999997,459.4676686999992,459.4676686999992,459.4676686999992,460.3831121000003,463.4993118000002,j,1,4.025544300000547,None,direct,19,"[20, 19, 20, 19, 20, 19, 20]",7,shifteddirectgaze.png,j,1,1,results15,001,2026-04-14_12h30.48.896,mogelijke versie adaptive staircase builder,,2026.1.3,60.04740141895502,2026-04-14 12h30.49.180699 +0200,
4.5,ecc10pos,left,20,0,20,j,0,3.6057858999993186,None,0,0,0,0,20,0,20,0,463.6155314000007,,,,,,,,,,,,,,,463.6051931999991,463.6155314000007,463.6155314000007,463.6155314000007,464.49982629999977,467.23378760000014,j,0,3.6057858999993186,None,left,18,"[20, 19, 20, 19, 20, 19, 20, 18]",8,shiftedgaze_L_18.png,j,0,1,results15,001,2026-04-14_12h30.48.896,mogelijke versie adaptive staircase builder,,2026.1.3,60.04740141895502,2026-04-14 12h30.49.180699 +0200,
4.5,ecc10pos,left,21,0,21,f,0,3.422218600000633,None,0,0,0,0,21,0,21,0,467.35095360000014,,,,,,,,,,,,,,,467.33978430000025,467.35095360000014,467.35095360000014,467.35095360000014,468.24966830000085,470.7833088999996,f,0,3.422218600000633,None,direct,19,"[20, 19, 20, 19, 20, 19, 20, 18]",8,shifteddirectgaze.png,f,0,1,results15,001,2026-04-14_12h30.48.896,mogelijke versie adaptive staircase builder,,2026.1.3,60.04740141895502,2026-04-14 12h30.49.180699 +0200,
4.5,ecc10pos,left,22,0,22,j,0,2.853093899999294,None,0,0,0,0,22,0,22,0,470.8802004999998,,,,,,,,,,,,,,,470.8758121999999,470.8802004999998,470.8802004999998,470.8802004999998,471.78299479999987,473.7336749999995,j,0,2.853093899999294,None,right,20,"[20, 19, 20, 19, 20, 19, 20, 18]",8,shiftedgaze_R_20.png,j,0,1,results15,001,2026-04-14_12h30.48.896,mogelijke versie adaptive staircase builder,,2026.1.3,60.04740141895502,2026-04-14 12h30.49.180699 +0200,
4.5,ecc10pos,left,23,0,23,j,0,4.62478419999934,None,0,0,0,0,23,0,23,0,473.82037560000026,,,,,,,,,,,,,,,473.81622199999947,473.82037560000026,473.82037560000026,473.82037560000026,474.7333701000007,478.4496259000007,j,0,4.62478419999934,None,right,20,"[20, 19, 20, 19, 20, 19, 20, 18]",8,shiftedgaze_R_20.png,j,0,1,results15,001,2026-04-14_12h30.48.896,mogelijke versie adaptive staircase builder,,2026.1.3,60.04740141895502,2026-04-14 12h30.49.180699 +0200,
4.5,ecc10pos,left,24,0,24,f,0,5.3530303000006825,None,0,0,0,0,24,0,24,0,478.53248639999947,,,,,,,,,,,,,,,478.52846040000077,478.53248639999947,478.53248639999947,478.53248639999947,479.44952249999915,483.9002925999994,f,0,5.3530303000006825,None,direct,20,"[20, 19, 20, 19, 20, 19, 20, 18]",8,shifteddirectgaze.png,f,0,1,results15,001,2026-04-14_12h30.48.896,mogelijke versie adaptive staircase builder,,2026.1.3,60.04740141895502,2026-04-14 12h30.49.180699 +0200,
4.5,ecc10pos,left,25,0,25,j,0,3.730939400000352,None,0,0,0,0,25,0,25,0,484.00232510000023,,,,,,,,,,,,,,,483.9919186999996,484.00232510000023,484.00232510000023,484.00232510000023,484.9161595000005,487.7336441000007,j,0,3.730939400000352,None,left,20,"[20, 19, 20, 19, 20, 19, 20, 18]",8,shiftedgaze_L_20.png,j,0,1,results15,001,2026-04-14_12h30.48.896,mogelijke versie adaptive staircase builder,,2026.1.3,60.04740141895502,2026-04-14 12h30.49.180699 +0200,
4.5,ecc10pos,left,26,0,26,f,1,5.008974499998658,None,0,0,0,0,26,0,26,0,487.82817500000056,,,,,,,,,,,,,,,487.8232243000002,487.82817500000056,487.82817500000056,487.82817500000056,488.74956310000016,492.84987659999933,f,1,5.008974499998658,None,left,20,"[20, 19, 20, 19, 20, 19, 20, 18, 20]",9,shiftedgaze_L_20.png,f,1,1,results15,001,2026-04-14_12h30.48.896,mogelijke versie adaptive staircase builder,,2026.1.3,60.04740141895502,2026-04-14 12h30.49.180699 +0200,
4.5,ecc10pos,left,27,0,27,f,1,3.841879499999777,None,0,0,0,0,27,0,27,0,492.9632545000004,,,,,,,,,,,,,,,492.9524316999996,492.9632545000004,492.9632545000004,492.9632545000004,493.84962239999913,496.81639899999936,f,1,3.841879499999777,None,right,19,"[20, 19, 20, 19, 20, 19, 20, 18, 20]",9,shiftedgaze_R_19.png,f,1,1,results15,001,2026-04-14_12h30.48.896,mogelijke versie adaptive staircase builder,,2026.1.3,60.04740141895502,2026-04-14 12h30.49.180699 +0200,
4.5,ecc10pos,left,28,0,28,f,1,3.8558139000015217,None,0,0,0,0,28,0,28,0,496.9413435000006,,,,,,,,,,,,,,,496.93108050000046,496.9413435000006,496.9413435000006,496.9413435000006,497.81665989999965,500.7996414999998,f,1,3.8558139000015217,None,left,18,"[20, 19, 20, 19, 20, 19, 20, 18, 20]",9,shiftedgaze_L_18.png,f,1,1,results15,001,2026-04-14_12h30.48.896,mogelijke versie adaptive staircase builder,,2026.1.3,60.04740141895502,2026-04-14 12h30.49.180699 +0200,
4.5,ecc10pos,left,29,0,29,j,0,4.560614899999564,None,0,0,0,0,29,0,29,0,500.9005545,,,,,,,,,,,,,,,500.8963576999995,500.9005545,500.9005545,500.9005545,501.79996369999935,505.4662874000005,j,0,4.560614899999564,None,left,17,"[20, 19, 20, 19, 20, 19, 20, 18, 20, 17]",10,shiftedgaze_L_17.png,j,0,1,results15,001,2026-04-14_12h30.48.896,mogelijke versie adaptive staircase builder,,2026.1.3,60.04740141895502,2026-04-14 12h30.49.180699 +0200,
4.5,ecc10pos,left,30,0,30,f,1,4.601537100001224,None,0,0,0,0,30,0,30,0,505.5797287000005,,,,,,,,,,,,,,,505.5692454,505.5797287000005,505.5797287000005,505.5797287000005,506.46611400000074,510.18292029999975,f,1,4.601537100001224,None,right,18,"[20, 19, 20, 19, 20, 19, 20, 18, 20, 17, 18]",11,shiftedgaze_R_18.png,f,1,1,results15,001,2026-04-14_12h30.48.896,mogelijke versie adaptive staircase builder,,2026.1.3,60.04740141895502,2026-04-14 12h30.49.180699 +0200,
4.5,ecc10pos,left,31,0,31,j,0,4.8526268000005075,None,0,0,0,0,31,0,31,0,510.2805735000002,,,,,,,,,,,,,,,510.2711080000008,510.2805735000002,510.2805735000002,510.2805735000002,511.1827613000005,515.1335751999995,j,0,4.8526268000005075,None,left,17,"[20, 19, 20, 19, 20, 19, 20, 18, 20, 17, 18, 17]",12,shiftedgaze_L_17.png,j,0,1,results15,001,2026-04-14_12h30.48.896,mogelijke versie adaptive staircase builder,,2026.1.3,60.04740141895502,2026-04-14 12h30.49.180699 +0200,
4.5,ecc10pos,left,32,0,32,f,1,5.98361339999974,None,0,0,0,0,32,0,32,0,515.2295618000007,,,,,,,,,,,,,,,515.2252907000002,515.2295618000007,515.2295618000007,515.2295618000007,516.1495207000007,521.2162349000009,f,1,5.98361339999974,None,left,18,"[20, 19, 20, 19, 20, 19, 20, 18, 20, 17, 18, 17, 18]",13,shiftedgaze_L_18.png,f,1,1,results15,001,2026-04-14_12h30.48.896,mogelijke versie adaptive staircase builder,,2026.1.3,60.04740141895502,2026-04-14 12h30.49.180699 +0200,
4.5,ecc10pos,left,33,0,33,f,1,2.916439500000706,None,0,0,0,0,33,0,33,0,521.3047423999997,,,,,,,,,,,,,,,521.3006882000009,521.3047423999997,521.3047423999997,521.3047423999997,522.2161087000004,524.2330132000006,f,1,2.916439500000706,None,left,17,"[20, 19, 20, 19, 20, 19, 20, 18, 20, 17, 18, 17, 18]",13,shiftedgaze_L_17.png,f,1,1,results15,001,2026-04-14_12h30.48.896,mogelijke versie adaptive staircase builder,,2026.1.3,60.04740141895502,2026-04-14 12h30.49.180699 +0200,
4.5,ecc10pos,left,34,0,34,j,1,4.743112800000745,None,0,0,0,0,34,0,34,0,524.3419847000005,,,,,,,,,,,,,,,524.3313338999997,524.3419847000005,524.3419847000005,524.3419847000005,525.2327963000007,529.0997723,j,1,4.743112800000745,None,direct,16,"[20, 19, 20, 19, 20, 19, 20, 18, 20, 17, 18, 17, 18]",13,shifteddirectgaze.png,j,1,1,results15,001,2026-04-14_12h30.48.896,mogelijke versie adaptive staircase builder,,2026.1.3,60.04740141895502,2026-04-14 12h30.49.180699 +0200,
4.5,ecc10pos,left,35,0,35,j,0,3.5434230000009848,None,0,0,0,0,35,0,35,0,529.2060098000002,,,,,,,,,,,,,,,529.1957311000006,529.2060098000002,529.2060098000002,529.2060098000002,530.0999568999996,532.7500710999993,j,0,3.5434230000009848,None,left,15,"[20, 19, 20, 19, 20, 19, 20, 18, 20, 17, 18, 17, 18, 15]",14,shiftedgaze_L_15.png,j,0,1,results15,001,2026-04-14_12h30.48.896,mogelijke versie adaptive staircase builder,,2026.1.3,60.04740141895502,2026-04-14 12h30.49.180699 +0200,
4.5,ecc10pos,left,36,0,36,j,0,3.052750200000446,None,0,0,0,0,36,0,36,0,532.8564803999998,,,,,,,,,,,,,,,532.8464076,532.8564803999998,532.8564803999998,532.8564803999998,533.7495495000003,535.9161674999996,j,0,3.052750200000446,None,right,16,"[20, 19, 20, 19, 20, 19, 20, 18, 20, 17, 18, 17, 18, 15]",14,shiftedgaze_R_16.png,j,0,1,results15,001,2026-04-14_12h30.48.896,mogelijke versie adaptive staircase builder,,2026.1.3,60.04740141895502,2026-04-14 12h30.49.180699 +0200,
4.5,ecc10pos,left,37,0,37,j,0,2.9372807999989163,None,0,0,0,0,37,0,37,0,536.0120599000002,,,,,,,,,,,,,,,536.0082277000001,536.0120599000002,536.0120599000002,536.0120599000002,536.9165030999993,538.9500566000006,j,0,2.9372807999989163,None,right,17,"[20, 19, 20, 19, 20, 19, 20, 18, 20, 17, 18, 17, 18, 15]",14,shiftedgaze_R_17.png,j,0,1,results15,001,2026-04-14_12h30.48.896,mogelijke versie adaptive staircase builder,,2026.1.3,60.04740141895502,2026-04-14 12h30.49.180699 +0200,
4.5,ecc10pos,left,38,0,38,f,0,4.169087300000683,None,0,0,0,0,38,0,38,0,539.0364964,,,,,,,,,,,,,,,539.0325099000002,539.0364964,539.0364964,539.0364964,539.9659480999999,543.2169111999992,f,0,4.169087300000683,None,direct,18,"[20, 19, 20, 19, 20, 19, 20, 18, 20, 17, 18, 17, 18, 15]",14,shifteddirectgaze.png,f,0,1,results15,001,2026-04-14_12h30.48.896,mogelijke versie adaptive staircase builder,,2026.1.3,60.04740141895502,2026-04-14 12h30.49.180699 +0200,
4.5,ecc10pos,left,39,0,39,f,1,3.9561053999987053,None,0,0,0,0,39,0,39,0,543.3132096999998,,,,,,,,,,,,,,,543.3038510000006,543.3132096999998,543.3132096999998,543.3132096999998,544.2326689000001,547.2835513999999,f,1,3.9561053999987053,None,right,19,"[20, 19, 20, 19, 20, 19, 20, 18, 20, 17, 18, 17, 18, 15, 19]",15,shiftedgaze_R_19.png,f,1,1,results15,001,2026-04-14_12h30.48.896,mogelijke versie adaptive staircase builder,,2026.1.3,60.04740141895502,2026-04-14 12h30.49.180699 +0200,
4.5,ecc10pos,left,40,0,40,j,0,4.618181599998934,None,0,0,0,0,40,0,40,0,547.3874070000002,,,,,,,,,,,,,,,547.3772981999991,547.3874070000002,547.3874070000002,547.3874070000002,548.2828320999997,552.0165240999995,j,0,4.618181599998934,None,right,18,"[20, 19, 20, 19, 20, 19, 20, 18, 20, 17, 18, 17, 18, 15, 19, 18]",16,shiftedgaze_R_18.png,j,0,1,results15,001,2026-04-14_12h30.48.896,mogelijke versie adaptive staircase builder,,2026.1.3,60.04740141895502,2026-04-14 12h30.49.180699 +0200,
4.5,ecc10pos,left,41,0,41,j,1,3.881630399999267,None,0,0,0,0,41,0,41,0,552.0999947,,,,,,,,,,,,,,,552.0960943000009,552.0999947,552.0999947,552.0999947,553.0164989000004,555.9843973000006,j,1,3.881630399999267,None,direct,19,"[20, 19, 20, 19, 20, 19, 20, 18, 20, 17, 18, 17, 18, 15, 19, 18, 19]",17,shifteddirectgaze.png,j,1,1,results15,001,2026-04-14_12h30.48.896,mogelijke versie adaptive staircase builder,,2026.1.3,60.04740141895502,2026-04-14 12h30.49.180699 +0200,
4.5,ecc10pos,left,42,0,42,f,1,3.8320466999994096,None,0,0,0,0,42,0,42,0,556.0691602999996,,,,,,,,,,,,,,,556.0650994000007,556.0691602999996,556.0691602999996,556.0691602999996,556.9993804999995,559.9162113000002,f,1,3.8320466999994096,None,right,18,"[20, 19, 20, 19, 20, 19, 20, 18, 20, 17, 18, 17, 18, 15, 19, 18, 19]",17,shiftedgaze_R_18.png,f,1,1,results15,001,2026-04-14_12h30.48.896,mogelijke versie adaptive staircase builder,,2026.1.3,60.04740141895502,2026-04-14 12h30.49.180699 +0200,
4.5,ecc10pos,left,43,0,43,j,0,3.9967531000002054,None,0,0,0,0,43,0,43,0,560.0006443000002,,,,,,,,,,,,,,,559.9965092000002,560.0006443000002,560.0006443000002,560.0006443000002,560.9165162000008,564.0001078000005,j,0,3.9967531000002054,None,right,17,"[20, 19, 20, 19, 20, 19, 20, 18, 20, 17, 18, 17, 18, 15, 19, 18, 19, 17]",18,shiftedgaze_R_17.png,j,0,1,results15,001,2026-04-14_12h30.48.896,mogelijke versie adaptive staircase builder,,2026.1.3,60.04740141895502,2026-04-14 12h30.49.180699 +0200,
4.5,ecc10pos,left,44,0,44,f,1,4.432534899999155,None,0,0,0,0,44,0,44,0,564.0848239999996,,,,,,,,,,,,,,,564.0806945999993,564.0848239999996,564.0848239999996,564.0848239999996,564.9998883999997,568.5333735000004,f,1,4.432534899999155,None,right,18,"[20, 19, 20, 19, 20, 19, 20, 18, 20, 17, 18, 17, 18, 15, 19, 18, 19, 17, 18]",19,shiftedgaze_R_18.png,f,1,1,results15,001,2026-04-14_12h30.48.896,mogelijke versie adaptive staircase builder,,2026.1.3,60.04740141895502,2026-04-14 12h30.49.180699 +0200,
4.5,ecc10pos,left,45,0,45,j,0,3.7147383999999875,None,0,0,0,0,45,0,45,0,568.6344848000008,,,,,,,,,,,,,,,568.6241389000006,568.6344848000008,568.6344848000008,568.6344848000008,569.5330506999999,572.3494835000001,j,0,3.7147383999999875,None,left,17,"[20, 19, 20, 19, 20, 19, 20, 18, 20, 17, 18, 17, 18, 15, 19, 18, 19, 17, 18, 17]",20,shiftedgaze_L_17.png,j,0,1,results15,001,2026-04-14_12h30.48.896,mogelijke versie adaptive staircase builder,,2026.1.3,60.04740141895502,2026-04-14 12h30.49.180699 +0200,
4.5,ecc10pos,left,46,0,46,f,1,2.4876772000006895,None,0,0,0,0,46,0,46,0,572.4538893999998,,,,,,,,,,,,,,,572.4494900000009,572.4538893999998,572.4538893999998,572.4538893999998,573.3495920000005,574.9501476999994,f,1,2.4876772000006895,None,left,18,"[20, 19, 20, 19, 20, 19, 20, 18, 20, 17, 18, 17, 18, 15, 19, 18, 19, 17, 18, 17, 18]",21,shiftedgaze_L_18.png,f,1,1,results15,001,2026-04-14_12h30.48.896,mogelijke versie adaptive staircase builder,,2026.1.3,60.04740141895502,2026-04-14 12h30.49.180699 +0200,
4.5,ecc10pos,left,47,0,47,j,0,3.1624429000003147,None,0,0,0,0,47,0,47,0,575.0428128999993,,,,,,,,,,,,,,,575.0384410000006,575.0428128999993,575.0428128999993,575.0428128999993,575.9499895000008,578.2161713000005,j,0,3.1624429000003147,None,left,17,"[20, 19, 20, 19, 20, 19, 20, 18, 20, 17, 18, 17, 18, 15, 19, 18, 19, 17, 18, 17, 18, 17]",22,shiftedgaze_L_17.png,j,0,1,results15,001,2026-04-14_12h30.48.896,mogelijke versie adaptive staircase builder,,2026.1.3,60.04740141895502,2026-04-14 12h30.49.180699 +0200,
4.5,ecc10pos,left,48,0,48,j,0,2.791073599999436,None,0,0,0,0,48,0,48,0,578.3180795000007,,,,,,,,,,,,,,,578.3081469999997,578.3180795000007,578.3180795000007,578.3180795000007,579.2163774,581.1162726999992,j,0,2.791073599999436,None,right,18,"[20, 19, 20, 19, 20, 19, 20, 18, 20, 17, 18, 17, 18, 15, 19, 18, 19, 17, 18, 17, 18, 17]",22,shiftedgaze_R_18.png,j,0,1,results15,001,2026-04-14_12h30.48.896,mogelijke versie adaptive staircase builder,,2026.1.3,60.04740141895502,2026-04-14 12h30.49.180699 +0200,
4.5,ecc10pos,left,49,0,49,f,0,4.763593099998616,None,0,0,0,0,49,0,49,0,581.2017218000001,,,,,,,,,,,,,,,581.1976302000003,581.2017218000001,581.2017218000001,581.2017218000001,582.1161293999994,585.9667898999996,f,0,4.763593099998616,None,direct,19,"[20, 19, 20, 19, 20, 19, 20, 18, 20, 17, 18, 17, 18, 15, 19, 18, 19, 17, 18, 17, 18, 17]",22,shifteddirectgaze.png,f,0,1,results15,001,2026-04-14_12h30.48.896,mogelijke versie adaptive staircase builder,,2026.1.3,60.04740141895502,2026-04-14 12h30.49.180699 +0200,
4.5,ecc10pos,left,50,0,50,j,1,3.5063735999992787,None,0,0,0,0,50,0,50,0,586.0509824000001,,,,,,,,,,,,,,,586.0470538000009,586.0509824000001,586.0509824000001,586.0509824000001,586.9829602000009,589.5669376999995,j,1,3.5063735999992787,None,direct,20,"[20, 19, 20, 19, 20, 19, 20, 18, 20, 17, 18, 17, 18, 15, 19, 18, 19, 17, 18, 17, 18, 17, 20]",23,shifteddirectgaze.png,j,1,1,results15,001,2026-04-14_12h30.48.896,mogelijke versie adaptive staircase builder,,2026.1.3,60.04740141895502,2026-04-14 12h30.49.180699 +0200,
4.5,ecc10pos,left,51,0,51,j,1,2.6093400999998266,None,0,0,0,0,51,0,51,0,589.6520607999992,,,,,,,,,,,,,,,589.6481187000009,589.6520607999992,589.6520607999992,589.6520607999992,590.5828244999993,592.2669055000006,j,1,2.6093400999998266,None,direct,19,"[20, 19, 20, 19, 20, 19, 20, 18, 20, 17, 18, 17, 18, 15, 19, 18, 19, 17, 18, 17, 18, 17, 20]",23,shifteddirectgaze.png,j,1,1,results15,001,2026-04-14_12h30.48.896,mogelijke versie adaptive staircase builder,,2026.1.3,60.04740141895502,2026-04-14 12h30.49.180699 +0200,
4.5,ecc10pos,left,52,0,52,f,1,4.982494300000326,None,0,0,0,0,52,0,52,0,592.3505609999993,,,,,,,,,,,,,,,592.3464476999998,592.3505609999993,592.3505609999993,592.3505609999993,593.2827689000005,597.3496276999995,f,1,4.982494300000326,None,right,18,"[20, 19, 20, 19, 20, 19, 20, 18, 20, 17, 18, 17, 18, 15, 19, 18, 19, 17, 18, 17, 18, 17, 20]",23,shiftedgaze_R_18.png,f,1,1,results15,001,2026-04-14_12h30.48.896,mogelijke versie adaptive staircase builder,,2026.1.3,60.04740141895502,2026-04-14 12h30.49.180699 +0200,
4.5,ecc10pos,left,53,0,53,j,0,4.939255799999955,None,0,0,0,0,53,0,53,0,597.4502508000005,,,,,,,,,,,,,,,597.4408063999999,597.4502508000005,597.4502508000005,597.4502508000005,598.3494188000004,602.3999717000006,j,0,4.939255799999955,None,left,17,"[20, 19, 20, 19, 20, 19, 20, 18, 20, 17, 18, 17, 18, 15, 19, 18, 19, 17, 18, 17, 18, 17, 20, 17]",24,shiftedgaze_L_17.png,j,0,1,results15,001,2026-04-14_12h30.48.896,mogelijke versie adaptive staircase builder,,2026.1.3,60.04740141895502,2026-04-14 12h30.49.180699 +0200,
4.5,ecc10pos,left,54,0,54,f,0,4.992713399999047,None,0,0,0,0,54,0,54,0,602.4924704000005,,,,,,,,,,,,,,,602.4824884000009,602.4924704000005,602.4924704000005,602.4924704000005,603.3999451,607.4994005999997,f,0,4.992713399999047,None,direct,18,"[20, 19, 20, 19, 20, 19, 20, 18, 20, 17, 18, 17, 18, 15, 19, 18, 19, 17, 18, 17, 18, 17, 20, 17]",24,shifteddirectgaze.png,f,0,1,results15,001,2026-04-14_12h30.48.896,mogelijke versie adaptive staircase builder,,2026.1.3,60.04740141895502,2026-04-14 12h30.49.180699 +0200,
4.5,ecc10pos,left,55,0,55,f,1,4.323808000001009,None,0,0,0,0,55,0,55,0,607.5932785999994,,,,,,,,,,,,,,,607.5839409,607.5932785999994,607.5932785999994,607.5932785999994,608.4999150999993,611.9173023999992,f,1,4.323808000001009,None,right,19,"[20, 19, 20, 19, 20, 19, 20, 18, 20, 17, 18, 17, 18, 15, 19, 18, 19, 17, 18, 17, 18, 17, 20, 17, 19]",25,shiftedgaze_R_19.png,f,1,1,results15,001,2026-04-14_12h30.48.896,mogelijke versie adaptive staircase builder,,2026.1.3,60.04740141895502,2026-04-14 12h30.49.180699 +0200,
4.5,ecc10pos,left,56,0,56,f,1,4.502531300000555,None,0,0,0,0,56,0,56,0,612.0145900999996,,,,,,,,,,,,,,,612.0053229000005,612.0145900999996,612.0145900999996,612.0145900999996,612.9333774999996,616.5331308999994,f,1,4.502531300000555,None,left,18,"[20, 19, 20, 19, 20, 19, 20, 18, 20, 17, 18, 17, 18, 15, 19, 18, 19, 17, 18, 17, 18, 17, 20, 17, 19]",25,shiftedgaze_L_18.png,f,1,1,results15,001,2026-04-14_12h30.48.896,mogelijke versie adaptive staircase builder,,2026.1.3,60.04740141895502,2026-04-14 12h30.49.180699 +0200,
4.5,ecc10pos,left,57,0,57,j,0,5.331339800000933,None,0,0,0,0,57,0,57,0,616.6337227999993,,,,,,,,,,,,,,,616.6295317999993,616.6337227999993,616.6337227999993,616.6337227999993,617.5328019000008,621.9664209999992,j,0,5.331339800000933,None,left,17,"[20, 19, 20, 19, 20, 19, 20, 18, 20, 17, 18, 17, 18, 15, 19, 18, 19, 17, 18, 17, 18, 17, 20, 17, 19, 17]",26,shiftedgaze_L_17.png,j,0,1,results15,001,2026-04-14_12h30.48.896,mogelijke versie adaptive staircase builder,,2026.1.3,60.04740141895502,2026-04-14 12h30.49.180699 +0200,
4.5,ecc10pos,left,58,0,58,j,0,4.44475120000061,None,0,0,0,0,58,0,58,0,622.0563096999995,,,,,,,,,,,,,,,622.0524361999996,622.0563096999995,622.0563096999995,622.0563096999995,622.9661376999993,626.5162903,j,0,4.44475120000061,None,left,18,"[20, 19, 20, 19, 20, 19, 20, 18, 20, 17, 18, 17, 18, 15, 19, 18, 19, 17, 18, 17, 18, 17, 20, 17, 19, 17]",26,shiftedgaze_L_18.png,j,0,1,results15,001,2026-04-14_12h30.48.896,mogelijke versie adaptive staircase builder,,2026.1.3,60.04740141895502,2026-04-14 12h30.49.180699 +0200,
4.5,ecc10pos,left,59,0,59,j,0,2.046264099999462,None,0,0,0,0,59,0,59,0,626.6149126,,,,,,,,,,,,,,,626.6044997999998,626.6149126,626.6149126,626.6149126,627.5161330999999,628.6663523999996,j,0,2.046264099999462,None,right,19,"[20, 19, 20, 19, 20, 19, 20, 18, 20, 17, 18, 17, 18, 15, 19, 18, 19, 17, 18, 17, 18, 17, 20, 17, 19, 17]",26,shiftedgaze_R_19.png,j,0,1,results15,001,2026-04-14_12h30.48.896,mogelijke versie adaptive staircase builder,,2026.1.3,60.04740141895502,2026-04-14 12h30.49.180699 +0200,
4.5,ecc10pos,left,0,0,0,,,,,0,0,0,0,,,,,,,,,,,,,,,,,,,,,,,,,,,,,,,,,,,,,,results15,001,2026-04-14_12h30.48.896,mogelijke versie adaptive staircase builder,,2026.1.3,60.04740141895502,2026-04-14 12h30.49.180699 +0200,
12.5,ecc0,mid,0,0,0,f,1,3.8142686000010144,None,0,1,1,1,0,0,0,0,628.8073258000004,,,,,,,,,,,,,628.6687008999997,628.6687292000006,628.7979286000009,628.8073258000004,629.6827173000001,628.8073258000004,628.8073258000004,632.6331805000009,f,1,3.8142686000010144,None,left,20,[],0,gaze_L_20.png,f,1,2,results15,001,2026-04-14_12h30.48.896,mogelijke versie adaptive staircase builder,,2026.1.3,60.04740141895502,2026-04-14 12h30.49.180699 +0200,
12.5,ecc0,mid,1,0,1,f,1,4.911373700000695,None,0,1,1,1,1,0,1,0,632.7256846,,,,,,,,,,,,,,,632.7216709000004,632.7256846,633.6328444999999,632.7256846,632.7256846,637.6496038999994,f,1,4.911373700000695,None,left,19,[],0,gaze_L_19.png,f,1,2,results15,001,2026-04-14_12h30.48.896,mogelijke versie adaptive staircase builder,,2026.1.3,60.04740141895502,2026-04-14 12h30.49.180699 +0200,
12.5,ecc0,mid,2,0,2,j,1,4.4725302000006195,None,0,1,1,1,2,0,2,0,637.7406303999996,,,,,,,,,,,,,,,637.7365571000009,637.7406303999996,638.6499485999993,637.7406303999996,637.7406303999996,642.2162926000001,j,1,4.4725302000006195,None,direct,18,[],0,direct_gaze.png,j,1,2,results15,001,2026-04-14_12h30.48.896,mogelijke versie adaptive staircase builder,,2026.1.3,60.04740141895502,2026-04-14 12h30.49.180699 +0200,
12.5,ecc0,mid,3,0,3,j,0,1.9854106999991927,None,0,1,1,1,3,0,3,0,642.3077616999999,,,,,,,,,,,,,,,642.3036849,642.3077616999999,643.2164897999992,642.3077616999999,642.3077616999999,644.2995864999994,j,0,1.9854106999991927,None,right,17,[17],1,gaze_R_17.png,j,0,2,results15,001,2026-04-14_12h30.48.896,mogelijke versie adaptive staircase builder,,2026.1.3,60.04740141895502,2026-04-14 12h30.49.180699 +0200,
12.5,ecc0,mid,4,0,4,f,1,4.723580099998799,None,0,1,1,1,4,0,4,0,644.3936047999996,,,,,,,,,,,,,,,644.3895434999995,644.3936047999996,645.2994244000001,644.3936047999996,644.3936047999996,649.1330018000008,f,1,4.723580099998799,None,right,18,"[17, 18]",2,gaze_R_18.png,f,1,2,results15,001,2026-04-14_12h30.48.896,mogelijke versie adaptive staircase builder,,2026.1.3,60.04740141895502,2026-04-14 12h30.49.180699 +0200,
12.5,ecc0,mid,5,0,5,j,0,3.460122799999226,None,0,1,1,1,5,0,5,0,649.2252745999995,,,,,,,,,,,,,,,649.2212328000005,649.2252745999995,650.1327115000004,649.2252745999995,649.2252745999995,652.7001127999993,j,0,3.460122799999226,None,left,17,"[17, 18, 17]",3,gaze_L_17.png,j,0,2,results15,001,2026-04-14_12h30.48.896,mogelijke versie adaptive staircase builder,,2026.1.3,60.04740141895502,2026-04-14 12h30.49.180699 +0200,
12.5,ecc0,mid,6,0,6,j,0,6.813370399999258,None,0,1,1,1,6,0,6,0,652.7838792999992,,,,,,,,,,,,,,,652.7799539000007,652.7838792999992,653.7160681000005,652.7838792999992,652.7838792999992,659.5994971,j,0,6.813370399999258,None,right,18,"[17, 18, 17]",3,gaze_R_18.png,j,0,2,results15,001,2026-04-14_12h30.48.896,mogelijke versie adaptive staircase builder,,2026.1.3,60.04740141895502,2026-04-14 12h30.49.180699 +0200,
12.5,ecc0,mid,7,0,7,f,1,2.4809079000006022,None,0,1,1,1,7,0,7,0,659.6848059999993,,,,,,,,,,,,,,,659.6804364,659.6848059999993,660.5991267999998,659.6848059999993,659.6848059999993,662.1665718000004,f,1,2.4809079000006022,None,left,19,"[17, 18, 17, 19]",4,gaze_L_19.png,f,1,2,results15,001,2026-04-14_12h30.48.896,mogelijke versie adaptive staircase builder,,2026.1.3,60.04740141895502,2026-04-14 12h30.49.180699 +0200,
12.5,ecc0,mid,8,0,8,f,1,1.9470830999998725,None,0,1,1,1,8,0,8,0,662.2581664999998,,,,,,,,,,,,,,,662.2541504000001,662.2581664999998,663.1663828000001,662.2581664999998,662.2581664999998,664.2163930999996,f,1,1.9470830999998725,None,left,18,"[17, 18, 17, 19]",4,gaze_L_18.png,f,1,2,results15,001,2026-04-14_12h30.48.896,mogelijke versie adaptive staircase builder,,2026.1.3,60.04740141895502,2026-04-14 12h30.49.180699 +0200,
12.5,ecc0,mid,9,0,9,f,1,6.145519699999568,None,0,1,1,1,9,0,9,0,664.2998308999995,,,,,,,,,,,,,,,664.2958885999997,664.2998308999995,665.2161340999992,664.2998308999995,664.2998308999995,670.4496352999995,f,1,6.145519699999568,None,left,17,"[17, 18, 17, 19]",4,gaze_L_17.png,f,1,2,results15,001,2026-04-14_12h30.48.896,mogelijke versie adaptive staircase builder,,2026.1.3,60.04740141895502,2026-04-14 12h30.49.180699 +0200,
12.5,ecc0,mid,10,0,10,j,0,2.0326258999994025,None,0,1,1,1,10,0,10,0,670.5409409000004,,,,,,,,,,,,,,,670.5369907999993,670.5409409000004,671.4498464999997,670.5409409000004,670.5409409000004,672.5834680000007,j,0,2.0326258999994025,None,left,16,"[17, 18, 17, 19, 16]",5,gaze_L_16.png,j,0,2,results15,001,2026-04-14_12h30.48.896,mogelijke versie adaptive staircase builder,,2026.1.3,60.04740141895502,2026-04-14 12h30.49.180699 +0200,
12.5,ecc0,mid,11,0,11,j,0,2.025318399999378,None,0,1,1,1,11,0,11,0,672.6682369000009,,,,,,,,,,,,,,,672.6644911000003,672.6682369000009,673.5993221999997,672.6682369000009,672.6682369000009,674.7002632999993,j,0,2.025318399999378,None,left,17,"[17, 18, 17, 19, 16]",5,gaze_L_17.png,j,0,2,results15,001,2026-04-14_12h30.48.896,mogelijke versie adaptive staircase builder,,2026.1.3,60.04740141895502,2026-04-14 12h30.49.180699 +0200,
12.5,ecc0,mid,12,0,12,j,1,4.341893000000709,None,0,1,1,1,12,0,12,0,674.7833972999997,,,,,,,,,,,,,,,674.7793481999997,674.7833972999997,675.7165124999992,674.7833972999997,674.7833972999997,679.1330379999999,j,1,4.341893000000709,None,direct,18,"[17, 18, 17, 19, 16, 18]",6,direct_gaze.png,j,1,2,results15,001,2026-04-14_12h30.48.896,mogelijke versie adaptive staircase builder,,2026.1.3,60.04740141895502,2026-04-14 12h30.49.180699 +0200,
12.5,ecc0,mid,13,0,13,f,1,4.355534100001023,None,0,1,1,1,13,0,13,0,679.2177475999997,,,,,,,,,,,,,,,679.2137502000005,679.2177475999997,680.1326993999992,679.2177475999997,679.2177475999997,683.5835057999993,f,1,4.355534100001023,None,left,17,"[17, 18, 17, 19, 16, 18]",6,gaze_L_17.png,f,1,2,results15,001,2026-04-14_12h30.48.896,mogelijke versie adaptive staircase builder,,2026.1.3,60.04740141895502,2026-04-14 12h30.49.180699 +0200,
12.5,ecc0,mid,14,0,14,f,0,4.495784699998694,None,0,1,1,1,14,0,14,0,683.6697487000001,,,,,,,,,,,,,,,683.6654524999994,683.6697487000001,684.5831842999996,683.6697487000001,683.6697487000001,688.1664115999993,f,0,4.495784699998694,None,direct,16,"[17, 18, 17, 19, 16, 18, 16]",7,direct_gaze.png,f,0,2,results15,001,2026-04-14_12h30.48.896,mogelijke versie adaptive staircase builder,,2026.1.3,60.04740141895502,2026-04-14 12h30.49.180699 +0200,
12.5,ecc0,mid,15,0,15,f,1,3.2125007000013284,None,0,1,1,1,15,0,15,0,688.2566475999993,,,,,,,,,,,,,,,688.2523898,688.2566475999993,689.1661724000005,688.2566475999993,688.2566475999993,691.4831018999994,f,1,3.2125007000013284,None,left,17,"[17, 18, 17, 19, 16, 18, 16, 17]",8,gaze_L_17.png,f,1,2,results15,001,2026-04-14_12h30.48.896,mogelijke versie adaptive staircase builder,,2026.1.3,60.04740141895502,2026-04-14 12h30.49.180699 +0200,
12.5,ecc0,mid,16,0,16,j,0,1.978083300000435,None,0,1,1,1,16,0,16,0,691.5790818000005,,,,,,,,,,,,,,,691.5748476000008,691.5790818000005,692.4828938999999,691.5790818000005,691.5790818000005,693.5665379999991,j,0,1.978083300000435,None,right,16,"[17, 18, 17, 19, 16, 18, 16, 17, 16]",9,gaze_R_16.png,j,0,2,results15,001,2026-04-14_12h30.48.896,mogelijke versie adaptive staircase builder,,2026.1.3,60.04740141895502,2026-04-14 12h30.49.180699 +0200,
12.5,ecc0,mid,17,0,17,f,1,4.2763838000009855,None,0,1,1,1,17,0,17,0,693.6569385000003,,,,,,,,,,,,,,,693.6523214000008,693.6569385000003,694.5662668999994,693.6569385000003,693.6569385000003,697.9498863000008,f,1,4.2763838000009855,None,right,17,"[17, 18, 17, 19, 16, 18, 16, 17, 16, 17]",10,gaze_R_17.png,f,1,2,results15,001,2026-04-14_12h30.48.896,mogelijke versie adaptive staircase builder,,2026.1.3,60.04740141895502,2026-04-14 12h30.49.180699 +0200,
12.5,ecc0,mid,18,0,18,j,0,3.3753968000000896,None,0,1,1,1,18,0,18,0,698.0378263999992,,,,,,,,,,,,,,,698.0338513000006,698.0378263999992,698.9496197000008,698.0378263999992,698.0378263999992,701.4171153000007,j,0,3.3753968000000896,None,left,16,"[17, 18, 17, 19, 16, 18, 16, 17, 16, 17, 16]",11,gaze_L_16.png,j,0,2,results15,001,2026-04-14_12h30.48.896,mogelijke versie adaptive staircase builder,,2026.1.3,60.04740141895502,2026-04-14 12h30.49.180699 +0200,
12.5,ecc0,mid,19,0,19,f,1,5.281837599999562,None,0,1,1,1,19,0,19,0,701.4999736999998,,,,,,,,,,,,,,,701.4956908000004,701.4999736999998,702.4332369000003,701.4999736999998,701.4999736999998,706.7835575000008,f,1,5.281837599999562,None,left,17,"[17, 18, 17, 19, 16, 18, 16, 17, 16, 17, 16, 17]",12,gaze_L_17.png,f,1,2,results15,001,2026-04-14_12h30.48.896,mogelijke versie adaptive staircase builder,,2026.1.3,60.04740141895502,2026-04-14 12h30.49.180699 +0200,
12.5,ecc0,mid,20,0,20,j,0,5.083104900000762,None,0,1,1,1,20,0,20,0,706.8662717999996,,,,,,,,,,,,,,,706.8620178000001,706.8662717999996,707.7831791999997,706.8662717999996,706.8662717999996,711.9502988999993,j,0,5.083104900000762,None,right,16,"[17, 18, 17, 19, 16, 18, 16, 17, 16, 17, 16, 17, 16]",13,gaze_R_16.png,j,0,2,results15,001,2026-04-14_12h30.48.896,mogelijke versie adaptive staircase builder,,2026.1.3,60.04740141895502,2026-04-14 12h30.49.180699 +0200,
12.5,ecc0,mid,21,0,21,f,1,4.573616100000436,None,0,1,1,1,21,0,21,0,712.0314139000002,,,,,,,,,,,,,,,712.0274279999994,712.0314139000002,712.9495592999992,712.0314139000002,712.0314139000002,716.6163233999996,f,1,4.573616100000436,None,right,17,"[17, 18, 17, 19, 16, 18, 16, 17, 16, 17, 16, 17, 16, 17]",14,gaze_R_17.png,f,1,2,results15,001,2026-04-14_12h30.48.896,mogelijke versie adaptive staircase builder,,2026.1.3,60.04740141895502,2026-04-14 12h30.49.180699 +0200,
12.5,ecc0,mid,22,0,22,f,1,3.6167905000002065,None,0,1,1,1,22,0,22,0,716.7003726000003,,,,,,,,,,,,,,,716.6964253999995,716.7003726000003,717.6162559999993,716.7003726000003,716.7003726000003,720.3329453999995,f,1,3.6167905000002065,None,right,16,"[17, 18, 17, 19, 16, 18, 16, 17, 16, 17, 16, 17, 16, 17]",14,gaze_R_16.png,f,1,2,results15,001,2026-04-14_12h30.48.896,mogelijke versie adaptive staircase builder,,2026.1.3,60.04740141895502,2026-04-14 12h30.49.180699 +0200,
12.5,ecc0,mid,23,0,23,j,0,2.534094399999958,None,0,1,1,1,23,0,23,0,720.4230207,,,,,,,,,,,,,,,720.4191317000004,720.4230207,721.3327195000002,720.4230207,720.4230207,722.9663442000001,j,0,2.534094399999958,None,left,15,"[17, 18, 17, 19, 16, 18, 16, 17, 16, 17, 16, 17, 16, 17, 15]",15,gaze_L_15.png,j,0,2,results15,001,2026-04-14_12h30.48.896,mogelijke versie adaptive staircase builder,,2026.1.3,60.04740141895502,2026-04-14 12h30.49.180699 +0200,
12.5,ecc0,mid,24,0,24,j,0,6.091137900000831,None,0,1,1,1,24,0,24,0,723.0500190000002,,,,,,,,,,,,,,,723.0460132999997,723.0500190000002,723.9661173999993,723.0500190000002,723.0500190000002,729.1496052999992,j,0,6.091137900000831,None,right,16,"[17, 18, 17, 19, 16, 18, 16, 17, 16, 17, 16, 17, 16, 17, 15]",15,gaze_R_16.png,j,0,2,results15,001,2026-04-14_12h30.48.896,mogelijke versie adaptive staircase builder,,2026.1.3,60.04740141895502,2026-04-14 12h30.49.180699 +0200,
12.5,ecc0,mid,25,0,25,j,1,4.694197599999825,None,0,1,1,1,25,0,25,0,729.2313114999997,,,,,,,,,,,,,,,729.2272219999995,729.2313114999997,730.1494645999992,729.2313114999997,729.2313114999997,733.9336203999992,j,1,4.694197599999825,None,direct,17,"[17, 18, 17, 19, 16, 18, 16, 17, 16, 17, 16, 17, 16, 17, 15, 17]",16,direct_gaze.png,j,1,2,results15,001,2026-04-14_12h30.48.896,mogelijke versie adaptive staircase builder,,2026.1.3,60.04740141895502,2026-04-14 12h30.49.180699 +0200,
12.5,ecc0,mid,26,0,26,f,0,3.2775122999992163,None,0,1,1,1,26,0,26,0,734.0157233000009,,,,,,,,,,,,,,,734.0116340000004,734.0157233000009,734.9329765000002,734.0157233000009,734.0157233000009,737.3000136999999,f,0,3.2775122999992163,None,direct,16,"[17, 18, 17, 19, 16, 18, 16, 17, 16, 17, 16, 17, 16, 17, 15, 17, 16]",17,direct_gaze.png,f,0,2,results15,001,2026-04-14_12h30.48.896,mogelijke versie adaptive staircase builder,,2026.1.3,60.04740141895502,2026-04-14 12h30.49.180699 +0200,
12.5,ecc0,mid,27,0,27,f,0,4.222481200000402,None,0,1,1,1,27,0,27,0,737.3906631000009,,,,,,,,,,,,,,,737.3864450000001,737.3906631000009,738.2996103999994,737.3906631000009,737.3906631000009,741.6162948000001,f,0,4.222481200000402,None,direct,17,"[17, 18, 17, 19, 16, 18, 16, 17, 16, 17, 16, 17, 16, 17, 15, 17, 16]",17,direct_gaze.png,f,0,2,results15,001,2026-04-14_12h30.48.896,mogelijke versie adaptive staircase builder,,2026.1.3,60.04740141895502,2026-04-14 12h30.49.180699 +0200,
12.5,ecc0,mid,28,0,28,f,1,4.050799900000129,None,0,1,1,1,28,0,28,0,741.6984059000006,,,,,,,,,,,,,,,741.6944738000002,741.6984059000006,742.6164776999995,741.6984059000006,741.6984059000006,745.7495952000008,f,1,4.050799900000129,None,left,18,"[17, 18, 17, 19, 16, 18, 16, 17, 16, 17, 16, 17, 16, 17, 15, 17, 16, 18]",18,gaze_L_18.png,f,1,2,results15,001,2026-04-14_12h30.48.896,mogelijke versie adaptive staircase builder,,2026.1.3,60.04740141895502,2026-04-14 12h30.49.180699 +0200,
12.5,ecc0,mid,29,0,29,j,0,1.9274308999993082,None,0,1,1,1,29,0,29,0,745.8300256000002,,,,,,,,,,,,,,,745.8257967000009,745.8300256000002,746.7494205000003,745.8300256000002,745.8300256000002,747.7666133999992,j,0,1.9274308999993082,None,left,17,"[17, 18, 17, 19, 16, 18, 16, 17, 16, 17, 16, 17, 16, 17, 15, 17, 16, 18, 17]",19,gaze_L_17.png,j,0,2,results15,001,2026-04-14_12h30.48.896,mogelijke versie adaptive staircase builder,,2026.1.3,60.04740141895502,2026-04-14 12h30.49.180699 +0200,
12.5,ecc0,mid,30,0,30,f,1,3.1802797999989707,None,0,1,1,1,30,0,30,0,747.8490428999994,,,,,,,,,,,,,,,747.8449856000007,747.8490428999994,748.7662717999992,747.8490428999994,747.8490428999994,751.0332775999996,f,1,3.1802797999989707,None,right,18,"[17, 18, 17, 19, 16, 18, 16, 17, 16, 17, 16, 17, 16, 17, 15, 17, 16, 18, 17, 18]",20,gaze_R_18.png,f,1,2,results15,001,2026-04-14_12h30.48.896,mogelijke versie adaptive staircase builder,,2026.1.3,60.04740141895502,2026-04-14 12h30.49.180699 +0200,
12.5,ecc0,mid,31,0,31,f,1,3.5864612000004854,None,0,1,1,1,31,0,31,0,751.1147333000008,,,,,,,,,,,,,,,751.1109133000009,751.1147333000008,752.0493736999997,751.1147333000008,751.1147333000008,754.7172019999998,f,1,3.5864612000004854,None,right,17,"[17, 18, 17, 19, 16, 18, 16, 17, 16, 17, 16, 17, 16, 17, 15, 17, 16, 18, 17, 18]",20,gaze_R_17.png,f,1,2,results15,001,2026-04-14_12h30.48.896,mogelijke versie adaptive staircase builder,,2026.1.3,60.04740141895502,2026-04-14 12h30.49.180699 +0200,
12.5,ecc0,mid,32,0,32,f,1,5.102189600000202,None,0,1,1,1,32,0,32,0,754.7991672000007,,,,,,,,,,,,,,,754.7950273000006,754.7991672000007,755.7327869000001,754.7991672000007,754.7991672000007,759.9165300999994,f,1,5.102189600000202,None,left,16,"[17, 18, 17, 19, 16, 18, 16, 17, 16, 17, 16, 17, 16, 17, 15, 17, 16, 18, 17, 18]",20,gaze_L_16.png,f,1,2,results15,001,2026-04-14_12h30.48.896,mogelijke versie adaptive staircase builder,,2026.1.3,60.04740141895502,2026-04-14 12h30.49.180699 +0200,
12.5,ecc0,mid,33,0,33,j,0,4.343614400000661,None,0,1,1,1,33,0,33,0,760.0055814000007,,,,,,,,,,,,,,,760.0013983000008,760.0055814000007,760.9160702000008,760.0055814000007,760.0055814000007,764.3495817000003,j,0,4.343614400000661,None,right,15,"[17, 18, 17, 19, 16, 18, 16, 17, 16, 17, 16, 17, 16, 17, 15, 17, 16, 18, 17, 18, 15]",21,gaze_R_15.png,j,0,2,results15,001,2026-04-14_12h30.48.896,mogelijke versie adaptive staircase builder,,2026.1.3,60.04740141895502,2026-04-14 12h30.49.180699 +0200,
12.5,ecc0,mid,34,0,34,f,0,3.8130277000000206,None,0,1,1,1,34,0,34,0,764.4325181999993,,,,,,,,,,,,,,,764.4286615000001,764.4325181999993,765.3493730000009,764.4325181999993,764.4325181999993,768.2503144000002,f,0,3.8130277000000206,None,direct,16,"[17, 18, 17, 19, 16, 18, 16, 17, 16, 17, 16, 17, 16, 17, 15, 17, 16, 18, 17, 18, 15]",21,direct_gaze.png,f,0,2,results15,001,2026-04-14_12h30.48.896,mogelijke versie adaptive staircase builder,,2026.1.3,60.04740141895502,2026-04-14 12h30.49.180699 +0200,
12.5,ecc0,mid,35,0,35,j,0,3.514793300000747,None,0,1,1,1,35,0,35,0,768.3306334999997,,,,,,,,,,,,,,,768.3267125000002,768.3306334999997,769.2661444000005,768.3306334999997,768.3306334999997,771.8501355999997,j,0,3.514793300000747,None,left,17,"[17, 18, 17, 19, 16, 18, 16, 17, 16, 17, 16, 17, 16, 17, 15, 17, 16, 18, 17, 18, 15]",21,gaze_L_17.png,j,0,2,results15,001,2026-04-14_12h30.48.896,mogelijke versie adaptive staircase builder,,2026.1.3,60.04740141895502,2026-04-14 12h30.49.180699 +0200,
12.5,ecc0,mid,36,0,36,f,0,4.497397499999352,None,0,1,1,1,36,0,36,0,771.9318485999993,,,,,,,,,,,,,,,771.9277939000003,771.9318485999993,772.8498075999996,771.9318485999993,771.9318485999993,776.4328389000002,f,0,4.497397499999352,None,direct,18,"[17, 18, 17, 19, 16, 18, 16, 17, 16, 17, 16, 17, 16, 17, 15, 17, 16, 18, 17, 18, 15]",21,direct_gaze.png,f,0,2,results15,001,2026-04-14_12h30.48.896,mogelijke versie adaptive staircase builder,,2026.1.3,60.04740141895502,2026-04-14 12h30.49.180699 +0200,
12.5,ecc0,mid,37,0,37,f,1,2.9446650999998383,None,0,1,1,1,37,0,37,0,776.5245362999995,,,,,,,,,,,,,,,776.5206675999998,776.5245362999995,777.4331923999998,776.5245362999995,776.5245362999995,779.4828667000002,f,1,2.9446650999998383,None,right,19,"[17, 18, 17, 19, 16, 18, 16, 17, 16, 17, 16, 17, 16, 17, 15, 17, 16, 18, 17, 18, 15, 19]",22,gaze_R_19.png,f,1,2,results15,001,2026-04-14_12h30.48.896,mogelijke versie adaptive staircase builder,,2026.1.3,60.04740141895502,2026-04-14 12h30.49.180699 +0200,
12.5,ecc0,mid,38,0,38,f,1,3.9290686000003916,None,0,1,1,1,38,0,38,0,779.5644764000008,,,,,,,,,,,,,,,779.5606057999994,779.5644764000008,780.4827230999999,779.5644764000008,779.5644764000008,783.5000581000004,f,1,3.9290686000003916,None,right,18,"[17, 18, 17, 19, 16, 18, 16, 17, 16, 17, 16, 17, 16, 17, 15, 17, 16, 18, 17, 18, 15, 19]",22,gaze_R_18.png,f,1,2,results15,001,2026-04-14_12h30.48.896,mogelijke versie adaptive staircase builder,,2026.1.3,60.04740141895502,2026-04-14 12h30.49.180699 +0200,
12.5,ecc0,mid,39,0,39,j,0,3.000207999999475,None,0,1,1,1,39,0,39,0,783.5815777999996,,,,,,,,,,,,,,,783.5777892999995,783.5815777999996,784.5160470999999,783.5815777999996,783.5815777999996,786.5835318999998,j,0,3.000207999999475,None,left,17,"[17, 18, 17, 19, 16, 18, 16, 17, 16, 17, 16, 17, 16, 17, 15, 17, 16, 18, 17, 18, 15, 19, 17]",23,gaze_L_17.png,j,0,2,results15,001,2026-04-14_12h30.48.896,mogelijke versie adaptive staircase builder,,2026.1.3,60.04740141895502,2026-04-14 12h30.49.180699 +0200,
12.5,ecc0,mid,40,0,40,f,0,4.467931699999099,None,0,1,1,1,40,0,40,0,786.6651923999998,,,,,,,,,,,,,,,786.6612490999996,786.6651923999998,787.5831923000005,786.6651923999998,786.6651923999998,791.1492761999998,f,0,4.467931699999099,None,direct,18,"[17, 18, 17, 19, 16, 18, 16, 17, 16, 17, 16, 17, 16, 17, 15, 17, 16, 18, 17, 18, 15, 19, 17]",23,direct_gaze.png,f,0,2,results15,001,2026-04-14_12h30.48.896,mogelijke versie adaptive staircase builder,,2026.1.3,60.04740141895502,2026-04-14 12h30.49.180699 +0200,
12.5,ecc0,mid,41,0,41,j,1,4.422145799999271,None,0,1,1,1,41,0,41,0,791.2314031000005,,,,,,,,,,,,,,,791.2271806999997,791.2314031000005,792.1494294000004,791.2314031000005,791.2314031000005,795.6664619000003,j,1,4.422145799999271,None,direct,19,"[17, 18, 17, 19, 16, 18, 16, 17, 16, 17, 16, 17, 16, 17, 15, 17, 16, 18, 17, 18, 15, 19, 17, 19]",24,direct_gaze.png,j,1,2,results15,001,2026-04-14_12h30.48.896,mogelijke versie adaptive staircase builder,,2026.1.3,60.04740141895502,2026-04-14 12h30.49.180699 +0200,
12.5,ecc0,mid,42,0,42,j,1,3.5285337999994226,None,0,1,1,1,42,0,42,0,795.7487053000004,,,,,,,,,,,,,,,795.7447554999999,795.7487053000004,796.6662828000008,795.7487053000004,795.7487053000004,799.2828642000004,j,1,3.5285337999994226,None,direct,18,"[17, 18, 17, 19, 16, 18, 16, 17, 16, 17, 16, 17, 16, 17, 15, 17, 16, 18, 17, 18, 15, 19, 17, 19]",24,direct_gaze.png,j,1,2,results15,001,2026-04-14_12h30.48.896,mogelijke versie adaptive staircase builder,,2026.1.3,60.04740141895502,2026-04-14 12h30.49.180699 +0200,
12.5,ecc0,mid,43,0,43,f,0,3.6561268999994354,None,0,1,1,1,43,0,43,0,799.3654929999993,,,,,,,,,,,,,,,799.3614751999994,799.3654929999993,800.2828202000001,799.3654929999993,799.3654929999993,803.0334638000004,f,0,3.6561268999994354,None,direct,17,"[17, 18, 17, 19, 16, 18, 16, 17, 16, 17, 16, 17, 16, 17, 15, 17, 16, 18, 17, 18, 15, 19, 17, 19, 17]",25,direct_gaze.png,f,0,2,results15,001,2026-04-14_12h30.48.896,mogelijke versie adaptive staircase builder,,2026.1.3,60.04740141895502,2026-04-14 12h30.49.180699 +0200,
12.5,ecc0,mid,44,0,44,j,0,4.024324800000613,None,0,1,1,1,44,0,44,0,803.1171319999994,,,,,,,,,,,,,,,803.1131647000002,803.1171319999994,804.0331810000007,803.1171319999994,803.1171319999994,807.1498558999992,j,0,4.024324800000613,None,left,18,"[17, 18, 17, 19, 16, 18, 16, 17, 16, 17, 16, 17, 16, 17, 15, 17, 16, 18, 17, 18, 15, 19, 17, 19, 17]",25,gaze_L_18.png,j,0,2,results15,001,2026-04-14_12h30.48.896,mogelijke versie adaptive staircase builder,,2026.1.3,60.04740141895502,2026-04-14 12h30.49.180699 +0200,
12.5,ecc0,mid,45,0,45,j,1,3.5822681000008743,None,0,1,1,1,45,0,45,0,807.2313054999995,,,,,,,,,,,,,,,807.2268621000003,807.2313054999995,808.1498489999994,807.2313054999995,807.2313054999995,810.8168463999991,j,1,3.5822681000008743,None,direct,19,"[17, 18, 17, 19, 16, 18, 16, 17, 16, 17, 16, 17, 16, 17, 15, 17, 16, 18, 17, 18, 15, 19, 17, 19, 17, 19]",26,direct_gaze.png,j,1,2,results15,001,2026-04-14_12h30.48.896,mogelijke versie adaptive staircase builder,,2026.1.3,60.04740141895502,2026-04-14 12h30.49.180699 +0200,
12.5,ecc0,mid,46,0,46,j,0,3.6675895000007586,None,0,1,1,1,46,0,46,0,810.8977515000006,,,,,,,,,,,,,,,810.8937609000004,810.8977515000006,811.8164608999996,810.8977515000006,810.8977515000006,814.5668201999997,j,0,3.6675895000007586,None,right,18,"[17, 18, 17, 19, 16, 18, 16, 17, 16, 17, 16, 17, 16, 17, 15, 17, 16, 18, 17, 18, 15, 19, 17, 19, 17, 19, 18]",27,gaze_R_18.png,j,0,2,results15,001,2026-04-14_12h30.48.896,mogelijke versie adaptive staircase builder,,2026.1.3,60.04740141895502,2026-04-14 12h30.49.180699 +0200,
12.5,ecc0,mid,47,0,47,f,1,3.3784758000001602,None,0,1,1,1,47,0,47,0,814.6505711999998,,,,,,,,,,,,,,,814.6466667999994,814.6505711999998,815.5826450999994,814.6505711999998,814.6505711999998,818.0328317000003,f,1,3.3784758000001602,None,left,19,"[17, 18, 17, 19, 16, 18, 16, 17, 16, 17, 16, 17, 16, 17, 15, 17, 16, 18, 17, 18, 15, 19, 17, 19, 17, 19, 18, 19]",28,gaze_L_19.png,f,1,2,results15,001,2026-04-14_12h30.48.896,mogelijke versie adaptive staircase builder,,2026.1.3,60.04740141895502,2026-04-14 12h30.49.180699 +0200,
12.5,ecc0,mid,48,0,48,j,1,3.26694150000003,None,0,1,1,1,48,0,48,0,818.1146599999993,,,,,,,,,,,,,,,818.1104025000004,818.1146599999993,819.0329810999992,818.1146599999993,818.1146599999993,821.3833386000006,j,1,3.26694150000003,None,direct,18,"[17, 18, 17, 19, 16, 18, 16, 17, 16, 17, 16, 17, 16, 17, 15, 17, 16, 18, 17, 18, 15, 19, 17, 19, 17, 19, 18, 19]",28,direct_gaze.png,j,1,2,results15,001,2026-04-14_12h30.48.896,mogelijke versie adaptive staircase builder,,2026.1.3,60.04740141895502,2026-04-14 12h30.49.180699 +0200,
12.5,ecc0,mid,49,0,49,f,1,2.0431131000004825,None,0,1,1,1,49,0,49,0,821.4662303000005,,,,,,,,,,,,,,,821.4623315999997,821.4662303000005,822.3827607999992,821.4662303000005,821.4662303000005,823.5164896000006,f,1,2.0431131000004825,None,left,17,"[17, 18, 17, 19, 16, 18, 16, 17, 16, 17, 16, 17, 16, 17, 15, 17, 16, 18, 17, 18, 15, 19, 17, 19, 17, 19, 18, 19]",28,gaze_L_17.png,f,1,2,results15,001,2026-04-14_12h30.48.896,mogelijke versie adaptive staircase builder,,2026.1.3,60.04740141895502,2026-04-14 12h30.49.180699 +0200,
12.5,ecc0,mid,50,0,50,f,0,4.1904668000006495,None,0,1,1,1,50,0,50,0,823.5988947999995,,,,,,,,,,,,,,,823.5947686,823.5988947999995,824.5165058000002,823.5988947999995,823.5988947999995,827.8001523000003,f,0,4.1904668000006495,None,direct,16,"[17, 18, 17, 19, 16, 18, 16, 17, 16, 17, 16, 17, 16, 17, 15, 17, 16, 18, 17, 18, 15, 19, 17, 19, 17, 19, 18, 19, 16]",29,direct_gaze.png,f,0,2,results15,001,2026-04-14_12h30.48.896,mogelijke versie adaptive staircase builder,,2026.1.3,60.04740141895502,2026-04-14 12h30.49.180699 +0200,
12.5,ecc0,mid,51,0,51,f,1,5.248860399999103,None,0,1,1,1,51,0,51,0,827.8841893999997,,,,,,,,,,,,,,,827.8801057000001,827.8841893999997,828.7996024000004,827.8841893999997,827.8841893999997,833.1499208000005,f,1,5.248860399999103,None,left,17,"[17, 18, 17, 19, 16, 18, 16, 17, 16, 17, 16, 17, 16, 17, 15, 17, 16, 18, 17, 18, 15, 19, 17, 19, 17, 19, 18, 19, 16, 17]",30,gaze_L_17.png,f,1,2,results15,001,2026-04-14_12h30.48.896,mogelijke versie adaptive staircase builder,,2026.1.3,60.04740141895502,2026-04-14 12h30.49.180699 +0200,
12.5,ecc0,mid,52,0,52,j,0,3.694842900000367,None,0,1,1,1,52,0,52,0,833.2382063000005,,,,,,,,,,,,,,,833.2342229000005,833.2382063000005,834.1495885000004,833.2382063000005,833.2382063000005,836.9496782000006,j,0,3.694842900000367,None,left,16,"[17, 18, 17, 19, 16, 18, 16, 17, 16, 17, 16, 17, 16, 17, 15, 17, 16, 18, 17, 18, 15, 19, 17, 19, 17, 19, 18, 19, 16, 17, 16]",31,gaze_L_16.png,j,0,2,results15,001,2026-04-14_12h30.48.896,mogelijke versie adaptive staircase builder,,2026.1.3,60.04740141895502,2026-04-14 12h30.49.180699 +0200,
12.5,ecc0,mid,53,0,53,f,1,3.8372171000009985,None,0,1,1,1,53,0,53,0,837.0319455999997,,,,,,,,,,,,,,,837.0275201000004,837.0319455999997,837.9494347,837.0319455999997,837.0319455999997,840.8829151000009,f,1,3.8372171000009985,None,left,17,"[17, 18, 17, 19, 16, 18, 16, 17, 16, 17, 16, 17, 16, 17, 15, 17, 16, 18, 17, 18, 15, 19, 17, 19, 17, 19, 18, 19, 16, 17, 16, 17]",32,gaze_L_17.png,f,1,2,results15,001,2026-04-14_12h30.48.896,mogelijke versie adaptive staircase builder,,2026.1.3,60.04740141895502,2026-04-14 12h30.49.180699 +0200,
12.5,ecc0,mid,54,0,54,f,1,5.183506100000159,None,0,1,1,1,54,0,54,0,840.9657975000009,,,,,,,,,,,,,,,840.9616477,840.9657975000009,841.8832784000006,840.9657975000009,840.9657975000009,846.1501184000008,f,1,5.183506100000159,None,left,16,"[17, 18, 17, 19, 16, 18, 16, 17, 16, 17, 16, 17, 16, 17, 15, 17, 16, 18, 17, 18, 15, 19, 17, 19, 17, 19, 18, 19, 16, 17, 16, 17]",32,gaze_L_16.png,f,1,2,results15,001,2026-04-14_12h30.48.896,mogelijke versie adaptive staircase builder,,2026.1.3,60.04740141895502,2026-04-14 12h30.49.180699 +0200,
12.5,ecc0,mid,55,0,55,j,0,4.318478299999697,None,0,1,1,1,55,0,55,0,846.2307278000007,,,,,,,,,,,,,,,846.2267568999996,846.2307278000007,847.1499786000004,846.2307278000007,846.2307278000007,850.5496189999994,j,0,4.318478299999697,None,right,15,"[17, 18, 17, 19, 16, 18, 16, 17, 16, 17, 16, 17, 16, 17, 15, 17, 16, 18, 17, 18, 15, 19, 17, 19, 17, 19, 18, 19, 16, 17, 16, 17, 15]",33,gaze_R_15.png,j,0,2,results15,001,2026-04-14_12h30.48.896,mogelijke versie adaptive staircase builder,,2026.1.3,60.04740141895502,2026-04-14 12h30.49.180699 +0200,
12.5,ecc0,mid,56,0,56,j,0,4.8136703000000125,None,0,1,1,1,56,0,56,0,850.6314831,,,,,,,,,,,,,,,850.6274888000007,850.6314831,851.5494796000003,850.6314831,850.6314831,855.4496008000006,j,0,4.8136703000000125,None,right,16,"[17, 18, 17, 19, 16, 18, 16, 17, 16, 17, 16, 17, 16, 17, 15, 17, 16, 18, 17, 18, 15, 19, 17, 19, 17, 19, 18, 19, 16, 17, 16, 17, 15]",33,gaze_R_16.png,j,0,2,results15,001,2026-04-14_12h30.48.896,mogelijke versie adaptive staircase builder,,2026.1.3,60.04740141895502,2026-04-14 12h30.49.180699 +0200,
12.5,ecc0,mid,57,0,57,f,1,4.672566999999617,None,0,1,1,1,57,0,57,0,855.5326098999994,,,,,,,,,,,,,,,855.5285387000004,855.5326098999994,856.4499486000004,855.5326098999994,855.5326098999994,860.2163161000008,f,1,4.672566999999617,None,right,17,"[17, 18, 17, 19, 16, 18, 16, 17, 16, 17, 16, 17, 16, 17, 15, 17, 16, 18, 17, 18, 15, 19, 17, 19, 17, 19, 18, 19, 16, 17, 16, 17, 15, 17]",34,gaze_R_17.png,f,1,2,results15,001,2026-04-14_12h30.48.896,mogelijke versie adaptive staircase builder,,2026.1.3,60.04740141895502,2026-04-14 12h30.49.180699 +0200,
12.5,ecc0,mid,58,0,58,f,1,4.218121800000517,None,0,1,1,1,58,0,58,0,860.2990289000008,,,,,,,,,,,,,,,860.2948732000004,860.2990289000008,861.2161914000008,860.2990289000008,860.2990289000008,864.5329504000001,f,1,4.218121800000517,None,left,16,"[17, 18, 17, 19, 16, 18, 16, 17, 16, 17, 16, 17, 16, 17, 15, 17, 16, 18, 17, 18, 15, 19, 17, 19, 17, 19, 18, 19, 16, 17, 16, 17, 15, 17]",34,gaze_L_16.png,f,1,2,results15,001,2026-04-14_12h30.48.896,mogelijke versie adaptive staircase builder,,2026.1.3,60.04740141895502,2026-04-14 12h30.49.180699 +0200,
12.5,ecc0,mid,59,0,59,f,0,3.998822800000198,None,0,1,1,1,59,0,59,0,864.6143315000008,,,,,,,,,,,,,,,864.6103399000003,864.6143315000008,865.5332727999994,864.6143315000008,864.6143315000008,868.6161697000007,f,0,3.998822800000198,None,direct,15,"[17, 18, 17, 19, 16, 18, 16, 17, 16, 17, 16, 17, 16, 17, 15, 17, 16, 18, 17, 18, 15, 19, 17, 19, 17, 19, 18, 19, 16, 17, 16, 17, 15, 17, 15]",35,direct_gaze.png,f,0,2,results15,001,2026-04-14_12h30.48.896,mogelijke versie adaptive staircase builder,,2026.1.3,60.04740141895502,2026-04-14 12h30.49.180699 +0200,
12.5,ecc0,mid,1,1,0,,,,,0,1,1,1,,,,,,,,,,,,,,,,,,,,,,,,,,,,,,,,,,,,,,results15,001,2026-04-14_12h30.48.896,mogelijke versie adaptive staircase builder,,2026.1.3,60.04740141895502,2026-04-14 12h30.49.180699 +0200,
20.5,ecc10neg,right,0,0,0,f,1,2.695221900001343,None,0,2,2,2,0,0,0,0,868.7338870999993,,,,,,,,,,,,,868.6186397000001,868.6186696999994,868.7234317999992,868.7338870999993,868.7338870999993,869.6328169000008,868.7338870999993,871.4329336999999,f,1,2.695221900001343,None,right,20,[],0,shiftedgaze_R_20.png,f,1,3,results15,001,2026-04-14_12h30.48.896,mogelijke versie adaptive staircase builder,,2026.1.3,60.04740141895502,2026-04-14 12h30.49.180699 +0200,
20.5,ecc10neg,right,1,0,1,j,1,1.8693931999987399,None,0,2,2,2,1,0,1,0,871.5357629999999,,,,,,,,,,,,,,,871.5247813999995,871.5357629999999,871.5357629999999,872.4327410999995,871.5357629999999,873.4163427999993,j,1,1.8693931999987399,None,direct,19,[],0,shifteddirectgaze.png,j,1,3,results15,001,2026-04-14_12h30.48.896,mogelijke versie adaptive staircase builder,,2026.1.3,60.04740141895502,2026-04-14 12h30.49.180699 +0200,
20.5,ecc10neg,right,2,0,2,j,1,2.408107799999925,None,0,2,2,2,2,0,2,0,873.5010473999992,,,,,,,,,,,,,,,873.4968907000002,873.5010473999992,873.5010473999992,874.4161236,873.5010473999992,875.9162784,j,1,2.408107799999925,None,direct,18,[],0,shifteddirectgaze.png,j,1,3,results15,001,2026-04-14_12h30.48.896,mogelijke versie adaptive staircase builder,,2026.1.3,60.04740141895502,2026-04-14 12h30.49.180699 +0200,
20.5,ecc10neg,right,3,0,3,j,0,4.16245699999854,None,0,2,2,2,3,0,3,0,876.0107174999994,,,,,,,,,,,,,,,876.0067959999997,876.0107174999994,876.0107174999994,876.9163226000001,876.0107174999994,880.1829643000001,j,0,4.16245699999854,None,left,17,[17],1,shiftedgaze_L_17.png,j,0,3,results15,001,2026-04-14_12h30.48.896,mogelijke versie adaptive staircase builder,,2026.1.3,60.04740141895502,2026-04-14 12h30.49.180699 +0200,
20.5,ecc10neg,right,4,0,4,j,0,2.221044799998708,None,0,2,2,2,4,0,4,0,880.2721545999993,,,,,,,,,,,,,,,880.2679695000006,880.2721545999993,880.2721545999993,881.1827759999996,880.2721545999993,882.4995992000004,j,0,2.221044799998708,None,left,18,[17],1,shiftedgaze_L_18.png,j,0,3,results15,001,2026-04-14_12h30.48.896,mogelijke versie adaptive staircase builder,,2026.1.3,60.04740141895502,2026-04-14 12h30.49.180699 +0200,
20.5,ecc10neg,right,5,0,5,f,0,2.9675227000007,None,0,2,2,2,5,0,5,0,882.5818514999992,,,,,,,,,,,,,,,882.5778991000006,882.5818514999992,882.5818514999992,883.4994251999997,882.5818514999992,885.5502612,f,0,2.9675227000007,None,direct,19,[17],1,shifteddirectgaze.png,f,0,3,results15,001,2026-04-14_12h30.48.896,mogelijke versie adaptive staircase builder,,2026.1.3,60.04740141895502,2026-04-14 12h30.49.180699 +0200,
20.5,ecc10neg,right,6,0,6,f,1,2.8226367000006576,None,0,2,2,2,6,0,6,0,885.6545461000005,,,,,,,,,,,,,,,885.6445559999993,885.6545461000005,885.6545461000005,886.566116,885.6545461000005,888.4835382000001,f,1,2.8226367000006576,None,right,20,"[17, 20]",2,shiftedgaze_R_20.png,f,1,3,results15,001,2026-04-14_12h30.48.896,mogelijke versie adaptive staircase builder,,2026.1.3,60.04740141895502,2026-04-14 12h30.49.180699 +0200,
20.5,ecc10neg,right,7,0,7,f,0,3.00636459999987,None,0,2,2,2,7,0,7,0,888.5828468,,,,,,,,,,,,,,,888.5720459000004,888.5828468,888.5828468,889.4993047000007,888.5828468,891.5995791000005,f,0,3.00636459999987,None,direct,19,"[17, 20, 19]",3,shifteddirectgaze.png,f,0,3,results15,001,2026-04-14_12h30.48.896,mogelijke versie adaptive staircase builder,,2026.1.3,60.04740141895502,2026-04-14 12h30.49.180699 +0200,
20.5,ecc10neg,right,8,0,8,j,0,2.8205619000000297,None,0,2,2,2,8,0,8,0,891.6966554999999,,,,,,,,,,,,,,,891.6871465999993,891.6966554999999,891.6966554999999,892.5995674000005,891.6966554999999,894.5327815,j,0,2.8205619000000297,None,right,20,"[17, 20, 19]",3,shiftedgaze_R_20.png,j,0,3,results15,001,2026-04-14_12h30.48.896,mogelijke versie adaptive staircase builder,,2026.1.3,60.04740141895502,2026-04-14 12h30.49.180699 +0200,
20.5,ecc10neg,right,9,0,9,f,1,2.428904300000795,None,0,2,2,2,9,0,9,0,894.6244177000008,,,,,,,,,,,,,,,894.6204139000001,894.6244177000008,894.6244177000008,895.5327646999995,894.6244177000008,897.0667573999999,f,1,2.428904300000795,None,right,20,"[17, 20, 19, 20]",4,shiftedgaze_R_20.png,f,1,3,results15,001,2026-04-14_12h30.48.896,mogelijke versie adaptive staircase builder,,2026.1.3,60.04740141895502,2026-04-14 12h30.49.180699 +0200,
20.5,ecc10neg,right,10,0,10,f,0,5.198759900000368,None,0,2,2,2,10,0,10,0,897.1588157999995,,,,,,,,,,,,,,,897.1490283999992,897.1588157999995,897.1588157999995,898.0664479999996,897.1588157999995,902.3668092999997,f,0,5.198759900000368,None,direct,19,"[17, 20, 19, 20, 19]",5,shifteddirectgaze.png,f,0,3,results15,001,2026-04-14_12h30.48.896,mogelijke versie adaptive staircase builder,,2026.1.3,60.04740141895502,2026-04-14 12h30.49.180699 +0200,
20.5,ecc10neg,right,11,0,11,j,0,4.7108781000006275,None,0,2,2,2,11,0,11,0,902.4623840999993,,,,,,,,,,,,,,,902.4578693000003,902.4623840999993,902.4623840999993,903.3666121000006,902.4623840999993,907.1834383000005,j,0,4.7108781000006275,None,left,20,"[17, 20, 19, 20, 19]",5,shiftedgaze_L_20.png,j,0,3,results15,001,2026-04-14_12h30.48.896,mogelijke versie adaptive staircase builder,,2026.1.3,60.04740141895502,2026-04-14 12h30.49.180699 +0200,
20.5,ecc10neg,right,12,0,12,f,1,2.984573300000193,None,0,2,2,2,12,0,12,0,907.2845856999993,,,,,,,,,,,,,,,907.2746815999999,907.2845856999993,907.2845856999993,908.1991459000001,907.2845856999993,910.2829077000006,f,1,2.984573300000193,None,right,20,"[17, 20, 19, 20, 19, 20]",6,shiftedgaze_R_20.png,f,1,3,results15,001,2026-04-14_12h30.48.896,mogelijke versie adaptive staircase builder,,2026.1.3,60.04740141895502,2026-04-14 12h30.49.180699 +0200,
20.5,ecc10neg,right,13,0,13,f,0,3.3865040999990015,None,0,2,2,2,13,0,13,0,910.3792637000006,,,,,,,,,,,,,,,910.3685268000008,910.3792637000006,910.3792637000006,911.2827094000004,910.3792637000006,913.7666282999999,f,0,3.3865040999990015,None,direct,19,"[17, 20, 19, 20, 19, 20, 19]",7,shifteddirectgaze.png,f,0,3,results15,001,2026-04-14_12h30.48.896,mogelijke versie adaptive staircase builder,,2026.1.3,60.04740141895502,2026-04-14 12h30.49.180699 +0200,
20.5,ecc10neg,right,14,0,14,f,0,3.9073307999988174,None,0,2,2,2,14,0,14,0,913.8500578999992,,,,,,,,,,,,,,,913.8462497,913.8500578999992,913.8500578999992,914.7665213,913.8500578999992,917.7665128000008,f,0,3.9073307999988174,None,direct,20,"[17, 20, 19, 20, 19, 20, 19]",7,shifteddirectgaze.png,f,0,3,results15,001,2026-04-14_12h30.48.896,mogelijke versie adaptive staircase builder,,2026.1.3,60.04740141895502,2026-04-14 12h30.49.180699 +0200,
20.5,ecc10neg,right,15,0,15,f,1,5.9382343999986915,None,0,2,2,2,15,0,15,0,917.8670043999991,,,,,,,,,,,,,,,917.8575139000004,917.8670043999991,917.8670043999991,918.7663266,917.8670043999991,923.8168102,f,1,5.9382343999986915,None,right,20,"[17, 20, 19, 20, 19, 20, 19, 20]",8,shiftedgaze_R_20.png,f,1,3,results15,001,2026-04-14_12h30.48.896,mogelijke versie adaptive staircase builder,,2026.1.3,60.04740141895502,2026-04-14 12h30.49.180699 +0200,
20.5,ecc10neg,right,16,0,16,f,0,3.9840619000005972,None,0,2,2,2,16,0,16,0,923.9095493000004,,,,,,,,,,,,,,,923.8994086999992,923.9095493000004,923.9095493000004,924.8165059000003,923.9095493000004,927.8997982000001,f,0,3.9840619000005972,None,direct,19,"[17, 20, 19, 20, 19, 20, 19, 20, 19]",9,shifteddirectgaze.png,f,0,3,results15,001,2026-04-14_12h30.48.896,mogelijke versie adaptive staircase builder,,2026.1.3,60.04740141895502,2026-04-14 12h30.49.180699 +0200,
20.5,ecc10neg,right,17,0,17,f,0,1.9195393999998487,None,0,2,2,2,17,0,17,0,927.9818446000008,,,,,,,,,,,,,,,927.9764422999997,927.9818446000008,927.9818446000008,928.8998788999997,927.9818446000008,929.9168236999994,f,0,1.9195393999998487,None,direct,20,"[17, 20, 19, 20, 19, 20, 19, 20, 19]",9,shifteddirectgaze.png,f,0,3,results15,001,2026-04-14_12h30.48.896,mogelijke versie adaptive staircase builder,,2026.1.3,60.04740141895502,2026-04-14 12h30.49.180699 +0200,
20.5,ecc10neg,right,18,0,18,j,1,1.8544626000002609,None,0,2,2,2,18,0,18,0,929.9991367999992,,,,,,,,,,,,,,,929.9949849000004,929.9991367999992,929.9991367999992,930.9165236000008,929.9991367999992,931.8668201,j,1,1.8544626000002609,None,direct,20,"[17, 20, 19, 20, 19, 20, 19, 20, 19, 20]",10,shifteddirectgaze.png,j,1,3,results15,001,2026-04-14_12h30.48.896,mogelijke versie adaptive staircase builder,,2026.1.3,60.04740141895502,2026-04-14 12h30.49.180699 +0200,
20.5,ecc10neg,right,19,0,19,j,1,4.144439300000158,None,0,2,2,2,19,0,19,0,931.9491509,,,,,,,,,,,,,,,931.9451929000006,931.9491509,931.9491509,932.8664950000002,931.9491509,936.0998677000007,j,1,4.144439300000158,None,direct,19,"[17, 20, 19, 20, 19, 20, 19, 20, 19, 20]",10,shifteddirectgaze.png,j,1,3,results15,001,2026-04-14_12h30.48.896,mogelijke versie adaptive staircase builder,,2026.1.3,60.04740141895502,2026-04-14 12h30.49.180699 +0200,
20.5,ecc10neg,right,20,0,20,f,1,2.9572122000008676,None,0,2,2,2,20,0,20,0,936.2083751000009,,,,,,,,,,,,,,,936.1988075000008,936.2083751000009,936.2083751000009,937.0995096999995,936.2083751000009,939.1663066000001,f,1,2.9572122000008676,None,right,18,"[17, 20, 19, 20, 19, 20, 19, 20, 19, 20]",10,shiftedgaze_R_18.png,f,1,3,results15,001,2026-04-14_12h30.48.896,mogelijke versie adaptive staircase builder,,2026.1.3,60.04740141895502,2026-04-14 12h30.49.180699 +0200,
20.5,ecc10neg,right,21,0,21,f,0,5.124426599999424,None,0,2,2,2,21,0,21,0,939.2647173999994,,,,,,,,,,,,,,,939.2535876000002,939.2647173999994,939.2647173999994,940.1660658000001,939.2647173999994,944.3994423000004,f,0,5.124426599999424,None,direct,17,"[17, 20, 19, 20, 19, 20, 19, 20, 19, 20, 17]",11,shifteddirectgaze.png,f,0,3,results15,001,2026-04-14_12h30.48.896,mogelijke versie adaptive staircase builder,,2026.1.3,60.04740141895502,2026-04-14 12h30.49.180699 +0200,
20.5,ecc10neg,right,22,0,22,f,1,4.084232000001066,None,0,2,2,2,22,0,22,0,944.4813336999996,,,,,,,,,,,,,,,944.4774479999996,944.4813336999996,944.4813336999996,945.3992472000009,944.4813336999996,948.5661813999996,f,1,4.084232000001066,None,left,18,"[17, 20, 19, 20, 19, 20, 19, 20, 19, 20, 17, 18]",12,shiftedgaze_L_18.png,f,1,3,results15,001,2026-04-14_12h30.48.896,mogelijke versie adaptive staircase builder,,2026.1.3,60.04740141895502,2026-04-14 12h30.49.180699 +0200,
20.5,ecc10neg,right,23,0,23,f,1,3.2465517000000546,None,0,2,2,2,23,0,23,0,948.6469885000006,,,,,,,,,,,,,,,948.6429982999998,948.6469885000006,948.6469885000006,949.5661516,948.6469885000006,951.9002323000004,f,1,3.2465517000000546,None,left,17,"[17, 20, 19, 20, 19, 20, 19, 20, 19, 20, 17, 18]",12,shiftedgaze_L_17.png,f,1,3,results15,001,2026-04-14_12h30.48.896,mogelijke versie adaptive staircase builder,,2026.1.3,60.04740141895502,2026-04-14 12h30.49.180699 +0200,
20.5,ecc10neg,right,24,0,24,j,1,4.3188685000004625,None,0,2,2,2,24,0,24,0,951.9822844000009,,,,,,,,,,,,,,,951.978282,951.9822844000009,951.9822844000009,952.8997029999991,951.9822844000009,956.3163162000001,j,1,4.3188685000004625,None,direct,16,"[17, 20, 19, 20, 19, 20, 19, 20, 19, 20, 17, 18]",12,shifteddirectgaze.png,j,1,3,results15,001,2026-04-14_12h30.48.896,mogelijke versie adaptive staircase builder,,2026.1.3,60.04740141895502,2026-04-14 12h30.49.180699 +0200,
20.5,ecc10neg,right,25,0,25,j,0,3.6878611000011006,None,0,2,2,2,25,0,25,0,956.4053101999998,,,,,,,,,,,,,,,956.4012411999993,956.4053101999998,956.4053101999998,957.3161287000003,956.4053101999998,960.0996367000007,j,0,3.6878611000011006,None,right,15,"[17, 20, 19, 20, 19, 20, 19, 20, 19, 20, 17, 18, 15]",13,shiftedgaze_R_15.png,j,0,3,results15,001,2026-04-14_12h30.48.896,mogelijke versie adaptive staircase builder,,2026.1.3,60.04740141895502,2026-04-14 12h30.49.180699 +0200,
20.5,ecc10neg,right,26,0,26,j,0,2.4480547000002844,None,0,2,2,2,26,0,26,0,960.1891097999996,,,,,,,,,,,,,,,960.1851576999998,960.1891097999996,960.1891097999996,961.0994561999996,960.1891097999996,962.6496599000002,j,0,2.4480547000002844,None,left,16,"[17, 20, 19, 20, 19, 20, 19, 20, 19, 20, 17, 18, 15]",13,shiftedgaze_L_16.png,j,0,3,results15,001,2026-04-14_12h30.48.896,mogelijke versie adaptive staircase builder,,2026.1.3,60.04740141895502,2026-04-14 12h30.49.180699 +0200,
20.5,ecc10neg,right,27,0,27,f,1,2.98176550000062,None,0,2,2,2,27,0,27,0,962.7594174999995,,,,,,,,,,,,,,,962.7491377000006,962.7594174999995,962.7594174999995,963.6498618999995,962.7594174999995,965.7496480000009,f,1,2.98176550000062,None,right,17,"[17, 20, 19, 20, 19, 20, 19, 20, 19, 20, 17, 18, 15, 17]",14,shiftedgaze_R_17.png,f,1,3,results15,001,2026-04-14_12h30.48.896,mogelijke versie adaptive staircase builder,,2026.1.3,60.04740141895502,2026-04-14 12h30.49.180699 +0200,
20.5,ecc10neg,right,28,0,28,f,1,4.059807600000568,None,0,2,2,2,28,0,28,0,965.8494649000004,,,,,,,,,,,,,,,965.8443425000005,965.8494649000004,965.8494649000004,966.7500330000003,965.8494649000004,969.9162988000007,f,1,4.059807600000568,None,right,16,"[17, 20, 19, 20, 19, 20, 19, 20, 19, 20, 17, 18, 15, 17]",14,shiftedgaze_R_16.png,f,1,3,results15,001,2026-04-14_12h30.48.896,mogelijke versie adaptive staircase builder,,2026.1.3,60.04740141895502,2026-04-14 12h30.49.180699 +0200,
20.5,ecc10neg,right,29,0,29,f,0,1.8696538999993209,None,0,2,2,2,29,0,29,0,970.0074896999995,,,,,,,,,,,,,,,969.9966867999992,970.0074896999995,970.0074896999995,970.9161182000007,970.0074896999995,971.8829769999993,f,0,1.8696538999993209,None,direct,15,"[17, 20, 19, 20, 19, 20, 19, 20, 19, 20, 17, 18, 15, 17, 15]",15,shifteddirectgaze.png,f,0,3,results15,001,2026-04-14_12h30.48.896,mogelijke versie adaptive staircase builder,,2026.1.3,60.04740141895502,2026-04-14 12h30.49.180699 +0200,
20.5,ecc10neg,right,30,0,30,f,1,2.06529959999898,None,0,2,2,2,30,0,30,0,971.9878692999991,,,,,,,,,,,,,,,971.9775817000009,971.9878692999991,971.9878692999991,972.8833842000004,971.9878692999991,974.0663719000004,f,1,2.06529959999898,None,right,16,"[17, 20, 19, 20, 19, 20, 19, 20, 19, 20, 17, 18, 15, 17, 15, 16]",16,shiftedgaze_R_16.png,f,1,3,results15,001,2026-04-14_12h30.48.896,mogelijke versie adaptive staircase builder,,2026.1.3,60.04740141895502,2026-04-14 12h30.49.180699 +0200,
20.5,ecc10neg,right,31,0,31,f,1,4.771932800000286,None,0,2,2,2,31,0,31,0,974.1611398000005,,,,,,,,,,,,,,,974.1506888999993,974.1611398000005,974.1611398000005,975.0661194000004,974.1611398000005,978.9497702000008,f,1,4.771932800000286,None,right,15,"[17, 20, 19, 20, 19, 20, 19, 20, 19, 20, 17, 18, 15, 17, 15, 16]",16,shiftedgaze_R_15.png,f,1,3,results15,001,2026-04-14_12h30.48.896,mogelijke versie adaptive staircase builder,,2026.1.3,60.04740141895502,2026-04-14 12h30.49.180699 +0200,
20.5,ecc10neg,right,32,0,32,j,1,3.9304148999999597,None,0,2,2,2,32,0,32,0,979.0347624000005,,,,,,,,,,,,,,,979.0309309000004,979.0347624000005,979.0347624000005,979.9494565000005,979.0347624000005,982.9667043999998,j,1,3.9304148999999597,None,direct,14,"[17, 20, 19, 20, 19, 20, 19, 20, 19, 20, 17, 18, 15, 17, 15, 16]",16,shifteddirectgaze.png,j,1,3,results15,001,2026-04-14_12h30.48.896,mogelijke versie adaptive staircase builder,,2026.1.3,60.04740141895502,2026-04-14 12h30.49.180699 +0200,
20.5,ecc10neg,right,33,0,33,f,1,3.3595210000003135,None,0,2,2,2,33,0,33,0,983.0616441999991,,,,,,,,,,,,,,,983.0569863000001,983.0616441999991,983.0616441999991,983.9660605999998,983.0616441999991,986.4330098999999,f,1,3.3595210000003135,None,right,13,"[17, 20, 19, 20, 19, 20, 19, 20, 19, 20, 17, 18, 15, 17, 15, 16]",16,shiftedgaze_R_13.png,f,1,3,results15,001,2026-04-14_12h30.48.896,mogelijke versie adaptive staircase builder,,2026.1.3,60.04740141895502,2026-04-14 12h30.49.180699 +0200,
20.5,ecc10neg,right,34,0,34,j,0,4.777993300000162,None,0,2,2,2,34,0,34,0,986.5231808000008,,,,,,,,,,,,,,,986.5191677000003,986.5231808000008,986.5231808000008,987.4330176999993,986.5231808000008,991.3163048000006,j,0,4.777993300000162,None,left,12,"[17, 20, 19, 20, 19, 20, 19, 20, 19, 20, 17, 18, 15, 17, 15, 16, 12]",17,shiftedgaze_L_12.png,j,0,3,results15,001,2026-04-14_12h30.48.896,mogelijke versie adaptive staircase builder,,2026.1.3,60.04740141895502,2026-04-14 12h30.49.180699 +0200,
20.5,ecc10neg,right,35,0,35,f,0,3.405247500000769,None,0,2,2,2,35,0,35,0,991.3998429999992,,,,,,,,,,,,,,,991.3959083000009,991.3998429999992,991.3998429999992,992.3161065999993,991.3998429999992,994.8163198000002,f,0,3.405247500000769,None,direct,13,"[17, 20, 19, 20, 19, 20, 19, 20, 19, 20, 17, 18, 15, 17, 15, 16, 12]",17,shifteddirectgaze.png,f,0,3,results15,001,2026-04-14_12h30.48.896,mogelijke versie adaptive staircase builder,,2026.1.3,60.04740141895502,2026-04-14 12h30.49.180699 +0200,
20.5,ecc10neg,right,36,0,36,f,0,2.947570700000142,None,0,2,2,2,36,0,36,0,994.8979854999998,,,,,,,,,,,,,,,994.8939083999994,994.8979854999998,994.8979854999998,995.8161421000004,994.8979854999998,997.8502695000006,f,0,2.947570700000142,None,direct,14,"[17, 20, 19, 20, 19, 20, 19, 20, 19, 20, 17, 18, 15, 17, 15, 16, 12]",17,shifteddirectgaze.png,f,0,3,results15,001,2026-04-14_12h30.48.896,mogelijke versie adaptive staircase builder,,2026.1.3,60.04740141895502,2026-04-14 12h30.49.180699 +0200,
20.5,ecc10neg,right,37,0,37,f,1,3.6666083999989496,None,0,2,2,2,37,0,37,0,997.9385708999998,,,,,,,,,,,,,,,997.9346525000001,997.9385708999998,997.9385708999998,998.8496582000007,997.9385708999998,1001.6163338000006,f,1,3.6666083999989496,None,left,15,"[17, 20, 19, 20, 19, 20, 19, 20, 19, 20, 17, 18, 15, 17, 15, 16, 12, 15]",18,shiftedgaze_L_15.png,f,1,3,results15,001,2026-04-14_12h30.48.896,mogelijke versie adaptive staircase builder,,2026.1.3,60.04740141895502,2026-04-14 12h30.49.180699 +0200,
20.5,ecc10neg,right,38,0,38,f,1,3.243207199999233,None,0,2,2,2,38,0,38,0,1001.7060409000005,,,,,,,,,,,,,,,1001.7021153000005,1001.7060409000005,1001.7060409000005,1002.6160548999997,1001.7060409000005,1004.9495674000009,f,1,3.243207199999233,None,right,14,"[17, 20, 19, 20, 19, 20, 19, 20, 19, 20, 17, 18, 15, 17, 15, 16, 12, 15]",18,shiftedgaze_R_14.png,f,1,3,results15,001,2026-04-14_12h30.48.896,mogelijke versie adaptive staircase builder,,2026.1.3,60.04740141895502,2026-04-14 12h30.49.180699 +0200,
20.5,ecc10neg,right,39,0,39,j,0,2.2692020000013144,None,0,2,2,2,39,0,39,0,1005.0318862000004,,,,,,,,,,,,,,,1005.0278469000004,1005.0318862000004,1005.0318862000004,1005.9499579000003,1005.0318862000004,1007.3163428000007,j,0,2.2692020000013144,None,right,13,"[17, 20, 19, 20, 19, 20, 19, 20, 19, 20, 17, 18, 15, 17, 15, 16, 12, 15, 13]",19,shiftedgaze_R_13.png,j,0,3,results15,001,2026-04-14_12h30.48.896,mogelijke versie adaptive staircase builder,,2026.1.3,60.04740141895502,2026-04-14 12h30.49.180699 +0200,
20.5,ecc10neg,right,40,0,40,f,0,3.2636093000000983,None,0,2,2,2,40,0,40,0,1007.3979889000002,,,,,,,,,,,,,,,1007.3938840999999,1007.3979889000002,1007.3979889000002,1008.3161154000009,1007.3979889000002,1010.6669380000003,f,0,3.2636093000000983,None,direct,14,"[17, 20, 19, 20, 19, 20, 19, 20, 19, 20, 17, 18, 15, 17, 15, 16, 12, 15, 13]",19,shifteddirectgaze.png,f,0,3,results15,001,2026-04-14_12h30.48.896,mogelijke versie adaptive staircase builder,,2026.1.3,60.04740141895502,2026-04-14 12h30.49.180699 +0200,
20.5,ecc10neg,right,41,0,41,f,1,3.9605736000012257,None,0,2,2,2,41,0,41,0,1010.7490521,,,,,,,,,,,,,,,1010.7449856999992,1010.7490521,1010.7490521,1011.6664447999992,1010.7490521,1014.7165518000002,f,1,3.9605736000012257,None,right,15,"[17, 20, 19, 20, 19, 20, 19, 20, 19, 20, 17, 18, 15, 17, 15, 16, 12, 15, 13, 15]",20,shiftedgaze_R_15.png,f,1,3,results15,001,2026-04-14_12h30.48.896,mogelijke versie adaptive staircase builder,,2026.1.3,60.04740141895502,2026-04-14 12h30.49.180699 +0200,
20.5,ecc10neg,right,42,0,42,f,1,3.743214199999784,None,0,2,2,2,42,0,42,0,1014.8065478000008,,,,,,,,,,,,,,,1014.8027433999996,1014.8065478000008,1014.8065478000008,1015.7165399999994,1014.8065478000008,1018.5506397999998,f,1,3.743214199999784,None,left,14,"[17, 20, 19, 20, 19, 20, 19, 20, 19, 20, 17, 18, 15, 17, 15, 16, 12, 15, 13, 15]",20,shiftedgaze_L_14.png,f,1,3,results15,001,2026-04-14_12h30.48.896,mogelijke versie adaptive staircase builder,,2026.1.3,60.04740141895502,2026-04-14 12h30.49.180699 +0200,
20.5,ecc10neg,right,43,0,43,j,0,2.2539398000008077,None,0,2,2,2,43,0,43,0,1018.6392780000006,,,,,,,,,,,,,,,1018.6354362999991,1018.6392780000006,1018.6392780000006,1019.5665064000004,1018.6392780000006,1020.8995322999999,j,0,2.2539398000008077,None,left,13,"[17, 20, 19, 20, 19, 20, 19, 20, 19, 20, 17, 18, 15, 17, 15, 16, 12, 15, 13, 15, 13]",21,shiftedgaze_L_13.png,j,0,3,results15,001,2026-04-14_12h30.48.896,mogelijke versie adaptive staircase builder,,2026.1.3,60.04740141895502,2026-04-14 12h30.49.180699 +0200,
20.5,ecc10neg,right,44,0,44,f,1,2.512351600000329,None,0,2,2,2,44,0,44,0,1020.9812806000009,,,,,,,,,,,,,,,1020.9773853999995,1020.9812806000009,1020.9812806000009,1021.8998382000009,1020.9812806000009,1023.5001668999994,f,1,2.512351600000329,None,left,14,"[17, 20, 19, 20, 19, 20, 19, 20, 19, 20, 17, 18, 15, 17, 15, 16, 12, 15, 13, 15, 13, 14]",22,shiftedgaze_L_14.png,f,1,3,results15,001,2026-04-14_12h30.48.896,mogelijke versie adaptive staircase builder,,2026.1.3,60.04740141895502,2026-04-14 12h30.49.180699 +0200,
20.5,ecc10neg,right,45,0,45,j,0,1.7980942000012874,None,0,2,2,2,45,0,45,0,1023.5836792000009,,,,,,,,,,,,,,,1023.5797886,1023.5836792000009,1023.5836792000009,1024.5162196,1023.5836792000009,1025.3829513,j,0,1.7980942000012874,None,right,13,"[17, 20, 19, 20, 19, 20, 19, 20, 19, 20, 17, 18, 15, 17, 15, 16, 12, 15, 13, 15, 13, 14, 13]",23,shiftedgaze_R_13.png,j,0,3,results15,001,2026-04-14_12h30.48.896,mogelijke versie adaptive staircase builder,,2026.1.3,60.04740141895502,2026-04-14 12h30.49.180699 +0200,
20.5,ecc10neg,right,46,0,46,f,1,3.870225099999516,None,0,2,2,2,46,0,46,0,1025.4629196000005,,,,,,,,,,,,,,,1025.4589281999997,1025.4629196000005,1025.4629196000005,1026.3831848999998,1025.4629196000005,1029.3495583000004,f,1,3.870225099999516,None,right,14,"[17, 20, 19, 20, 19, 20, 19, 20, 19, 20, 17, 18, 15, 17, 15, 16, 12, 15, 13, 15, 13, 14, 13, 14]",24,shiftedgaze_R_14.png,f,1,3,results15,001,2026-04-14_12h30.48.896,mogelijke versie adaptive staircase builder,,2026.1.3,60.04740141895502,2026-04-14 12h30.49.180699 +0200,
20.5,ecc10neg,right,47,0,47,j,1,2.4217305000001943,None,0,2,2,2,47,0,47,0,1029.4314102000008,,,,,,,,,,,,,,,1029.4273713999992,1029.4314102000008,1029.4314102000008,1030.3497972000005,1029.4314102000008,1031.8662390999998,j,1,2.4217305000001943,None,direct,13,"[17, 20, 19, 20, 19, 20, 19, 20, 19, 20, 17, 18, 15, 17, 15, 16, 12, 15, 13, 15, 13, 14, 13, 14]",24,shifteddirectgaze.png,j,1,3,results15,001,2026-04-14_12h30.48.896,mogelijke versie adaptive staircase builder,,2026.1.3,60.04740141895502,2026-04-14 12h30.49.180699 +0200,
20.5,ecc10neg,right,48,0,48,j,0,3.444390200000271,None,0,2,2,2,48,0,48,0,1031.9686820000006,,,,,,,,,,,,,,,1031.9590513000003,1031.9686820000006,1031.9686820000006,1032.8664638999999,1031.9686820000006,1035.416200400001,j,0,3.444390200000271,None,right,12,"[17, 20, 19, 20, 19, 20, 19, 20, 19, 20, 17, 18, 15, 17, 15, 16, 12, 15, 13, 15, 13, 14, 13, 14, 12]",25,shiftedgaze_R_12.png,j,0,3,results15,001,2026-04-14_12h30.48.896,mogelijke versie adaptive staircase builder,,2026.1.3,60.04740141895502,2026-04-14 12h30.49.180699 +0200,
20.5,ecc10neg,right,49,0,49,j,0,1.889048900000489,None,0,2,2,2,49,0,49,0,1035.5164760000007,,,,,,,,,,,,,,,1035.5056846000007,1035.5164760000007,1035.5164760000007,1036.4160095999996,1035.5164760000007,1037.4168198999996,j,0,1.889048900000489,None,left,13,"[17, 20, 19, 20, 19, 20, 19, 20, 19, 20, 17, 18, 15, 17, 15, 16, 12, 15, 13, 15, 13, 14, 13, 14, 12]",25,shiftedgaze_L_13.png,j,0,3,results15,001,2026-04-14_12h30.48.896,mogelijke versie adaptive staircase builder,,2026.1.3,60.04740141895502,2026-04-14 12h30.49.180699 +0200,
20.5,ecc10neg,right,50,0,50,f,0,2.315736400001697,None,0,2,2,2,50,0,50,0,1037.4974813999997,,,,,,,,,,,,,,,1037.4935205000002,1037.4974813999997,1037.4974813999997,1038.4164899999996,1037.4974813999997,1039.8162155999999,f,0,2.315736400001697,None,direct,14,"[17, 20, 19, 20, 19, 20, 19, 20, 19, 20, 17, 18, 15, 17, 15, 16, 12, 15, 13, 15, 13, 14, 13, 14, 12]",25,shifteddirectgaze.png,f,0,3,results15,001,2026-04-14_12h30.48.896,mogelijke versie adaptive staircase builder,,2026.1.3,60.04740141895502,2026-04-14 12h30.49.180699 +0200,
20.5,ecc10neg,right,51,0,51,f,0,2.1403811000000132,None,0,2,2,2,51,0,51,0,1039.8972087000002,,,,,,,,,,,,,,,1039.8934074999997,1039.8972087000002,1039.8972087000002,1040.8164778999999,1039.8972087000002,1042.0502116000007,f,0,2.1403811000000132,None,direct,15,"[17, 20, 19, 20, 19, 20, 19, 20, 19, 20, 17, 18, 15, 17, 15, 16, 12, 15, 13, 15, 13, 14, 13, 14, 12]",25,shifteddirectgaze.png,f,0,3,results15,001,2026-04-14_12h30.48.896,mogelijke versie adaptive staircase builder,,2026.1.3,60.04740141895502,2026-04-14 12h30.49.180699 +0200,
20.5,ecc10neg,right,52,0,52,j,0,3.1565040000004956,None,0,2,2,2,52,0,52,0,1042.1370736000008,,,,,,,,,,,,,,,1042.1330937999992,1042.1370736000008,1042.1370736000008,1043.0659644999996,1042.1370736000008,1045.3001251999995,j,0,3.1565040000004956,None,left,16,"[17, 20, 19, 20, 19, 20, 19, 20, 19, 20, 17, 18, 15, 17, 15, 16, 12, 15, 13, 15, 13, 14, 13, 14, 12]",25,shiftedgaze_L_16.png,j,0,3,results15,001,2026-04-14_12h30.48.896,mogelijke versie adaptive staircase builder,,2026.1.3,60.04740141895502,2026-04-14 12h30.49.180699 +0200,
20.5,ecc10neg,right,53,0,53,f,1,2.48072669999965,None,0,2,2,2,53,0,53,0,1045.3963776,,,,,,,,,,,,,,,1045.3867007000008,1045.3963776,1045.3963776,1046.3165253999996,1045.3963776,1047.8832129000002,f,1,2.48072669999965,None,right,17,"[17, 20, 19, 20, 19, 20, 19, 20, 19, 20, 17, 18, 15, 17, 15, 16, 12, 15, 13, 15, 13, 14, 13, 14, 12, 17]",26,shiftedgaze_R_17.png,f,1,3,results15,001,2026-04-14_12h30.48.896,mogelijke versie adaptive staircase builder,,2026.1.3,60.04740141895502,2026-04-14 12h30.49.180699 +0200,
20.5,ecc10neg,right,54,0,54,j,0,2.7386651999986498,None,0,2,2,2,54,0,54,0,1047.9784010000003,,,,,,,,,,,,,,,1047.9740671,1047.9784010000003,1047.9784010000003,1048.8829299999998,1047.9784010000003,1050.7331018999994,j,0,2.7386651999986498,None,right,16,"[17, 20, 19, 20, 19, 20, 19, 20, 19, 20, 17, 18, 15, 17, 15, 16, 12, 15, 13, 15, 13, 14, 13, 14, 12, 17, 16]",27,shiftedgaze_R_16.png,j,0,3,results15,001,2026-04-14_12h30.48.896,mogelijke versie adaptive staircase builder,,2026.1.3,60.04740141895502,2026-04-14 12h30.49.180699 +0200,
20.5,ecc10neg,right,55,0,55,j,0,3.0556053000000247,None,0,2,2,2,55,0,55,0,1050.8295337,,,,,,,,,,,,,,,1050.8188129999999,1050.8295337,1050.8295337,1051.7327867000004,1050.8295337,1053.8997667999993,j,0,3.0556053000000247,None,left,17,"[17, 20, 19, 20, 19, 20, 19, 20, 19, 20, 17, 18, 15, 17, 15, 16, 12, 15, 13, 15, 13, 14, 13, 14, 12, 17, 16]",27,shiftedgaze_L_17.png,j,0,3,results15,001,2026-04-14_12h30.48.896,mogelijke versie adaptive staircase builder,,2026.1.3,60.04740141895502,2026-04-14 12h30.49.180699 +0200,
20.5,ecc10neg,right,56,0,56,f,1,2.8159824999984266,None,0,2,2,2,56,0,56,0,1053.9891647000004,,,,,,,,,,,,,,,1053.9846435,1053.9891647000004,1053.9891647000004,1054.8995379000007,1053.9891647000004,1056.8165599999993,f,1,2.8159824999984266,None,left,18,"[17, 20, 19, 20, 19, 20, 19, 20, 19, 20, 17, 18, 15, 17, 15, 16, 12, 15, 13, 15, 13, 14, 13, 14, 12, 17, 16, 18]",28,shiftedgaze_L_18.png,f,1,3,results15,001,2026-04-14_12h30.48.896,mogelijke versie adaptive staircase builder,,2026.1.3,60.04740141895502,2026-04-14 12h30.49.180699 +0200,
20.5,ecc10neg,right,57,0,57,j,0,3.4219567000000097,None,0,2,2,2,57,0,57,0,1056.9191750999998,,,,,,,,,,,,,,,1056.9090374000007,1056.9191750999998,1056.9191750999998,1057.8163208999995,1056.9191750999998,1060.3498724,j,0,3.4219567000000097,None,right,17,"[17, 20, 19, 20, 19, 20, 19, 20, 19, 20, 17, 18, 15, 17, 15, 16, 12, 15, 13, 15, 13, 14, 13, 14, 12, 17, 16, 18, 17]",29,shiftedgaze_R_17.png,j,0,3,results15,001,2026-04-14_12h30.48.896,mogelijke versie adaptive staircase builder,,2026.1.3,60.04740141895502,2026-04-14 12h30.49.180699 +0200,
20.5,ecc10neg,right,58,0,58,f,1,3.066747100001521,None,0,2,2,2,58,0,58,0,1060.4503194000008,,,,,,,,,,,,,,,1060.4396880000004,1060.4503194000008,1060.4503194000008,1061.3494922999998,1060.4503194000008,1063.5332106000005,f,1,3.066747100001521,None,left,18,"[17, 20, 19, 20, 19, 20, 19, 20, 19, 20, 17, 18, 15, 17, 15, 16, 12, 15, 13, 15, 13, 14, 13, 14, 12, 17, 16, 18, 17, 18]",30,shiftedgaze_L_18.png,f,1,3,results15,001,2026-04-14_12h30.48.896,mogelijke versie adaptive staircase builder,,2026.1.3,60.04740141895502,2026-04-14 12h30.49.180699 +0200,
20.5,ecc10neg,right,59,0,59,j,0,1.8633122999999614,None,0,2,2,2,59,0,59,0,1063.6378184000005,,,,,,,,,,,,,,,1063.6273070000007,1063.6378184000005,1063.6378184000005,1064.5329505999998,1063.6378184000005,1065.5164370999992,j,0,1.8633122999999614,None,right,17,"[17, 20, 19, 20, 19, 20, 19, 20, 19, 20, 17, 18, 15, 17, 15, 16, 12, 15, 13, 15, 13, 14, 13, 14, 12, 17, 16, 18, 17, 18, 17]",31,shiftedgaze_R_17.png,j,0,3,results15,001,2026-04-14_12h30.48.896,mogelijke versie adaptive staircase builder,,2026.1.3,60.04740141895502,2026-04-14 12h30.49.180699 +0200,
20.5,ecc10neg,right,2,2,0,,,,,0,2,2,2,,,,,,,,,,,,,,,,,,,,,,,,,,,,,,,,,,,,,,results15,001,2026-04-14_12h30.48.896,mogelijke versie adaptive staircase builder,,2026.1.3,60.04740141895502,2026-04-14 12h30.49.180699 +0200,
