xPos,stimulusSet,whichImage,thisN,thisTrialN,thisRepN,key_resp.keys,key_resp.corr,key_resp.rt,key_resp.duration,blocks.thisRepN,blocks.thisTrialN,blocks.thisN,blocks.thisIndex,trials.thisRepN,trials.thisTrialN,trials.thisN,trials.thisIndex,thisRow.t,notes,piloting,intro.started,introinstructions.started,intro_key.started,demo_image_left.started,demo_image_middle.started,demo_image_right.started,intro.stopped,intro_key.keys,intro_key.rt,intro_key.duration,block_start.started,block_start.stopped,trial.started,key_resp.started,middle_image.started,right_image.started,left_image.started,trial.stopped,trials.key_resp.keys,trials.key_resp.corr,trials.key_resp.rt,trials.key_resp.duration,direction,angle,reversal_intensities,number_reversals,stimulus,response,correct,blockNumber,participant,session,date,expName,expVersion,psychopyVersion,frameRate,expStart,
,,,,,,,,,,,,,,,,,,,,False,0.05744890000005398,0.07016070000008767,0.07016070000008767,0.07016070000008767,0.07016070000008767,0.07016070000008767,373.5062753000002,space,373.2994557000002,0.12008429999968939,,,,,,,,,,,,,,,,,,,,,results3,001,2026-04-13_11h18.43.578,mogelijke versie adaptive staircase builder,,2026.1.3,59.89695328181507,2026-04-13 11h18.45.152023 +0200,
4.5,ecc10pos,left,0,0,0,f,1,3.908972599999288,None,0,0,0,0,0,0,0,0,373.8045694000002,,,,,,,,,,,,,373.69037930000013,373.6904281999996,373.79408710000007,373.8045694000002,373.8045694000002,373.8045694000002,374.7056311999995,377.7225714999995,f,1,3.908972599999288,None,left,20,[],0,shiftedgaze_L_20.png,f,1,1,results3,001,2026-04-13_11h18.43.578,mogelijke versie adaptive staircase builder,,2026.1.3,59.89695328181507,2026-04-13 11h18.45.152023 +0200,
4.5,ecc10pos,left,1,0,1,f,1,2.8912916999997833,None,0,0,0,0,1,0,1,0,377.8223588999999,,,,,,,,,,,,,,,377.81108679999943,377.8223588999999,377.8223588999999,377.8223588999999,378.7222144999996,380.7240830999999,f,1,2.8912916999997833,None,left,19,[],0,shiftedgaze_L_19.png,f,1,1,results3,001,2026-04-13_11h18.43.578,mogelijke versie adaptive staircase builder,,2026.1.3,59.89695328181507,2026-04-13 11h18.45.152023 +0200,
4.5,ecc10pos,left,2,0,2,f,0,3.283692400000291,None,0,0,0,0,2,0,2,0,380.8380108000001,,,,,,,,,,,,,,,380.8242541999998,380.8380108000001,380.8380108000001,380.8380108000001,381.7386612,384.1226065999999,f,0,3.283692400000291,None,direct,18,[18],1,shifteddirectgaze.png,f,0,1,results3,001,2026-04-13_11h18.43.578,mogelijke versie adaptive staircase builder,,2026.1.3,59.89695328181507,2026-04-13 11h18.45.152023 +0200,
4.5,ecc10pos,left,3,0,3,f,1,3.796185800000785,None,0,0,0,0,3,0,3,0,384.2295137000001,,,,,,,,,,,,,,,384.2197306999997,384.2295137000001,384.2295137000001,384.2295137000001,385.1222047000001,388.0393716999997,f,1,3.796185800000785,None,right,19,"[18, 19]",2,shiftedgaze_R_19.png,f,1,1,results3,001,2026-04-13_11h18.43.578,mogelijke versie adaptive staircase builder,,2026.1.3,59.89695328181507,2026-04-13 11h18.45.152023 +0200,
4.5,ecc10pos,left,4,0,4,f,0,2.449399899999662,None,0,0,0,0,4,0,4,0,388.14435539999977,,,,,,,,,,,,,,,388.1336908000003,388.14435539999977,388.14435539999977,388.14435539999977,389.05556290000004,390.60592499999984,f,0,2.449399899999662,None,direct,18,"[18, 19, 18]",3,shifteddirectgaze.png,f,0,1,results3,001,2026-04-13_11h18.43.578,mogelijke versie adaptive staircase builder,,2026.1.3,59.89695328181507,2026-04-13 11h18.45.152023 +0200,
4.5,ecc10pos,left,5,0,5,j,0,2.9490349999996397,None,0,0,0,0,5,0,5,0,390.7245584000002,,,,,,,,,,,,,,,390.7130516999996,390.7245584000002,390.7245584000002,390.7245584000002,391.6055494000002,393.6890592999998,j,0,2.9490349999996397,None,left,19,"[18, 19, 18]",3,shiftedgaze_L_19.png,j,0,1,results3,001,2026-04-13_11h18.43.578,mogelijke versie adaptive staircase builder,,2026.1.3,59.89695328181507,2026-04-13 11h18.45.152023 +0200,
4.5,ecc10pos,left,6,0,6,f,1,4.926616400000057,None,0,0,0,0,6,0,6,0,393.78705509999963,,,,,,,,,,,,,,,393.7761709999995,393.78705509999963,393.78705509999963,393.78705509999963,394.6886687999995,398.72244539999974,f,1,4.926616400000057,None,left,20,"[18, 19, 18, 20]",4,shiftedgaze_L_20.png,f,1,1,results3,001,2026-04-13_11h18.43.578,mogelijke versie adaptive staircase builder,,2026.1.3,59.89695328181507,2026-04-13 11h18.45.152023 +0200,
4.5,ecc10pos,left,7,0,7,j,0,2.2636184000002686,None,0,0,0,0,7,0,7,0,398.82594619999963,,,,,,,,,,,,,,,398.81525129999955,398.82594619999963,398.82594619999963,398.82594619999963,399.7217330000003,401.1056847,j,0,2.2636184000002686,None,left,19,"[18, 19, 18, 20, 19]",5,shiftedgaze_L_19.png,j,0,1,results3,001,2026-04-13_11h18.43.578,mogelijke versie adaptive staircase builder,,2026.1.3,59.89695328181507,2026-04-13 11h18.45.152023 +0200,
4.5,ecc10pos,left,8,0,8,f,1,3.423057200000585,None,0,0,0,0,8,0,8,0,401.21854559999974,,,,,,,,,,,,,,,401.2067208999997,401.21854559999974,401.21854559999974,401.21854559999974,402.10511679999945,404.65575199999967,f,1,3.423057200000585,None,right,20,"[18, 19, 18, 20, 19, 20]",6,shiftedgaze_R_20.png,f,1,1,results3,001,2026-04-13_11h18.43.578,mogelijke versie adaptive staircase builder,,2026.1.3,59.89695328181507,2026-04-13 11h18.45.152023 +0200,
4.5,ecc10pos,left,9,0,9,f,1,3.8997465000002194,None,0,0,0,0,9,0,9,0,404.77395309999974,,,,,,,,,,,,,,,404.76254789999984,404.77395309999974,404.77395309999974,404.77395309999974,405.6553064999998,408.6889980999995,f,1,3.8997465000002194,None,left,19,"[18, 19, 18, 20, 19, 20]",6,shiftedgaze_L_19.png,f,1,1,results3,001,2026-04-13_11h18.43.578,mogelijke versie adaptive staircase builder,,2026.1.3,59.89695328181507,2026-04-13 11h18.45.152023 +0200,
4.5,ecc10pos,left,10,0,10,f,0,4.398251500000697,None,0,0,0,0,10,0,10,0,408.80356089999987,,,,,,,,,,,,,,,408.7928654999996,408.80356089999987,408.80356089999987,408.80356089999987,409.6884398000002,413.20582939999986,f,0,4.398251500000697,None,direct,18,"[18, 19, 18, 20, 19, 20, 18]",7,shifteddirectgaze.png,f,0,1,results3,001,2026-04-13_11h18.43.578,mogelijke versie adaptive staircase builder,,2026.1.3,59.89695328181507,2026-04-13 11h18.45.152023 +0200,
4.5,ecc10pos,left,11,0,11,j,0,3.574949999999262,None,0,0,0,0,11,0,11,0,413.3227568000002,,,,,,,,,,,,,,,413.31128269999954,413.3227568000002,413.3227568000002,413.3227568000002,414.2217267999995,416.9053210000002,j,0,3.574949999999262,None,left,19,"[18, 19, 18, 20, 19, 20, 18]",7,shiftedgaze_L_19.png,j,0,1,results3,001,2026-04-13_11h18.43.578,mogelijke versie adaptive staircase builder,,2026.1.3,59.89695328181507,2026-04-13 11h18.45.152023 +0200,
4.5,ecc10pos,left,12,0,12,j,1,2.01605120000022,None,0,0,0,0,12,0,12,0,417.0177285,,,,,,,,,,,,,,,417.0067420999994,417.0177285,417.0177285,417.0177285,417.9048630999996,419.0387953999998,j,1,2.01605120000022,None,direct,20,"[18, 19, 18, 20, 19, 20, 18, 20]",8,shifteddirectgaze.png,j,1,1,results3,001,2026-04-13_11h18.43.578,mogelijke versie adaptive staircase builder,,2026.1.3,59.89695328181507,2026-04-13 11h18.45.152023 +0200,
4.5,ecc10pos,left,13,0,13,j,0,2.2664310999998634,None,0,0,0,0,13,0,13,0,419.1591919000002,,,,,,,,,,,,,,,419.14810940000007,419.1591919000002,419.1591919000002,419.1591919000002,420.0383744999999,421.43855970000004,j,0,2.2664310999998634,None,left,19,"[18, 19, 18, 20, 19, 20, 18, 20, 19]",9,shiftedgaze_L_19.png,j,0,1,results3,001,2026-04-13_11h18.43.578,mogelijke versie adaptive staircase builder,,2026.1.3,59.89695328181507,2026-04-13 11h18.45.152023 +0200,
4.5,ecc10pos,left,14,0,14,f,1,2.5920540999995865,None,0,0,0,0,14,0,14,0,421.5375707000003,,,,,,,,,,,,,,,421.5272282999995,421.5375707000003,421.5375707000003,421.5375707000003,422.4380744,424.1386113999997,f,1,2.5920540999995865,None,left,20,"[18, 19, 18, 20, 19, 20, 18, 20, 19, 20]",10,shiftedgaze_L_20.png,f,1,1,results3,001,2026-04-13_11h18.43.578,mogelijke versie adaptive staircase builder,,2026.1.3,59.89695328181507,2026-04-13 11h18.45.152023 +0200,
4.5,ecc10pos,left,15,0,15,f,1,2.6440925000006246,None,0,0,0,0,15,0,15,0,424.23759679999966,,,,,,,,,,,,,,,424.2259680999996,424.23759679999966,424.23759679999966,424.23759679999966,425.13811799999985,426.8886973999997,f,1,2.6440925000006246,None,left,19,"[18, 19, 18, 20, 19, 20, 18, 20, 19, 20]",10,shiftedgaze_L_19.png,f,1,1,results3,001,2026-04-13_11h18.43.578,mogelijke versie adaptive staircase builder,,2026.1.3,59.89695328181507,2026-04-13 11h18.45.152023 +0200,
4.5,ecc10pos,left,16,0,16,f,1,5.008524400000169,None,0,0,0,0,16,0,16,0,427.00123689999964,,,,,,,,,,,,,,,426.99069510000027,427.00123689999964,427.00123689999964,427.00123689999964,427.8882695000002,432.02202279999983,f,1,5.008524400000169,None,right,18,"[18, 19, 18, 20, 19, 20, 18, 20, 19, 20]",10,shiftedgaze_R_18.png,f,1,1,results3,001,2026-04-13_11h18.43.578,mogelijke versie adaptive staircase builder,,2026.1.3,59.89695328181507,2026-04-13 11h18.45.152023 +0200,
4.5,ecc10pos,left,17,0,17,j,0,3.509621700000025,None,0,0,0,0,17,0,17,0,432.1159679000002,,,,,,,,,,,,,,,432.10480670000015,432.1159679000002,432.1159679000002,432.1159679000002,433.02157629999965,435.6384978999995,j,0,3.509621700000025,None,right,17,"[18, 19, 18, 20, 19, 20, 18, 20, 19, 20, 17]",11,shiftedgaze_R_17.png,j,0,1,results3,001,2026-04-13_11h18.43.578,mogelijke versie adaptive staircase builder,,2026.1.3,59.89695328181507,2026-04-13 11h18.45.152023 +0200,
4.5,ecc10pos,left,18,0,18,f,1,2.937448700000459,None,0,0,0,0,18,0,18,0,435.7602188000001,,,,,,,,,,,,,,,435.74786140000015,435.7602188000001,435.7602188000001,435.7602188000001,436.6380227999998,438.7050655000003,f,1,2.937448700000459,None,left,18,"[18, 19, 18, 20, 19, 20, 18, 20, 19, 20, 17, 18]",12,shiftedgaze_L_18.png,f,1,1,results3,001,2026-04-13_11h18.43.578,mogelijke versie adaptive staircase builder,,2026.1.3,59.89695328181507,2026-04-13 11h18.45.152023 +0200,
4.5,ecc10pos,left,19,0,19,j,0,6.588821500000449,None,0,0,0,0,19,0,19,0,438.82072289999996,,,,,,,,,,,,,,,438.80925299999944,438.82072289999996,438.82072289999996,438.82072289999996,439.7047569999995,445.42178109999986,j,0,6.588821500000449,None,right,17,"[18, 19, 18, 20, 19, 20, 18, 20, 19, 20, 17, 18, 17]",13,shiftedgaze_R_17.png,j,0,1,results3,001,2026-04-13_11h18.43.578,mogelijke versie adaptive staircase builder,,2026.1.3,59.89695328181507,2026-04-13 11h18.45.152023 +0200,
4.5,ecc10pos,left,20,0,20,f,1,1.8052090999999564,None,0,0,0,0,20,0,20,0,445.5403575,,,,,,,,,,,,,,,445.5287446000002,445.5403575,445.5403575,445.5403575,446.4212349999998,447.3550110999995,f,1,1.8052090999999564,None,left,18,"[18, 19, 18, 20, 19, 20, 18, 20, 19, 20, 17, 18, 17, 18]",14,shiftedgaze_L_18.png,f,1,1,results3,001,2026-04-13_11h18.43.578,mogelijke versie adaptive staircase builder,,2026.1.3,59.89695328181507,2026-04-13 11h18.45.152023 +0200,
4.5,ecc10pos,left,21,0,21,f,1,1.8421194000002288,None,0,0,0,0,21,0,21,0,447.4554558,,,,,,,,,,,,,,,447.44389839999985,447.4554558,447.4554558,447.4554558,448.35466819999965,449.3048154999997,f,1,1.8421194000002288,None,left,17,"[18, 19, 18, 20, 19, 20, 18, 20, 19, 20, 17, 18, 17, 18]",14,shiftedgaze_L_17.png,f,1,1,results3,001,2026-04-13_11h18.43.578,mogelijke versie adaptive staircase builder,,2026.1.3,59.89695328181507,2026-04-13 11h18.45.152023 +0200,
4.5,ecc10pos,left,22,0,22,j,1,2.743297099999836,None,0,0,0,0,22,0,22,0,449.4185508999999,,,,,,,,,,,,,,,449.4077207999999,449.4185508999999,449.4185508999999,449.4185508999999,450.3046968999997,452.1717177999999,j,1,2.743297099999836,None,direct,16,"[18, 19, 18, 20, 19, 20, 18, 20, 19, 20, 17, 18, 17, 18]",14,shifteddirectgaze.png,j,1,1,results3,001,2026-04-13_11h18.43.578,mogelijke versie adaptive staircase builder,,2026.1.3,59.89695328181507,2026-04-13 11h18.45.152023 +0200,
4.5,ecc10pos,left,23,0,23,j,1,3.9109779000000344,None,0,0,0,0,23,0,23,0,452.2671970000001,,,,,,,,,,,,,,,452.25586399999975,452.2671970000001,452.2671970000001,452.2671970000001,453.17106220000005,456.1880223999997,j,1,3.9109779000000344,None,direct,15,"[18, 19, 18, 20, 19, 20, 18, 20, 19, 20, 17, 18, 17, 18]",14,shifteddirectgaze.png,j,1,1,results3,001,2026-04-13_11h18.43.578,mogelijke versie adaptive staircase builder,,2026.1.3,59.89695328181507,2026-04-13 11h18.45.152023 +0200,
4.5,ecc10pos,left,24,0,24,f,1,5.128195500000402,None,0,0,0,0,24,0,24,0,456.2817422999997,,,,,,,,,,,,,,,456.2708855000001,456.2817422999997,456.2817422999997,456.2817422999997,457.18769669999983,461.4214837999998,f,1,5.128195500000402,None,left,14,"[18, 19, 18, 20, 19, 20, 18, 20, 19, 20, 17, 18, 17, 18]",14,shiftedgaze_L_14.png,f,1,1,results3,001,2026-04-13_11h18.43.578,mogelijke versie adaptive staircase builder,,2026.1.3,59.89695328181507,2026-04-13 11h18.45.152023 +0200,
4.5,ecc10pos,left,25,0,25,j,0,1.7507571000005555,None,0,0,0,0,25,0,25,0,461.51489820000006,,,,,,,,,,,,,,,461.5033949999997,461.51489820000006,461.51489820000006,461.51489820000006,462.4210978000001,463.27145219999966,j,0,1.7507571000005555,None,right,13,"[18, 19, 18, 20, 19, 20, 18, 20, 19, 20, 17, 18, 17, 18, 13]",15,shiftedgaze_R_13.png,j,0,1,results3,001,2026-04-13_11h18.43.578,mogelijke versie adaptive staircase builder,,2026.1.3,59.89695328181507,2026-04-13 11h18.45.152023 +0200,
4.5,ecc10pos,left,26,0,26,f,1,1.6446935000003577,None,0,0,0,0,26,0,26,0,463.3651407999996,,,,,,,,,,,,,,,463.3527145999997,463.3651407999996,463.3651407999996,463.3651407999996,464.27105519999986,465.02145889999974,f,1,1.6446935000003577,None,left,14,"[18, 19, 18, 20, 19, 20, 18, 20, 19, 20, 17, 18, 17, 18, 13, 14]",16,shiftedgaze_L_14.png,f,1,1,results3,001,2026-04-13_11h18.43.578,mogelijke versie adaptive staircase builder,,2026.1.3,59.89695328181507,2026-04-13 11h18.45.152023 +0200,
4.5,ecc10pos,left,27,0,27,j,0,4.2952612999997655,None,0,0,0,0,27,0,27,0,465.1144515999995,,,,,,,,,,,,,,,465.1035829000002,465.1144515999995,465.1144515999995,465.1144515999995,466.02101739999944,469.4214406000001,j,0,4.2952612999997655,None,right,13,"[18, 19, 18, 20, 19, 20, 18, 20, 19, 20, 17, 18, 17, 18, 13, 14, 13]",17,shiftedgaze_R_13.png,j,0,1,results3,001,2026-04-13_11h18.43.578,mogelijke versie adaptive staircase builder,,2026.1.3,59.89695328181507,2026-04-13 11h18.45.152023 +0200,
4.5,ecc10pos,left,28,0,28,j,1,2.2059188000002905,None,0,0,0,0,28,0,28,0,469.5158363999999,,,,,,,,,,,,,,,469.5041818999998,469.5158363999999,469.5158363999999,469.5158363999999,470.42099529999996,471.7382534999997,j,1,2.2059188000002905,None,direct,14,"[18, 19, 18, 20, 19, 20, 18, 20, 19, 20, 17, 18, 17, 18, 13, 14, 13, 14]",18,shifteddirectgaze.png,j,1,1,results3,001,2026-04-13_11h18.43.578,mogelijke versie adaptive staircase builder,,2026.1.3,59.89695328181507,2026-04-13 11h18.45.152023 +0200,
4.5,ecc10pos,left,29,0,29,j,1,1.4979740999997375,None,0,0,0,0,29,0,29,0,471.8318024,,,,,,,,,,,,,,,471.8205981000001,471.8318024,471.8318024,471.8318024,472.7376521999995,473.3381238000002,j,1,1.4979740999997375,None,direct,13,"[18, 19, 18, 20, 19, 20, 18, 20, 19, 20, 17, 18, 17, 18, 13, 14, 13, 14]",18,shifteddirectgaze.png,j,1,1,results3,001,2026-04-13_11h18.43.578,mogelijke versie adaptive staircase builder,,2026.1.3,59.89695328181507,2026-04-13 11h18.45.152023 +0200,
4.5,ecc10pos,left,30,0,30,f,1,2.7784367999993265,None,0,0,0,0,30,0,30,0,473.4315134999997,,,,,,,,,,,,,,,473.4207759000001,473.4315134999997,473.4315134999997,473.4315134999997,474.33764539999993,476.2215576999997,f,1,2.7784367999993265,None,right,12,"[18, 19, 18, 20, 19, 20, 18, 20, 19, 20, 17, 18, 17, 18, 13, 14, 13, 14]",18,shiftedgaze_R_12.png,f,1,1,results3,001,2026-04-13_11h18.43.578,mogelijke versie adaptive staircase builder,,2026.1.3,59.89695328181507,2026-04-13 11h18.45.152023 +0200,
4.5,ecc10pos,left,31,0,31,f,1,3.030810399999609,None,0,0,0,0,31,0,31,0,476.33083970000007,,,,,,,,,,,,,,,476.32067839999945,476.33083970000007,476.33083970000007,476.33083970000007,477.2211867999995,479.37134849999984,f,1,3.030810399999609,None,left,11,"[18, 19, 18, 20, 19, 20, 18, 20, 19, 20, 17, 18, 17, 18, 13, 14, 13, 14]",18,shiftedgaze_L_11.png,f,1,1,results3,001,2026-04-13_11h18.43.578,mogelijke versie adaptive staircase builder,,2026.1.3,59.89695328181507,2026-04-13 11h18.45.152023 +0200,
4.5,ecc10pos,left,32,0,32,j,0,2.6792597000003298,None,0,0,0,0,32,0,32,0,479.4823594999998,,,,,,,,,,,,,,,479.4721109000002,479.4823594999998,479.4823594999998,479.4823594999998,480.3708330999998,482.1712846999999,j,0,2.6792597000003298,None,right,10,"[18, 19, 18, 20, 19, 20, 18, 20, 19, 20, 17, 18, 17, 18, 13, 14, 13, 14, 10]",19,shiftedgaze_R_10.png,j,0,1,results3,001,2026-04-13_11h18.43.578,mogelijke versie adaptive staircase builder,,2026.1.3,59.89695328181507,2026-04-13 11h18.45.152023 +0200,
4.5,ecc10pos,left,33,0,33,j,0,2.752774500000669,None,0,0,0,0,33,0,33,0,482.2648999000003,,,,,,,,,,,,,,,482.2531626,482.2648999000003,482.2648999000003,482.2648999000003,483.17074969999976,485.02112750000015,j,0,2.752774500000669,None,right,11,"[18, 19, 18, 20, 19, 20, 18, 20, 19, 20, 17, 18, 17, 18, 13, 14, 13, 14, 10]",19,shiftedgaze_R_11.png,j,0,1,results3,001,2026-04-13_11h18.43.578,mogelijke versie adaptive staircase builder,,2026.1.3,59.89695328181507,2026-04-13 11h18.45.152023 +0200,
4.5,ecc10pos,left,34,0,34,f,0,3.1427942000000257,None,0,0,0,0,34,0,34,0,485.1149183999996,,,,,,,,,,,,,,,485.10379209999974,485.1149183999996,485.1149183999996,485.1149183999996,486.02060019999954,488.2711177000001,f,0,3.1427942000000257,None,direct,12,"[18, 19, 18, 20, 19, 20, 18, 20, 19, 20, 17, 18, 17, 18, 13, 14, 13, 14, 10]",19,shifteddirectgaze.png,f,0,1,results3,001,2026-04-13_11h18.43.578,mogelijke versie adaptive staircase builder,,2026.1.3,59.89695328181507,2026-04-13 11h18.45.152023 +0200,
4.5,ecc10pos,left,35,0,35,f,1,1.9250071000005846,None,0,0,0,0,35,0,35,0,488.36476519999997,,,,,,,,,,,,,,,488.3534818999997,488.36476519999997,488.36476519999997,488.36476519999997,489.2709480000003,490.3043385000001,f,1,1.9250071000005846,None,right,13,"[18, 19, 18, 20, 19, 20, 18, 20, 19, 20, 17, 18, 17, 18, 13, 14, 13, 14, 10, 13]",20,shiftedgaze_R_13.png,f,1,1,results3,001,2026-04-13_11h18.43.578,mogelijke versie adaptive staircase builder,,2026.1.3,59.89695328181507,2026-04-13 11h18.45.152023 +0200,
4.5,ecc10pos,left,36,0,36,j,1,1.675139100000706,None,0,0,0,0,36,0,36,0,490.39847420000024,,,,,,,,,,,,,,,490.3873150999998,490.39847420000024,490.39847420000024,490.39847420000024,491.30386159999944,492.08774689999973,j,1,1.675139100000706,None,direct,12,"[18, 19, 18, 20, 19, 20, 18, 20, 19, 20, 17, 18, 17, 18, 13, 14, 13, 14, 10, 13]",20,shifteddirectgaze.png,j,1,1,results3,001,2026-04-13_11h18.43.578,mogelijke versie adaptive staircase builder,,2026.1.3,59.89695328181507,2026-04-13 11h18.45.152023 +0200,
4.5,ecc10pos,left,37,0,37,f,1,4.043530099999771,None,0,0,0,0,37,0,37,0,492.19815430000017,,,,,,,,,,,,,,,492.1885838999997,492.19815430000017,492.19815430000017,492.19815430000017,493.08740080000007,496.2543485999995,f,1,4.043530099999771,None,left,11,"[18, 19, 18, 20, 19, 20, 18, 20, 19, 20, 17, 18, 17, 18, 13, 14, 13, 14, 10, 13]",20,shiftedgaze_L_11.png,f,1,1,results3,001,2026-04-13_11h18.43.578,mogelijke versie adaptive staircase builder,,2026.1.3,59.89695328181507,2026-04-13 11h18.45.152023 +0200,
4.5,ecc10pos,left,38,0,38,f,1,2.2856505999998262,None,0,0,0,0,38,0,38,0,496.3640008000002,,,,,,,,,,,,,,,496.3546951999997,496.3640008000002,496.3640008000002,496.3640008000002,497.25384289999965,498.65426190000017,f,1,2.2856505999998262,None,left,10,"[18, 19, 18, 20, 19, 20, 18, 20, 19, 20, 17, 18, 17, 18, 13, 14, 13, 14, 10, 13]",20,shiftedgaze_L_10.png,f,1,1,results3,001,2026-04-13_11h18.43.578,mogelijke versie adaptive staircase builder,,2026.1.3,59.89695328181507,2026-04-13 11h18.45.152023 +0200,
4.5,ecc10pos,left,39,0,39,j,1,1.7659728999997242,None,0,0,0,0,39,0,39,0,498.7476469000003,,,,,,,,,,,,,,,498.7367342999996,498.7476469000003,498.7476469000003,498.7476469000003,499.6539886999999,500.5209027000001,j,1,1.7659728999997242,None,direct,9,"[18, 19, 18, 20, 19, 20, 18, 20, 19, 20, 17, 18, 17, 18, 13, 14, 13, 14, 10, 13]",20,shifteddirectgaze.png,j,1,1,results3,001,2026-04-13_11h18.43.578,mogelijke versie adaptive staircase builder,,2026.1.3,59.89695328181507,2026-04-13 11h18.45.152023 +0200,
4.5,ecc10pos,left,40,0,40,j,0,1.6901795999992828,None,0,0,0,0,40,0,40,0,500.6154633999995,,,,,,,,,,,,,,,500.60464279999997,500.6154633999995,500.6154633999995,500.6154633999995,501.52037800000016,502.3207841000003,j,0,1.6901795999992828,None,right,8,"[18, 19, 18, 20, 19, 20, 18, 20, 19, 20, 17, 18, 17, 18, 13, 14, 13, 14, 10, 13, 8]",21,shiftedgaze_R_8.png,j,0,1,results3,001,2026-04-13_11h18.43.578,mogelijke versie adaptive staircase builder,,2026.1.3,59.89695328181507,2026-04-13 11h18.45.152023 +0200,
4.5,ecc10pos,left,41,0,41,j,0,1.368606600000021,None,0,0,0,0,41,0,41,0,502.41704000000027,,,,,,,,,,,,,,,502.4048071999996,502.41704000000027,502.41704000000027,502.41704000000027,503.32047479999983,503.78746859999956,j,0,1.368606600000021,None,right,9,"[18, 19, 18, 20, 19, 20, 18, 20, 19, 20, 17, 18, 17, 18, 13, 14, 13, 14, 10, 13, 8]",21,shiftedgaze_R_9.png,j,0,1,results3,001,2026-04-13_11h18.43.578,mogelijke versie adaptive staircase builder,,2026.1.3,59.89695328181507,2026-04-13 11h18.45.152023 +0200,
4.5,ecc10pos,left,42,0,42,j,1,1.6481337000004714,None,0,0,0,0,42,0,42,0,503.8813809000003,,,,,,,,,,,,,,,503.8707668999996,503.8813809000003,503.8813809000003,503.8813809000003,504.7869893999996,505.53738950000024,j,1,1.6481337000004714,None,direct,10,"[18, 19, 18, 20, 19, 20, 18, 20, 19, 20, 17, 18, 17, 18, 13, 14, 13, 14, 10, 13, 8, 10]",22,shifteddirectgaze.png,j,1,1,results3,001,2026-04-13_11h18.43.578,mogelijke versie adaptive staircase builder,,2026.1.3,59.89695328181507,2026-04-13 11h18.45.152023 +0200,
4.5,ecc10pos,left,43,0,43,j,0,1.306433200000356,None,0,0,0,0,43,0,43,0,505.63128099999994,,,,,,,,,,,,,,,505.61979919999976,505.63128099999994,505.63128099999994,505.63128099999994,506.53709660000004,506.95410269999957,j,0,1.306433200000356,None,left,9,"[18, 19, 18, 20, 19, 20, 18, 20, 19, 20, 17, 18, 17, 18, 13, 14, 13, 14, 10, 13, 8, 10, 9]",23,shiftedgaze_L_9.png,j,0,1,results3,001,2026-04-13_11h18.43.578,mogelijke versie adaptive staircase builder,,2026.1.3,59.89695328181507,2026-04-13 11h18.45.152023 +0200,
4.5,ecc10pos,left,44,0,44,j,1,1.2661504999996396,None,0,0,0,0,44,0,44,0,507.0474125999999,,,,,,,,,,,,,,,507.03686709999965,507.0474125999999,507.0474125999999,507.0474125999999,507.9536748999999,508.32092569999986,j,1,1.2661504999996396,None,direct,10,"[18, 19, 18, 20, 19, 20, 18, 20, 19, 20, 17, 18, 17, 18, 13, 14, 13, 14, 10, 13, 8, 10, 9, 10]",24,shifteddirectgaze.png,j,1,1,results3,001,2026-04-13_11h18.43.578,mogelijke versie adaptive staircase builder,,2026.1.3,59.89695328181507,2026-04-13 11h18.45.152023 +0200,
4.5,ecc10pos,left,45,0,45,j,0,1.5549098000001322,None,0,0,0,0,45,0,45,0,508.4146665999997,,,,,,,,,,,,,,,508.4036415999999,508.4146665999997,508.4146665999997,508.4146665999997,509.3204069000003,509.9708977999999,j,0,1.5549098000001322,None,left,9,"[18, 19, 18, 20, 19, 20, 18, 20, 19, 20, 17, 18, 17, 18, 13, 14, 13, 14, 10, 13, 8, 10, 9, 10, 9]",25,shiftedgaze_L_9.png,j,0,1,results3,001,2026-04-13_11h18.43.578,mogelijke versie adaptive staircase builder,,2026.1.3,59.89695328181507,2026-04-13 11h18.45.152023 +0200,
4.5,ecc10pos,left,46,0,46,j,0,3.427823800000624,None,0,0,0,0,46,0,46,0,510.0698260999998,,,,,,,,,,,,,,,510.0595088,510.0698260999998,510.0698260999998,510.0698260999998,510.97040149999975,513.5040435000001,j,0,3.427823800000624,None,left,10,"[18, 19, 18, 20, 19, 20, 18, 20, 19, 20, 17, 18, 17, 18, 13, 14, 13, 14, 10, 13, 8, 10, 9, 10, 9]",25,shiftedgaze_L_10.png,j,0,1,results3,001,2026-04-13_11h18.43.578,mogelijke versie adaptive staircase builder,,2026.1.3,59.89695328181507,2026-04-13 11h18.45.152023 +0200,
4.5,ecc10pos,left,47,0,47,j,0,2.1789122000000134,None,0,0,0,0,47,0,47,0,513.5992882999999,,,,,,,,,,,,,,,513.5884371000002,513.5992882999999,513.5992882999999,513.5992882999999,514.5036571999999,515.7874449999999,j,0,2.1789122000000134,None,right,11,"[18, 19, 18, 20, 19, 20, 18, 20, 19, 20, 17, 18, 17, 18, 13, 14, 13, 14, 10, 13, 8, 10, 9, 10, 9]",25,shiftedgaze_R_11.png,j,0,1,results3,001,2026-04-13_11h18.43.578,mogelijke versie adaptive staircase builder,,2026.1.3,59.89695328181507,2026-04-13 11h18.45.152023 +0200,
4.5,ecc10pos,left,48,0,48,j,0,2.5591967000000295,None,0,0,0,0,48,0,48,0,515.8824445999999,,,,,,,,,,,,,,,515.8711979,515.8824445999999,515.8824445999999,515.8824445999999,516.8034128999998,518.4539616000002,j,0,2.5591967000000295,None,right,12,"[18, 19, 18, 20, 19, 20, 18, 20, 19, 20, 17, 18, 17, 18, 13, 14, 13, 14, 10, 13, 8, 10, 9, 10, 9]",25,shiftedgaze_R_12.png,j,0,1,results3,001,2026-04-13_11h18.43.578,mogelijke versie adaptive staircase builder,,2026.1.3,59.89695328181507,2026-04-13 11h18.45.152023 +0200,
4.5,ecc10pos,left,49,0,49,j,0,2.454203199999938,None,0,0,0,0,49,0,49,0,518.5474543999999,,,,,,,,,,,,,,,518.5366635,518.5474543999999,518.5474543999999,518.5474543999999,519.4535568000001,521.0039021000002,j,0,2.454203199999938,None,left,13,"[18, 19, 18, 20, 19, 20, 18, 20, 19, 20, 17, 18, 17, 18, 13, 14, 13, 14, 10, 13, 8, 10, 9, 10, 9]",25,shiftedgaze_L_13.png,j,0,1,results3,001,2026-04-13_11h18.43.578,mogelijke versie adaptive staircase builder,,2026.1.3,59.89695328181507,2026-04-13 11h18.45.152023 +0200,
4.5,ecc10pos,left,50,0,50,j,1,1.6318870999994033,None,0,0,0,0,50,0,50,0,521.0976947999998,,,,,,,,,,,,,,,521.0870929000002,521.0976947999998,521.0976947999998,521.0976947999998,522.0032386000003,522.7371167000001,j,1,1.6318870999994033,None,direct,14,"[18, 19, 18, 20, 19, 20, 18, 20, 19, 20, 17, 18, 17, 18, 13, 14, 13, 14, 10, 13, 8, 10, 9, 10, 9, 14]",26,shifteddirectgaze.png,j,1,1,results3,001,2026-04-13_11h18.43.578,mogelijke versie adaptive staircase builder,,2026.1.3,59.89695328181507,2026-04-13 11h18.45.152023 +0200,
4.5,ecc10pos,left,51,0,51,j,0,2.2106283000002804,None,0,0,0,0,51,0,51,0,522.8309916999997,,,,,,,,,,,,,,,522.8198225999995,522.8309916999997,522.8309916999997,522.8309916999997,523.7365903,525.0539051999995,j,0,2.2106283000002804,None,right,13,"[18, 19, 18, 20, 19, 20, 18, 20, 19, 20, 17, 18, 17, 18, 13, 14, 13, 14, 10, 13, 8, 10, 9, 10, 9, 14, 13]",27,shiftedgaze_R_13.png,j,0,1,results3,001,2026-04-13_11h18.43.578,mogelijke versie adaptive staircase builder,,2026.1.3,59.89695328181507,2026-04-13 11h18.45.152023 +0200,
4.5,ecc10pos,left,52,0,52,f,0,1.5803949000001012,None,0,0,0,0,52,0,52,0,525.1491848999995,,,,,,,,,,,,,,,525.1389399,525.1491848999995,525.1491848999995,525.1491848999995,526.0534257999998,526.7370691999995,f,0,1.5803949000001012,None,direct,14,"[18, 19, 18, 20, 19, 20, 18, 20, 19, 20, 17, 18, 17, 18, 13, 14, 13, 14, 10, 13, 8, 10, 9, 10, 9, 14, 13]",27,shifteddirectgaze.png,f,0,1,results3,001,2026-04-13_11h18.43.578,mogelijke versie adaptive staircase builder,,2026.1.3,59.89695328181507,2026-04-13 11h18.45.152023 +0200,
4.5,ecc10pos,left,53,0,53,f,0,2.6584805000002234,None,0,0,0,0,53,0,53,0,526.8311561999999,,,,,,,,,,,,,,,526.8202558000003,526.8311561999999,526.8311561999999,526.8311561999999,527.7367649999997,529.5038294999995,f,0,2.6584805000002234,None,direct,15,"[18, 19, 18, 20, 19, 20, 18, 20, 19, 20, 17, 18, 17, 18, 13, 14, 13, 14, 10, 13, 8, 10, 9, 10, 9, 14, 13]",27,shifteddirectgaze.png,f,0,1,results3,001,2026-04-13_11h18.43.578,mogelijke versie adaptive staircase builder,,2026.1.3,59.89695328181507,2026-04-13 11h18.45.152023 +0200,
4.5,ecc10pos,left,54,0,54,j,1,2.2751875000003565,None,0,0,0,0,54,0,54,0,529.5984361999999,,,,,,,,,,,,,,,529.5879515999995,529.5984361999999,529.5984361999999,529.5984361999999,530.5032409999994,531.8871970999999,j,1,2.2751875000003565,None,direct,16,"[18, 19, 18, 20, 19, 20, 18, 20, 19, 20, 17, 18, 17, 18, 13, 14, 13, 14, 10, 13, 8, 10, 9, 10, 9, 14, 13, 16]",28,shifteddirectgaze.png,j,1,1,results3,001,2026-04-13_11h18.43.578,mogelijke versie adaptive staircase builder,,2026.1.3,59.89695328181507,2026-04-13 11h18.45.152023 +0200,
4.5,ecc10pos,left,55,0,55,j,0,3.3730970999995407,None,0,0,0,0,55,0,55,0,531.9808592999998,,,,,,,,,,,,,,,531.9701555000001,531.9808592999998,531.9808592999998,531.9808592999998,532.8866430999997,535.3704163000002,j,0,3.3730970999995407,None,right,15,"[18, 19, 18, 20, 19, 20, 18, 20, 19, 20, 17, 18, 17, 18, 13, 14, 13, 14, 10, 13, 8, 10, 9, 10, 9, 14, 13, 16, 15]",29,shiftedgaze_R_15.png,j,0,1,results3,001,2026-04-13_11h18.43.578,mogelijke versie adaptive staircase builder,,2026.1.3,59.89695328181507,2026-04-13 11h18.45.152023 +0200,
4.5,ecc10pos,left,56,0,56,f,1,2.007756099999824,None,0,0,0,0,56,0,56,0,535.4659107999996,,,,,,,,,,,,,,,535.4549340000003,535.4659107999996,535.4659107999996,535.4659107999996,536.3698359999999,537.4869436999998,f,1,2.007756099999824,None,right,16,"[18, 19, 18, 20, 19, 20, 18, 20, 19, 20, 17, 18, 17, 18, 13, 14, 13, 14, 10, 13, 8, 10, 9, 10, 9, 14, 13, 16, 15, 16]",30,shiftedgaze_R_16.png,f,1,1,results3,001,2026-04-13_11h18.43.578,mogelijke versie adaptive staircase builder,,2026.1.3,59.89695328181507,2026-04-13 11h18.45.152023 +0200,
4.5,ecc10pos,left,57,0,57,j,0,2.217743199999859,None,0,0,0,0,57,0,57,0,537.5927204999998,,,,,,,,,,,,,,,537.5820673999997,537.5927204999998,537.5927204999998,537.5927204999998,538.4863938999997,539.8203880000001,j,0,2.217743199999859,None,left,15,"[18, 19, 18, 20, 19, 20, 18, 20, 19, 20, 17, 18, 17, 18, 13, 14, 13, 14, 10, 13, 8, 10, 9, 10, 9, 14, 13, 16, 15, 16, 15]",31,shiftedgaze_L_15.png,j,0,1,results3,001,2026-04-13_11h18.43.578,mogelijke versie adaptive staircase builder,,2026.1.3,59.89695328181507,2026-04-13 11h18.45.152023 +0200,
4.5,ecc10pos,left,58,0,58,j,1,1.7724640999995245,None,0,0,0,0,58,0,58,0,539.9252169000001,,,,,,,,,,,,,,,539.9149471999999,539.9252169000001,539.9252169000001,539.9252169000001,540.8365563999996,541.7036511999995,j,1,1.7724640999995245,None,direct,16,"[18, 19, 18, 20, 19, 20, 18, 20, 19, 20, 17, 18, 17, 18, 13, 14, 13, 14, 10, 13, 8, 10, 9, 10, 9, 14, 13, 16, 15, 16, 15, 16]",32,shifteddirectgaze.png,j,1,1,results3,001,2026-04-13_11h18.43.578,mogelijke versie adaptive staircase builder,,2026.1.3,59.89695328181507,2026-04-13 11h18.45.152023 +0200,
4.5,ecc10pos,left,59,0,59,j,0,1.280565199999728,None,0,0,0,0,59,0,59,0,541.8090022999995,,,,,,,,,,,,,,,541.7983895999996,541.8090022999995,541.8090022999995,541.8090022999995,542.7030224,543.1036140999995,j,0,1.280565199999728,None,left,15,"[18, 19, 18, 20, 19, 20, 18, 20, 19, 20, 17, 18, 17, 18, 13, 14, 13, 14, 10, 13, 8, 10, 9, 10, 9, 14, 13, 16, 15, 16, 15, 16, 15]",33,shiftedgaze_L_15.png,j,0,1,results3,001,2026-04-13_11h18.43.578,mogelijke versie adaptive staircase builder,,2026.1.3,59.89695328181507,2026-04-13 11h18.45.152023 +0200,
4.5,ecc10pos,left,0,0,0,,,,,0,0,0,0,,,,,,,,,,,,,,,,,,,,,,,,,,,,,,,,,,,,,,results3,001,2026-04-13_11h18.43.578,mogelijke versie adaptive staircase builder,,2026.1.3,59.89695328181507,2026-04-13 11h18.45.152023 +0200,
12.5,ecc0,mid,0,0,0,j,0,3.367713200000253,None,0,1,1,1,0,0,0,0,543.2097586999998,,,,,,,,,,,,,543.1061546000001,543.1061905999995,543.1995201999998,543.2097586999998,544.1197597,543.2097586999998,543.2097586999998,546.5869462999999,j,0,3.367713200000253,None,right,20,[],0,gaze_R_20.png,j,0,2,results3,001,2026-04-13_11h18.43.578,mogelijke versie adaptive staircase builder,,2026.1.3,59.89695328181507,2026-04-13 11h18.45.152023 +0200,
12.5,ecc0,mid,1,0,1,f,1,2.6169988000001467,None,0,1,1,1,1,0,1,0,546.6806232999998,,,,,,,,,,,,,,,546.6695634999996,546.6806232999998,547.58626,546.6806232999998,546.6806232999998,549.3034737999997,f,1,2.6169988000001467,None,right,20,[20],1,gaze_R_20.png,f,1,2,results3,001,2026-04-13_11h18.43.578,mogelijke versie adaptive staircase builder,,2026.1.3,59.89695328181507,2026-04-13 11h18.45.152023 +0200,
12.5,ecc0,mid,2,0,2,f,1,2.381766399999833,None,0,1,1,1,2,0,2,0,549.3967437000001,,,,,,,,,,,,,,,549.3854196000002,549.3967437000001,550.3029441999997,549.3967437000001,549.3967437000001,551.7869386000002,f,1,2.381766399999833,None,right,19,[20],1,gaze_R_19.png,f,1,2,results3,001,2026-04-13_11h18.43.578,mogelijke versie adaptive staircase builder,,2026.1.3,59.89695328181507,2026-04-13 11h18.45.152023 +0200,
12.5,ecc0,mid,3,0,3,j,1,2.192059899999549,None,0,1,1,1,3,0,3,0,551.8815900999998,,,,,,,,,,,,,,,551.8712715000001,551.8815900999998,552.7863005999998,551.8815900999998,551.8815900999998,554.0868585999997,j,1,2.192059899999549,None,direct,18,[20],1,direct_gaze.png,j,1,2,results3,001,2026-04-13_11h18.43.578,mogelijke versie adaptive staircase builder,,2026.1.3,59.89695328181507,2026-04-13 11h18.45.152023 +0200,
12.5,ecc0,mid,4,0,4,f,1,2.8836304999995264,None,0,1,1,1,4,0,4,0,554.1900189999997,,,,,,,,,,,,,,,554.1791260999998,554.1900189999997,555.0863764999995,554.1900189999997,554.1900189999997,557.0868418999999,f,1,2.8836304999995264,None,left,17,[20],1,gaze_L_17.png,f,1,2,results3,001,2026-04-13_11h18.43.578,mogelijke versie adaptive staircase builder,,2026.1.3,59.89695328181507,2026-04-13 11h18.45.152023 +0200,
12.5,ecc0,mid,5,0,5,j,1,1.708312200000364,None,0,1,1,1,5,0,5,0,557.1812626999999,,,,,,,,,,,,,,,557.1702272000002,557.1812626999999,558.0860979999998,557.1812626999999,557.1812626999999,558.9033410000002,j,1,1.708312200000364,None,direct,16,[20],1,direct_gaze.png,j,1,2,results3,001,2026-04-13_11h18.43.578,mogelijke versie adaptive staircase builder,,2026.1.3,59.89695328181507,2026-04-13 11h18.45.152023 +0200,
12.5,ecc0,mid,6,0,6,f,1,2.0593822000000728,None,0,1,1,1,6,0,6,0,559.0062035000001,,,,,,,,,,,,,,,558.9957679999998,559.0062035000001,559.9028791999999,559.0062035000001,559.0062035000001,561.0700521999997,f,1,2.0593822000000728,None,left,15,[20],1,gaze_L_15.png,f,1,2,results3,001,2026-04-13_11h18.43.578,mogelijke versie adaptive staircase builder,,2026.1.3,59.89695328181507,2026-04-13 11h18.45.152023 +0200,
12.5,ecc0,mid,7,0,7,f,1,1.5052973000001657,None,0,1,1,1,7,0,7,0,561.912327,,,,,,,,,,,,,,,561.9014099999995,561.912327,562.0695987999998,561.912327,561.912327,563.4200241999997,f,1,1.5052973000001657,None,left,14,[20],1,gaze_L_14.png,f,1,2,results3,001,2026-04-13_11h18.43.578,mogelijke versie adaptive staircase builder,,2026.1.3,59.89695328181507,2026-04-13 11h18.45.152023 +0200,
12.5,ecc0,mid,8,0,8,j,1,1.8269097000002148,None,0,1,1,1,8,0,8,0,563.5106009000001,,,,,,,,,,,,,,,563.4996744,563.5106009000001,564.4193211000002,563.5106009000001,563.5106009000001,565.3532929000003,j,1,1.8269097000002148,None,direct,13,[20],1,direct_gaze.png,j,1,2,results3,001,2026-04-13_11h18.43.578,mogelijke versie adaptive staircase builder,,2026.1.3,59.89695328181507,2026-04-13 11h18.45.152023 +0200,
12.5,ecc0,mid,9,0,9,j,0,1.9744117000000188,None,0,1,1,1,9,0,9,0,565.4430628999999,,,,,,,,,,,,,,,565.4329286000002,565.4430628999999,566.3528912000002,565.4430628999999,565.4430628999999,567.4201520999995,j,0,1.9744117000000188,None,left,12,"[20, 12]",2,gaze_L_12.png,j,0,2,results3,001,2026-04-13_11h18.43.578,mogelijke versie adaptive staircase builder,,2026.1.3,59.89695328181507,2026-04-13 11h18.45.152023 +0200,
12.5,ecc0,mid,10,0,10,f,1,1.683953400000064,None,0,1,1,1,10,0,10,0,567.5104946000001,,,,,,,,,,,,,,,567.4996811999999,567.5104946000001,568.4196111000001,567.5104946000001,567.5104946000001,569.2031657999996,f,1,1.683953400000064,None,right,13,"[20, 12, 13]",3,gaze_R_13.png,f,1,2,results3,001,2026-04-13_11h18.43.578,mogelijke versie adaptive staircase builder,,2026.1.3,59.89695328181507,2026-04-13 11h18.45.152023 +0200,
12.5,ecc0,mid,11,0,11,j,1,1.7773321000004216,None,0,1,1,1,11,0,11,0,569.2961766999997,,,,,,,,,,,,,,,569.2828964999999,569.2961766999997,570.2027891999996,569.2961766999997,569.2961766999997,571.0865249999997,j,1,1.7773321000004216,None,direct,12,"[20, 12, 13]",3,direct_gaze.png,j,1,2,results3,001,2026-04-13_11h18.43.578,mogelijke versie adaptive staircase builder,,2026.1.3,59.89695328181507,2026-04-13 11h18.45.152023 +0200,
12.5,ecc0,mid,12,0,12,j,1,2.8096927000005962,None,0,1,1,1,12,0,12,0,571.1761297000003,,,,,,,,,,,,,,,571.1657815999997,571.1761297000003,572.0860909000003,571.1761297000003,571.1761297000003,573.986656,j,1,2.8096927000005962,None,direct,11,"[20, 12, 13]",3,direct_gaze.png,j,1,2,results3,001,2026-04-13_11h18.43.578,mogelijke versie adaptive staircase builder,,2026.1.3,59.89695328181507,2026-04-13 11h18.45.152023 +0200,
12.5,ecc0,mid,13,0,13,f,1,1.7870704000006299,None,0,1,1,1,13,0,13,0,574.1665136000001,,,,,,,,,,,,,,,574.1555374,574.1665136000001,574.9862002999998,574.1665136000001,574.1665136000001,575.9700801999998,f,1,1.7870704000006299,None,right,10,"[20, 12, 13]",3,gaze_R_10.png,f,1,2,results3,001,2026-04-13_11h18.43.578,mogelijke versie adaptive staircase builder,,2026.1.3,59.89695328181507,2026-04-13 11h18.45.152023 +0200,
12.5,ecc0,mid,14,0,14,f,1,0.4477356999996118,None,0,1,1,1,14,0,14,0,576.9938853000003,,,,,,,,,,,,,,,576.9817189999994,576.9938853000003,576.9938853000003,576.9938853000003,576.9938853000003,577.4531483000001,f,1,0.4477356999996118,None,right,9,"[20, 12, 13]",3,gaze_R_9.png,f,1,2,results3,001,2026-04-13_11h18.43.578,mogelijke versie adaptive staircase builder,,2026.1.3,59.89695328181507,2026-04-13 11h18.45.152023 +0200,
12.5,ecc0,mid,15,0,15,f,1,1.771820700000717,None,0,1,1,1,15,0,15,0,577.6457338,,,,,,,,,,,,,,,577.6360325999995,577.6457338,578.4524472000003,577.6457338,577.6457338,579.4195840000002,f,1,1.771820700000717,None,left,8,"[20, 12, 13]",3,gaze_L_8.png,f,1,2,results3,001,2026-04-13_11h18.43.578,mogelijke versie adaptive staircase builder,,2026.1.3,59.89695328181507,2026-04-13 11h18.45.152023 +0200,
12.5,ecc0,mid,16,0,16,j,1,1.673800200000187,None,0,1,1,1,16,0,16,0,579.5119969999996,,,,,,,,,,,,,,,579.5016642,579.5119969999996,580.4191085000002,579.5119969999996,579.5119969999996,581.1864783999999,j,1,1.673800200000187,None,direct,7,"[20, 12, 13]",3,direct_gaze.png,j,1,2,results3,001,2026-04-13_11h18.43.578,mogelijke versie adaptive staircase builder,,2026.1.3,59.89695328181507,2026-04-13 11h18.45.152023 +0200,
12.5,ecc0,mid,17,0,17,j,1,1.425503700000263,None,0,1,1,1,17,0,17,0,581.2800654000002,,,,,,,,,,,,,,,581.2692048999997,581.2800654000002,582.185993,581.2800654000002,581.2800654000002,582.7192212,j,1,1.425503700000263,None,direct,6,"[20, 12, 13]",3,direct_gaze.png,j,1,2,results3,001,2026-04-13_11h18.43.578,mogelijke versie adaptive staircase builder,,2026.1.3,59.89695328181507,2026-04-13 11h18.45.152023 +0200,
12.5,ecc0,mid,18,0,18,j,0,0.7677939000004699,None,0,1,1,1,18,0,18,0,583.4338578999996,,,,,,,,,,,,,,,583.4238159999995,583.4338578999996,583.7193050999995,583.4338578999996,583.4338578999996,584.2031082000003,j,0,0.7677939000004699,None,left,5,"[20, 12, 13, 5]",4,gaze_L_5.png,j,0,2,results3,001,2026-04-13_11h18.43.578,mogelijke versie adaptive staircase builder,,2026.1.3,59.89695328181507,2026-04-13 11h18.45.152023 +0200,
12.5,ecc0,mid,19,0,19,j,1,1.6590158999997584,None,0,1,1,1,19,0,19,0,584.2944980000002,,,,,,,,,,,,,,,584.2839844999999,584.2944980000002,585.2025038000002,584.2944980000002,584.2944980000002,585.9697987,j,1,1.6590158999997584,None,direct,6,"[20, 12, 13, 5, 6]",5,direct_gaze.png,j,1,2,results3,001,2026-04-13_11h18.43.578,mogelijke versie adaptive staircase builder,,2026.1.3,59.89695328181507,2026-04-13 11h18.45.152023 +0200,
12.5,ecc0,mid,20,0,20,j,0,1.5503400000006877,None,0,1,1,1,20,0,20,0,586.0595458999996,,,,,,,,,,,,,,,586.0485292000003,586.0595458999996,586.9692378999998,586.0595458999996,586.0595458999996,587.6196775999997,j,0,1.5503400000006877,None,left,5,"[20, 12, 13, 5, 6, 5]",6,gaze_L_5.png,j,0,2,results3,001,2026-04-13_11h18.43.578,mogelijke versie adaptive staircase builder,,2026.1.3,59.89695328181507,2026-04-13 11h18.45.152023 +0200,
12.5,ecc0,mid,21,0,21,j,1,2.2926367000000027,None,0,1,1,1,21,0,21,0,587.7092359999997,,,,,,,,,,,,,,,587.6986348999999,587.7092359999997,588.6193059999996,587.7092359999997,587.7092359999997,590.0029374999995,j,1,2.2926367000000027,None,direct,6,"[20, 12, 13, 5, 6, 5, 6]",7,direct_gaze.png,j,1,2,results3,001,2026-04-13_11h18.43.578,mogelijke versie adaptive staircase builder,,2026.1.3,59.89695328181507,2026-04-13 11h18.45.152023 +0200,
12.5,ecc0,mid,22,0,22,j,0,1.7454195999998774,None,0,1,1,1,22,0,22,0,590.1841542000002,,,,,,,,,,,,,,,590.1737517000001,590.1841542000002,591.0190229999998,590.1841542000002,590.1841542000002,591.9358002999998,j,0,1.7454195999998774,None,right,5,"[20, 12, 13, 5, 6, 5, 6, 5]",8,gaze_R_5.png,j,0,2,results3,001,2026-04-13_11h18.43.578,mogelijke versie adaptive staircase builder,,2026.1.3,59.89695328181507,2026-04-13 11h18.45.152023 +0200,
12.5,ecc0,mid,23,0,23,j,0,1.2028931999993802,None,0,1,1,1,23,0,23,0,592.1586791999998,,,,,,,,,,,,,,,592.1471528000002,592.1586791999998,592.9357951000002,592.1586791999998,592.1586791999998,593.3695159999997,j,0,1.2028931999993802,None,left,6,"[20, 12, 13, 5, 6, 5, 6, 5]",8,gaze_L_6.png,j,0,2,results3,001,2026-04-13_11h18.43.578,mogelijke versie adaptive staircase builder,,2026.1.3,59.89695328181507,2026-04-13 11h18.45.152023 +0200,
12.5,ecc0,mid,24,0,24,j,0,1.4757098999998561,None,0,1,1,1,24,0,24,0,593.5503364999995,,,,,,,,,,,,,,,593.5397482999997,593.5503364999995,594.3689177999995,593.5503364999995,593.5503364999995,595.0361131,j,0,1.4757098999998561,None,right,7,"[20, 12, 13, 5, 6, 5, 6, 5]",8,gaze_R_7.png,j,0,2,results3,001,2026-04-13_11h18.43.578,mogelijke versie adaptive staircase builder,,2026.1.3,59.89695328181507,2026-04-13 11h18.45.152023 +0200,
12.5,ecc0,mid,25,0,25,j,1,1.6838112999994337,None,0,1,1,1,25,0,25,0,595.1259480999997,,,,,,,,,,,,,,,595.1149272000002,595.1259480999997,596.0355140000001,595.1259480999997,595.1259480999997,596.8194458999997,j,1,1.6838112999994337,None,direct,8,"[20, 12, 13, 5, 6, 5, 6, 5, 8]",9,direct_gaze.png,j,1,2,results3,001,2026-04-13_11h18.43.578,mogelijke versie adaptive staircase builder,,2026.1.3,59.89695328181507,2026-04-13 11h18.45.152023 +0200,
12.5,ecc0,mid,26,0,26,j,0,1.2043786999993245,None,0,1,1,1,26,0,26,0,597.1811514000001,,,,,,,,,,,,,,,597.1711862000002,597.1811514000001,597.8191712999997,597.1811514000001,597.1811514000001,598.3860274999997,j,0,1.2043786999993245,None,left,7,"[20, 12, 13, 5, 6, 5, 6, 5, 8, 7]",10,gaze_L_7.png,j,0,2,results3,001,2026-04-13_11h18.43.578,mogelijke versie adaptive staircase builder,,2026.1.3,59.89695328181507,2026-04-13 11h18.45.152023 +0200,
12.5,ecc0,mid,27,0,27,f,1,2.11445410000033,None,0,1,1,1,27,0,27,0,598.5670405000001,,,,,,,,,,,,,,,598.5561614999997,598.5670405000001,599.3856678000002,598.5670405000001,598.5670405000001,600.6858763999999,f,1,2.11445410000033,None,right,8,"[20, 12, 13, 5, 6, 5, 6, 5, 8, 7, 8]",11,gaze_R_8.png,f,1,2,results3,001,2026-04-13_11h18.43.578,mogelijke versie adaptive staircase builder,,2026.1.3,59.89695328181507,2026-04-13 11h18.45.152023 +0200,
12.5,ecc0,mid,28,0,28,f,0,1.384584000000359,None,0,1,1,1,28,0,28,0,600.7770025,,,,,,,,,,,,,,,600.7660255999999,600.7770025,601.6856570999998,600.7770025,600.7770025,602.1696950999994,f,0,1.384584000000359,None,direct,7,"[20, 12, 13, 5, 6, 5, 6, 5, 8, 7, 8, 7]",12,direct_gaze.png,f,0,2,results3,001,2026-04-13_11h18.43.578,mogelijke versie adaptive staircase builder,,2026.1.3,59.89695328181507,2026-04-13 11h18.45.152023 +0200,
12.5,ecc0,mid,29,0,29,j,1,1.5138489999999365,None,0,1,1,1,29,0,29,0,602.2636952000003,,,,,,,,,,,,,,,602.2531626,602.2636952000003,603.1690400999996,602.2636952000003,602.2636952000003,603.7858015000002,j,1,1.5138489999999365,None,direct,8,"[20, 12, 13, 5, 6, 5, 6, 5, 8, 7, 8, 7, 8]",13,direct_gaze.png,j,1,2,results3,001,2026-04-13_11h18.43.578,mogelijke versie adaptive staircase builder,,2026.1.3,59.89695328181507,2026-04-13 11h18.45.152023 +0200,
12.5,ecc0,mid,30,0,30,j,0,1.7343590999998924,None,0,1,1,1,30,0,30,0,603.8751787000001,,,,,,,,,,,,,,,603.8644601999995,603.8751787000001,604.7855098999999,603.8751787000001,603.8751787000001,605.6195687,j,0,1.7343590999998924,None,right,7,"[20, 12, 13, 5, 6, 5, 6, 5, 8, 7, 8, 7, 8, 7]",14,gaze_R_7.png,j,0,2,results3,001,2026-04-13_11h18.43.578,mogelijke versie adaptive staircase builder,,2026.1.3,59.89695328181507,2026-04-13 11h18.45.152023 +0200,
12.5,ecc0,mid,31,0,31,j,0,2.03616460000012,None,0,1,1,1,31,0,31,0,605.7094533999998,,,,,,,,,,,,,,,605.6982872999997,605.7094533999998,606.6189838999999,605.7094533999998,605.7094533999998,607.7528260999998,j,0,2.03616460000012,None,left,8,"[20, 12, 13, 5, 6, 5, 6, 5, 8, 7, 8, 7, 8, 7]",14,gaze_L_8.png,j,0,2,results3,001,2026-04-13_11h18.43.578,mogelijke versie adaptive staircase builder,,2026.1.3,59.89695328181507,2026-04-13 11h18.45.152023 +0200,
12.5,ecc0,mid,32,0,32,j,1,2.1760265999992043,None,0,1,1,1,32,0,32,0,607.8416809999999,,,,,,,,,,,,,,,607.8308845000001,607.8416809999999,608.7522888000003,607.8416809999999,607.8416809999999,610.0192883999998,j,1,2.1760265999992043,None,direct,9,"[20, 12, 13, 5, 6, 5, 6, 5, 8, 7, 8, 7, 8, 7, 9]",15,direct_gaze.png,j,1,2,results3,001,2026-04-13_11h18.43.578,mogelijke versie adaptive staircase builder,,2026.1.3,59.89695328181507,2026-04-13 11h18.45.152023 +0200,
12.5,ecc0,mid,33,0,33,f,1,1.6295632000001206,None,0,1,1,1,33,0,33,0,610.1080102999995,,,,,,,,,,,,,,,610.0963495999995,610.1080102999995,611.0187245999996,610.1080102999995,610.1080102999995,611.7528090999995,f,1,1.6295632000001206,None,right,8,"[20, 12, 13, 5, 6, 5, 6, 5, 8, 7, 8, 7, 8, 7, 9]",15,gaze_R_8.png,f,1,2,results3,001,2026-04-13_11h18.43.578,mogelijke versie adaptive staircase builder,,2026.1.3,59.89695328181507,2026-04-13 11h18.45.152023 +0200,
12.5,ecc0,mid,34,0,34,j,0,1.4153501000000688,None,0,1,1,1,34,0,34,0,611.8422015999995,,,,,,,,,,,,,,,611.8322011999999,611.8422015999995,612.7522200000003,611.8422015999995,611.8422015999995,613.2692071000001,j,0,1.4153501000000688,None,left,7,"[20, 12, 13, 5, 6, 5, 6, 5, 8, 7, 8, 7, 8, 7, 9, 7]",16,gaze_L_7.png,j,0,2,results3,001,2026-04-13_11h18.43.578,mogelijke versie adaptive staircase builder,,2026.1.3,59.89695328181507,2026-04-13 11h18.45.152023 +0200,
12.5,ecc0,mid,35,0,35,j,0,1.3153652999999395,None,0,1,1,1,35,0,35,0,613.3582673999999,,,,,,,,,,,,,,,613.3477376999999,613.3582673999999,614.2688185999996,613.3582673999999,613.3582673999999,614.6858455000001,j,0,1.3153652999999395,None,left,8,"[20, 12, 13, 5, 6, 5, 6, 5, 8, 7, 8, 7, 8, 7, 9, 7]",16,gaze_L_8.png,j,0,2,results3,001,2026-04-13_11h18.43.578,mogelijke versie adaptive staircase builder,,2026.1.3,59.89695328181507,2026-04-13 11h18.45.152023 +0200,
12.5,ecc0,mid,36,0,36,j,0,1.3745175000003655,None,0,1,1,1,36,0,36,0,614.8676753999998,,,,,,,,,,,,,,,614.8566535,614.8676753999998,615.6856742,614.8676753999998,614.8676753999998,616.2525976999996,j,0,1.3745175000003655,None,left,9,"[20, 12, 13, 5, 6, 5, 6, 5, 8, 7, 8, 7, 8, 7, 9, 7]",16,gaze_L_9.png,j,0,2,results3,001,2026-04-13_11h18.43.578,mogelijke versie adaptive staircase builder,,2026.1.3,59.89695328181507,2026-04-13 11h18.45.152023 +0200,
12.5,ecc0,mid,37,0,37,j,0,1.6576186000002053,None,0,1,1,1,37,0,37,0,617.4079175999996,,,,,,,,,,,,,,,617.3954617999998,617.4079175999996,617.4079175999996,617.4079175999996,617.4079175999996,619.0690199999999,j,0,1.6576186000002053,None,left,10,"[20, 12, 13, 5, 6, 5, 6, 5, 8, 7, 8, 7, 8, 7, 9, 7]",16,gaze_L_10.png,j,0,2,results3,001,2026-04-13_11h18.43.578,mogelijke versie adaptive staircase builder,,2026.1.3,59.89695328181507,2026-04-13 11h18.45.152023 +0200,
12.5,ecc0,mid,38,0,38,f,1,2.245281100000284,None,0,1,1,1,38,0,38,0,619.1972758000002,,,,,,,,,,,,,,,619.1862008999997,619.1972758000002,620.0686186000003,619.1972758000002,619.1972758000002,621.4528680000003,f,1,2.245281100000284,None,right,11,"[20, 12, 13, 5, 6, 5, 6, 5, 8, 7, 8, 7, 8, 7, 9, 7, 11]",17,gaze_R_11.png,f,1,2,results3,001,2026-04-13_11h18.43.578,mogelijke versie adaptive staircase builder,,2026.1.3,59.89695328181507,2026-04-13 11h18.45.152023 +0200,
12.5,ecc0,mid,39,0,39,f,0,1.7786433999999645,None,0,1,1,1,39,0,39,0,621.5430054999997,,,,,,,,,,,,,,,621.5319067999999,621.5430054999997,622.4685380000001,621.5430054999997,621.5430054999997,623.3359652999998,f,0,1.7786433999999645,None,direct,10,"[20, 12, 13, 5, 6, 5, 6, 5, 8, 7, 8, 7, 8, 7, 9, 7, 11, 10]",18,direct_gaze.png,f,0,2,results3,001,2026-04-13_11h18.43.578,mogelijke versie adaptive staircase builder,,2026.1.3,59.89695328181507,2026-04-13 11h18.45.152023 +0200,
12.5,ecc0,mid,40,0,40,j,0,1.4882735999999568,None,0,1,1,1,40,0,40,0,623.4652795000002,,,,,,,,,,,,,,,623.4551541000001,623.4652795000002,624.3354844999994,623.4652795000002,623.4652795000002,624.9690536999997,j,0,1.4882735999999568,None,left,11,"[20, 12, 13, 5, 6, 5, 6, 5, 8, 7, 8, 7, 8, 7, 9, 7, 11, 10]",18,gaze_L_11.png,j,0,2,results3,001,2026-04-13_11h18.43.578,mogelijke versie adaptive staircase builder,,2026.1.3,59.89695328181507,2026-04-13 11h18.45.152023 +0200,
12.5,ecc0,mid,41,0,41,f,1,1.4509589000008418,None,0,1,1,1,41,0,41,0,625.0625897999998,,,,,,,,,,,,,,,625.0515661,625.0625897999998,625.9684811999996,625.0625897999998,625.0625897999998,626.5189032999997,f,1,1.4509589000008418,None,right,12,"[20, 12, 13, 5, 6, 5, 6, 5, 8, 7, 8, 7, 8, 7, 9, 7, 11, 10, 12]",19,gaze_R_12.png,f,1,2,results3,001,2026-04-13_11h18.43.578,mogelijke versie adaptive staircase builder,,2026.1.3,59.89695328181507,2026-04-13 11h18.45.152023 +0200,
12.5,ecc0,mid,42,0,42,j,1,2.960917600000357,None,0,1,1,1,42,0,42,0,626.6087103999998,,,,,,,,,,,,,,,626.5980438999995,626.6087103999998,627.5187878999996,626.6087103999998,626.6087103999998,629.5857705999997,j,1,2.960917600000357,None,direct,11,"[20, 12, 13, 5, 6, 5, 6, 5, 8, 7, 8, 7, 8, 7, 9, 7, 11, 10, 12]",19,direct_gaze.png,j,1,2,results3,001,2026-04-13_11h18.43.578,mogelijke versie adaptive staircase builder,,2026.1.3,59.89695328181507,2026-04-13 11h18.45.152023 +0200,
12.5,ecc0,mid,43,0,43,f,1,1.7661600999999791,None,0,1,1,1,43,0,43,0,629.6761078,,,,,,,,,,,,,,,629.6655406,629.6761078,630.5852292,629.6761078,629.6761078,631.4526657999995,f,1,1.7661600999999791,None,right,10,"[20, 12, 13, 5, 6, 5, 6, 5, 8, 7, 8, 7, 8, 7, 9, 7, 11, 10, 12]",19,gaze_R_10.png,f,1,2,results3,001,2026-04-13_11h18.43.578,mogelijke versie adaptive staircase builder,,2026.1.3,59.89695328181507,2026-04-13 11h18.45.152023 +0200,
12.5,ecc0,mid,44,0,44,j,0,2.073276000000078,None,0,1,1,1,44,0,44,0,631.5443653000002,,,,,,,,,,,,,,,631.5333584999998,631.5443653000002,632.4532417,631.5443653000002,631.5443653000002,633.6190681999997,j,0,2.073276000000078,None,left,9,"[20, 12, 13, 5, 6, 5, 6, 5, 8, 7, 8, 7, 8, 7, 9, 7, 11, 10, 12, 9]",20,gaze_L_9.png,j,0,2,results3,001,2026-04-13_11h18.43.578,mogelijke versie adaptive staircase builder,,2026.1.3,59.89695328181507,2026-04-13 11h18.45.152023 +0200,
12.5,ecc0,mid,45,0,45,j,0,1.576784800000496,None,0,1,1,1,45,0,45,0,633.7127380000002,,,,,,,,,,,,,,,633.7015523999999,633.7127380000002,634.6185622000003,633.7127380000002,633.7127380000002,635.3023406000002,j,0,1.576784800000496,None,left,10,"[20, 12, 13, 5, 6, 5, 6, 5, 8, 7, 8, 7, 8, 7, 9, 7, 11, 10, 12, 9]",20,gaze_L_10.png,j,0,2,results3,001,2026-04-13_11h18.43.578,mogelijke versie adaptive staircase builder,,2026.1.3,59.89695328181507,2026-04-13 11h18.45.152023 +0200,
12.5,ecc0,mid,46,0,46,j,0,1.3272625999998127,None,0,1,1,1,46,0,46,0,635.3942764000003,,,,,,,,,,,,,,,635.3833772999997,635.3942764000003,636.3018933000003,635.3942764000003,635.3942764000003,636.7356786,j,0,1.3272625999998127,None,left,11,"[20, 12, 13, 5, 6, 5, 6, 5, 8, 7, 8, 7, 8, 7, 9, 7, 11, 10, 12, 9]",20,gaze_L_11.png,j,0,2,results3,001,2026-04-13_11h18.43.578,mogelijke versie adaptive staircase builder,,2026.1.3,59.89695328181507,2026-04-13 11h18.45.152023 +0200,
12.5,ecc0,mid,47,0,47,j,1,1.1464224999999715,None,0,1,1,1,47,0,47,0,636.8311992999998,,,,,,,,,,,,,,,636.8178239999997,636.8311992999998,637.7352585999997,636.8311992999998,636.8311992999998,637.9855132000002,j,1,1.1464224999999715,None,direct,12,"[20, 12, 13, 5, 6, 5, 6, 5, 8, 7, 8, 7, 8, 7, 9, 7, 11, 10, 12, 9, 12]",21,direct_gaze.png,j,1,2,results3,001,2026-04-13_11h18.43.578,mogelijke versie adaptive staircase builder,,2026.1.3,59.89695328181507,2026-04-13 11h18.45.152023 +0200,
12.5,ecc0,mid,48,0,48,f,1,1.397123400000055,None,0,1,1,1,48,0,48,0,638.0764213000002,,,,,,,,,,,,,,,638.0660833000002,638.0764213000002,638.9848955999996,638.0764213000002,638.0764213000002,639.4855914,f,1,1.397123400000055,None,right,11,"[20, 12, 13, 5, 6, 5, 6, 5, 8, 7, 8, 7, 8, 7, 9, 7, 11, 10, 12, 9, 12]",21,gaze_R_11.png,f,1,2,results3,001,2026-04-13_11h18.43.578,mogelijke versie adaptive staircase builder,,2026.1.3,59.89695328181507,2026-04-13 11h18.45.152023 +0200,
12.5,ecc0,mid,49,0,49,f,1,2.6864801000001535,None,0,1,1,1,49,0,49,0,639.5790687999997,,,,,,,,,,,,,,,639.5682684000003,639.5790687999997,640.4853043000003,639.5790687999997,639.5790687999997,642.2687174000002,f,1,2.6864801000001535,None,left,10,"[20, 12, 13, 5, 6, 5, 6, 5, 8, 7, 8, 7, 8, 7, 9, 7, 11, 10, 12, 9, 12]",21,gaze_L_10.png,f,1,2,results3,001,2026-04-13_11h18.43.578,mogelijke versie adaptive staircase builder,,2026.1.3,59.89695328181507,2026-04-13 11h18.45.152023 +0200,
12.5,ecc0,mid,50,0,50,f,1,1.6865128999997978,None,0,1,1,1,50,0,50,0,642.3710854999999,,,,,,,,,,,,,,,642.3612094999999,642.3710854999999,643.2682026000002,642.3710854999999,642.3710854999999,644.0689483999995,f,1,1.6865128999997978,None,right,9,"[20, 12, 13, 5, 6, 5, 6, 5, 8, 7, 8, 7, 8, 7, 9, 7, 11, 10, 12, 9, 12]",21,gaze_R_9.png,f,1,2,results3,001,2026-04-13_11h18.43.578,mogelijke versie adaptive staircase builder,,2026.1.3,59.89695328181507,2026-04-13 11h18.45.152023 +0200,
12.5,ecc0,mid,51,0,51,j,0,1.4908500000001368,None,0,1,1,1,51,0,51,0,644.1667415000002,,,,,,,,,,,,,,,644.1566780000003,644.1667415000002,645.0681942000001,644.1667415000002,644.1667415000002,645.6688122999994,j,0,1.4908500000001368,None,left,8,"[20, 12, 13, 5, 6, 5, 6, 5, 8, 7, 8, 7, 8, 7, 9, 7, 11, 10, 12, 9, 12, 8]",22,gaze_L_8.png,j,0,2,results3,001,2026-04-13_11h18.43.578,mogelijke versie adaptive staircase builder,,2026.1.3,59.89695328181507,2026-04-13 11h18.45.152023 +0200,
12.5,ecc0,mid,52,0,52,j,0,1.9513720999993893,None,0,1,1,1,52,0,52,0,645.7702055,,,,,,,,,,,,,,,645.7602164999998,645.7702055,646.6682762,645.7702055,645.7702055,647.7357623999997,j,0,1.9513720999993893,None,right,9,"[20, 12, 13, 5, 6, 5, 6, 5, 8, 7, 8, 7, 8, 7, 9, 7, 11, 10, 12, 9, 12, 8]",22,gaze_R_9.png,j,0,2,results3,001,2026-04-13_11h18.43.578,mogelijke versie adaptive staircase builder,,2026.1.3,59.89695328181507,2026-04-13 11h18.45.152023 +0200,
12.5,ecc0,mid,53,0,53,f,1,1.3970209999997678,None,0,1,1,1,53,0,53,0,647.8365537,,,,,,,,,,,,,,,647.8254240999995,647.8365537,648.7517484,647.8365537,647.8365537,649.2353900999997,f,1,1.3970209999997678,None,left,10,"[20, 12, 13, 5, 6, 5, 6, 5, 8, 7, 8, 7, 8, 7, 9, 7, 11, 10, 12, 9, 12, 8, 10]",23,gaze_L_10.png,f,1,2,results3,001,2026-04-13_11h18.43.578,mogelijke versie adaptive staircase builder,,2026.1.3,59.89695328181507,2026-04-13 11h18.45.152023 +0200,
12.5,ecc0,mid,54,0,54,f,1,1.848587899999984,None,0,1,1,1,54,0,54,0,649.3290221999996,,,,,,,,,,,,,,,649.3179111999998,649.3290221999996,650.2351133000002,649.3290221999996,649.3290221999996,651.1854088999999,f,1,1.848587899999984,None,left,9,"[20, 12, 13, 5, 6, 5, 6, 5, 8, 7, 8, 7, 8, 7, 9, 7, 11, 10, 12, 9, 12, 8, 10]",23,gaze_L_9.png,f,1,2,results3,001,2026-04-13_11h18.43.578,mogelijke versie adaptive staircase builder,,2026.1.3,59.89695328181507,2026-04-13 11h18.45.152023 +0200,
12.5,ecc0,mid,55,0,55,f,1,2.868816500000321,None,0,1,1,1,55,0,55,0,651.2767266999999,,,,,,,,,,,,,,,651.2661415000002,651.2767266999999,652.1848322999995,651.2767266999999,651.2767266999999,654.1520227000001,f,1,2.868816500000321,None,right,8,"[20, 12, 13, 5, 6, 5, 6, 5, 8, 7, 8, 7, 8, 7, 9, 7, 11, 10, 12, 9, 12, 8, 10]",23,gaze_R_8.png,f,1,2,results3,001,2026-04-13_11h18.43.578,mogelijke versie adaptive staircase builder,,2026.1.3,59.89695328181507,2026-04-13 11h18.45.152023 +0200,
12.5,ecc0,mid,56,0,56,f,1,2.333967199999279,None,0,1,1,1,56,0,56,0,654.2436771000002,,,,,,,,,,,,,,,654.2327309000002,654.2436771000002,655.1514724999997,654.2436771000002,654.2436771000002,656.5856837000001,f,1,2.333967199999279,None,right,7,"[20, 12, 13, 5, 6, 5, 6, 5, 8, 7, 8, 7, 8, 7, 9, 7, 11, 10, 12, 9, 12, 8, 10]",23,gaze_R_7.png,f,1,2,results3,001,2026-04-13_11h18.43.578,mogelijke versie adaptive staircase builder,,2026.1.3,59.89695328181507,2026-04-13 11h18.45.152023 +0200,
12.5,ecc0,mid,57,0,57,f,1,1.3669912000004842,None,0,1,1,1,57,0,57,0,656.7704820999998,,,,,,,,,,,,,,,656.7601696000002,656.7704820999998,657.6015738999995,656.7704820999998,656.7704820999998,658.1518897999995,f,1,1.3669912000004842,None,right,6,"[20, 12, 13, 5, 6, 5, 6, 5, 8, 7, 8, 7, 8, 7, 9, 7, 11, 10, 12, 9, 12, 8, 10]",23,gaze_R_6.png,f,1,2,results3,001,2026-04-13_11h18.43.578,mogelijke versie adaptive staircase builder,,2026.1.3,59.89695328181507,2026-04-13 11h18.45.152023 +0200,
12.5,ecc0,mid,58,0,58,f,1,1.5895675000001575,None,0,1,1,1,58,0,58,0,658.2442216,,,,,,,,,,,,,,,658.2336058999999,658.2442216,659.1515313999998,658.2442216,658.2442216,659.8353410999998,f,1,1.5895675000001575,None,right,5,"[20, 12, 13, 5, 6, 5, 6, 5, 8, 7, 8, 7, 8, 7, 9, 7, 11, 10, 12, 9, 12, 8, 10]",23,gaze_R_5.png,f,1,2,results3,001,2026-04-13_11h18.43.578,mogelijke versie adaptive staircase builder,,2026.1.3,59.89695328181507,2026-04-13 11h18.45.152023 +0200,
12.5,ecc0,mid,59,0,59,f,1,1.3936465999995562,None,0,1,1,1,59,0,59,0,660.0239739999997,,,,,,,,,,,,,,,660.0108287000003,660.0239739999997,660.8346130999998,660.0239739999997,660.0239739999997,661.4184427,f,1,1.3936465999995562,None,left,4,"[20, 12, 13, 5, 6, 5, 6, 5, 8, 7, 8, 7, 8, 7, 9, 7, 11, 10, 12, 9, 12, 8, 10]",23,gaze_L_4.png,f,1,2,results3,001,2026-04-13_11h18.43.578,mogelijke versie adaptive staircase builder,,2026.1.3,59.89695328181507,2026-04-13 11h18.45.152023 +0200,
12.5,ecc0,mid,1,1,0,,,,,0,1,1,1,,,,,,,,,,,,,,,,,,,,,,,,,,,,,,,,,,,,,,results3,001,2026-04-13_11h18.43.578,mogelijke versie adaptive staircase builder,,2026.1.3,59.89695328181507,2026-04-13 11h18.45.152023 +0200,
20.5,ecc10neg,right,0,0,0,f,1,3.473558700000467,None,0,2,2,2,0,0,0,0,661.5119632999995,,,,,,,,,,,,,661.4211297000002,661.4211623000001,661.5009474999997,661.5119632999995,661.5119632999995,662.4349489999995,661.5119632999995,665.0017593000002,f,1,3.473558700000467,None,left,20,[],0,shiftedgaze_L_20.png,f,1,3,results3,001,2026-04-13_11h18.43.578,mogelijke versie adaptive staircase builder,,2026.1.3,59.89695328181507,2026-04-13 11h18.45.152023 +0200,
20.5,ecc10neg,right,1,0,1,f,1,1.5869360000006054,None,0,2,2,2,1,0,1,0,665.118673,,,,,,,,,,,,,,,665.1067616,665.118673,665.118673,666.0014289999999,665.118673,666.7181588000003,f,1,1.5869360000006054,None,right,19,[],0,shiftedgaze_R_19.png,f,1,3,results3,001,2026-04-13_11h18.43.578,mogelijke versie adaptive staircase builder,,2026.1.3,59.89695328181507,2026-04-13 11h18.45.152023 +0200,
20.5,ecc10neg,right,2,0,2,f,0,1.7510965000001306,None,0,2,2,2,2,0,2,0,666.8264639999998,,,,,,,,,,,,,,,666.8148524999997,666.8264639999998,666.8264639999998,667.7180191999996,666.8264639999998,668.5849434000002,f,0,1.7510965000001306,None,direct,18,[18],1,shifteddirectgaze.png,f,0,3,results3,001,2026-04-13_11h18.43.578,mogelijke versie adaptive staircase builder,,2026.1.3,59.89695328181507,2026-04-13 11h18.45.152023 +0200,
20.5,ecc10neg,right,3,0,3,f,1,1.2598875999992742,None,0,2,2,2,3,0,3,0,668.7018092999997,,,,,,,,,,,,,,,668.6902744999998,668.7018092999997,668.7018092999997,669.5847470999997,668.7018092999997,669.9685936999995,f,1,1.2598875999992742,None,right,19,"[18, 19]",2,shiftedgaze_R_19.png,f,1,3,results3,001,2026-04-13_11h18.43.578,mogelijke versie adaptive staircase builder,,2026.1.3,59.89695328181507,2026-04-13 11h18.45.152023 +0200,
20.5,ecc10neg,right,4,0,4,f,0,1.3163401000001613,None,0,2,2,2,4,0,4,0,670.0772755999997,,,,,,,,,,,,,,,670.0663433999998,670.0772755999997,670.0772755999997,670.9847225000003,670.0772755999997,671.4016726,f,0,1.3163401000001613,None,direct,18,"[18, 19, 18]",3,shifteddirectgaze.png,f,0,3,results3,001,2026-04-13_11h18.43.578,mogelijke versie adaptive staircase builder,,2026.1.3,59.89695328181507,2026-04-13 11h18.45.152023 +0200,
20.5,ecc10neg,right,5,0,5,f,1,1.638460699999996,None,0,2,2,2,5,0,5,0,671.5150825999999,,,,,,,,,,,,,,,671.5027493999996,671.5150825999999,671.5150825999999,672.4012550999996,671.5150825999999,673.1682448000001,f,1,1.638460699999996,None,right,19,"[18, 19, 18, 19]",4,shiftedgaze_R_19.png,f,1,3,results3,001,2026-04-13_11h18.43.578,mogelijke versie adaptive staircase builder,,2026.1.3,59.89695328181507,2026-04-13 11h18.45.152023 +0200,
20.5,ecc10neg,right,6,0,6,f,1,1.9420176000003266,None,0,2,2,2,6,0,6,0,673.2759226999997,,,,,,,,,,,,,,,673.2651273000001,673.2759226999997,673.2759226999997,674.16788,673.2759226999997,675.2183619999996,f,1,1.9420176000003266,None,left,18,"[18, 19, 18, 19]",4,shiftedgaze_L_18.png,f,1,3,results3,001,2026-04-13_11h18.43.578,mogelijke versie adaptive staircase builder,,2026.1.3,59.89695328181507,2026-04-13 11h18.45.152023 +0200,
20.5,ecc10neg,right,7,0,7,j,0,1.4431957999995575,None,0,2,2,2,7,0,7,0,675.3103457999996,,,,,,,,,,,,,,,675.2986915000001,675.3103457999996,675.3103457999996,676.2179577999996,675.3103457999996,676.7683698000001,j,0,1.4431957999995575,None,left,17,"[18, 19, 18, 19, 17]",5,shiftedgaze_L_17.png,j,0,3,results3,001,2026-04-13_11h18.43.578,mogelijke versie adaptive staircase builder,,2026.1.3,59.89695328181507,2026-04-13 11h18.45.152023 +0200,
20.5,ecc10neg,right,8,0,8,f,0,1.6715096999996604,None,0,2,2,2,8,0,8,0,676.8580374000003,,,,,,,,,,,,,,,676.847941,676.8580374000003,676.8580374000003,677.7680857999994,676.8580374000003,678.5349039000002,f,0,1.6715096999996604,None,direct,18,"[18, 19, 18, 19, 17]",5,shifteddirectgaze.png,f,0,3,results3,001,2026-04-13_11h18.43.578,mogelijke versie adaptive staircase builder,,2026.1.3,59.89695328181507,2026-04-13 11h18.45.152023 +0200,
20.5,ecc10neg,right,9,0,9,f,1,1.2881661999999778,None,0,2,2,2,9,0,9,0,678.6494198999999,,,,,,,,,,,,,,,678.6380016000003,678.6494198999999,678.6494198999999,679.5345535999995,678.6494198999999,679.9516430000003,f,1,1.2881661999999778,None,right,19,"[18, 19, 18, 19, 17, 19]",6,shiftedgaze_R_19.png,f,1,3,results3,001,2026-04-13_11h18.43.578,mogelijke versie adaptive staircase builder,,2026.1.3,59.89695328181507,2026-04-13 11h18.45.152023 +0200,
20.5,ecc10neg,right,10,0,10,f,0,1.5969789999999193,None,0,2,2,2,10,0,10,0,680.0611019999997,,,,,,,,,,,,,,,680.0498619999998,680.0611019999997,680.0611019999997,680.951094,680.0611019999997,681.6682584999999,f,0,1.5969789999999193,None,direct,18,"[18, 19, 18, 19, 17, 19, 18]",7,shifteddirectgaze.png,f,0,3,results3,001,2026-04-13_11h18.43.578,mogelijke versie adaptive staircase builder,,2026.1.3,59.89695328181507,2026-04-13 11h18.45.152023 +0200,
20.5,ecc10neg,right,11,0,11,f,0,1.2892283000001044,None,0,2,2,2,11,0,11,0,681.7603399999998,,,,,,,,,,,,,,,681.7497441999994,681.7603399999998,681.7603399999998,682.6677670999998,681.7603399999998,683.0513911999997,f,0,1.2892283000001044,None,direct,19,"[18, 19, 18, 19, 17, 19, 18]",7,shifteddirectgaze.png,f,0,3,results3,001,2026-04-13_11h18.43.578,mogelijke versie adaptive staircase builder,,2026.1.3,59.89695328181507,2026-04-13 11h18.45.152023 +0200,
20.5,ecc10neg,right,12,0,12,f,0,1.3555532999998832,None,0,2,2,2,12,0,12,0,683.1419542000003,,,,,,,,,,,,,,,683.1311790999998,683.1419542000003,683.1419542000003,684.0512020999995,683.1419542000003,684.5015708000001,f,0,1.3555532999998832,None,direct,20,"[18, 19, 18, 19, 17, 19, 18]",7,shifteddirectgaze.png,f,0,3,results3,001,2026-04-13_11h18.43.578,mogelijke versie adaptive staircase builder,,2026.1.3,59.89695328181507,2026-04-13 11h18.45.152023 +0200,
20.5,ecc10neg,right,13,0,13,f,0,1.361652999999933,None,0,2,2,2,13,0,13,0,684.5919039999999,,,,,,,,,,,,,,,684.5809909999998,684.5919039999999,684.5919039999999,685.5012669999996,684.5919039999999,685.9682444,f,0,1.361652999999933,None,direct,20,"[18, 19, 18, 19, 17, 19, 18]",7,shifteddirectgaze.png,f,0,3,results3,001,2026-04-13_11h18.43.578,mogelijke versie adaptive staircase builder,,2026.1.3,59.89695328181507,2026-04-13 11h18.45.152023 +0200,
20.5,ecc10neg,right,14,0,14,f,0,1.3757181999999375,None,0,2,2,2,14,0,14,0,686.0660740000003,,,,,,,,,,,,,,,686.0555261,686.0660740000003,686.0660740000003,686.9679122999996,686.0660740000003,687.4515065999994,f,0,1.3757181999999375,None,direct,20,"[18, 19, 18, 19, 17, 19, 18]",7,shifteddirectgaze.png,f,0,3,results3,001,2026-04-13_11h18.43.578,mogelijke versie adaptive staircase builder,,2026.1.3,59.89695328181507,2026-04-13 11h18.45.152023 +0200,
20.5,ecc10neg,right,15,0,15,f,0,1.9161589000004824,None,0,2,2,2,15,0,15,0,687.5494264999998,,,,,,,,,,,,,,,687.5385975999998,687.5494264999998,687.5494264999998,688.4511025000002,687.5494264999998,689.4683079999995,f,0,1.9161589000004824,None,direct,20,"[18, 19, 18, 19, 17, 19, 18]",7,shifteddirectgaze.png,f,0,3,results3,001,2026-04-13_11h18.43.578,mogelijke versie adaptive staircase builder,,2026.1.3,59.89695328181507,2026-04-13 11h18.45.152023 +0200,
20.5,ecc10neg,right,16,0,16,f,1,1.712661799999296,None,0,2,2,2,16,0,16,0,689.5928501999997,,,,,,,,,,,,,,,689.5814086,689.5928501999997,689.5928501999997,690.4676523999997,689.5928501999997,691.3183478000001,f,1,1.712661799999296,None,right,20,"[18, 19, 18, 19, 17, 19, 18, 20]",8,shiftedgaze_R_20.png,f,1,3,results3,001,2026-04-13_11h18.43.578,mogelijke versie adaptive staircase builder,,2026.1.3,59.89695328181507,2026-04-13 11h18.45.152023 +0200,
20.5,ecc10neg,right,17,0,17,f,1,2.833567000000585,None,0,2,2,2,17,0,17,0,691.4401265999995,,,,,,,,,,,,,,,691.4287515999995,691.4401265999995,691.4401265999995,692.3177974,691.4401265999995,694.2848028999997,f,1,2.833567000000585,None,left,19,"[18, 19, 18, 19, 17, 19, 18, 20]",8,shiftedgaze_L_19.png,f,1,3,results3,001,2026-04-13_11h18.43.578,mogelijke versie adaptive staircase builder,,2026.1.3,59.89695328181507,2026-04-13 11h18.45.152023 +0200,
20.5,ecc10neg,right,18,0,18,j,0,1.6106625000002168,None,0,2,2,2,18,0,18,0,694.3829299999998,,,,,,,,,,,,,,,694.3721969999997,694.3829299999998,694.3829299999998,695.3009927000003,694.3829299999998,696.0017607,j,0,1.6106625000002168,None,left,18,"[18, 19, 18, 19, 17, 19, 18, 20, 18]",9,shiftedgaze_L_18.png,j,0,3,results3,001,2026-04-13_11h18.43.578,mogelijke versie adaptive staircase builder,,2026.1.3,59.89695328181507,2026-04-13 11h18.45.152023 +0200,
20.5,ecc10neg,right,19,0,19,j,0,3.0283681999999317,None,0,2,2,2,19,0,19,0,696.1011959999996,,,,,,,,,,,,,,,696.0891997999997,696.1011959999996,696.1011959999996,697.0176909000002,696.1011959999996,699.1348466,j,0,3.0283681999999317,None,left,19,"[18, 19, 18, 19, 17, 19, 18, 20, 18]",9,shiftedgaze_L_19.png,j,0,3,results3,001,2026-04-13_11h18.43.578,mogelijke versie adaptive staircase builder,,2026.1.3,59.89695328181507,2026-04-13 11h18.45.152023 +0200,
20.5,ecc10neg,right,20,0,20,j,0,1.5558637999993152,None,0,2,2,2,20,0,20,0,699.2378656000001,,,,,,,,,,,,,,,699.2271701999998,699.2378656000001,699.2378656000001,700.1344289999997,699.2378656000001,700.8015898000003,j,0,1.5558637999993152,None,left,20,"[18, 19, 18, 19, 17, 19, 18, 20, 18]",9,shiftedgaze_L_20.png,j,0,3,results3,001,2026-04-13_11h18.43.578,mogelijke versie adaptive staircase builder,,2026.1.3,59.89695328181507,2026-04-13 11h18.45.152023 +0200,
20.5,ecc10neg,right,21,0,21,j,0,1.3720161000001099,None,0,2,2,2,21,0,21,0,700.9257023999999,,,,,,,,,,,,,,,700.9138277000002,700.9257023999999,700.9257023999999,701.8176028999997,700.9257023999999,702.3014742999994,j,0,1.3720161000001099,None,right,20,"[18, 19, 18, 19, 17, 19, 18, 20, 18]",9,shiftedgaze_R_20.png,j,0,3,results3,001,2026-04-13_11h18.43.578,mogelijke versie adaptive staircase builder,,2026.1.3,59.89695328181507,2026-04-13 11h18.45.152023 +0200,
20.5,ecc10neg,right,22,0,22,j,0,1.7924873000001753,None,0,2,2,2,22,0,22,0,702.409079,,,,,,,,,,,,,,,702.3981083999997,702.409079,702.409079,703.3007047000001,702.409079,704.2182352999998,j,0,1.7924873000001753,None,left,20,"[18, 19, 18, 19, 17, 19, 18, 20, 18]",9,shiftedgaze_L_20.png,j,0,3,results3,001,2026-04-13_11h18.43.578,mogelijke versie adaptive staircase builder,,2026.1.3,59.89695328181507,2026-04-13 11h18.45.152023 +0200,
20.5,ecc10neg,right,23,0,23,f,0,1.6278067999992345,None,0,2,2,2,23,0,23,0,704.3098792999999,,,,,,,,,,,,,,,704.2992512000001,704.3098792999999,704.3098792999999,705.2341826000002,704.3098792999999,705.9512548000002,f,0,1.6278067999992345,None,direct,20,"[18, 19, 18, 19, 17, 19, 18, 20, 18]",9,shifteddirectgaze.png,f,0,3,results3,001,2026-04-13_11h18.43.578,mogelijke versie adaptive staircase builder,,2026.1.3,59.89695328181507,2026-04-13 11h18.45.152023 +0200,
20.5,ecc10neg,right,24,0,24,f,1,1.510667999999896,None,0,2,2,2,24,0,24,0,706.0669447,,,,,,,,,,,,,,,706.0551311999998,706.0669447,706.0669447,706.9506629999996,706.0669447,707.5846780000002,f,1,1.510667999999896,None,right,20,"[18, 19, 18, 19, 17, 19, 18, 20, 18, 20]",10,shiftedgaze_R_20.png,f,1,3,results3,001,2026-04-13_11h18.43.578,mogelijke versie adaptive staircase builder,,2026.1.3,59.89695328181507,2026-04-13 11h18.45.152023 +0200,
20.5,ecc10neg,right,25,0,25,j,0,1.851842700000816,None,0,2,2,2,25,0,25,0,707.6937668,,,,,,,,,,,,,,,707.6819798999995,707.6937668,707.6937668,708.5840231000002,707.6937668,709.5511482000002,j,0,1.851842700000816,None,left,19,"[18, 19, 18, 19, 17, 19, 18, 20, 18, 20, 19]",11,shiftedgaze_L_19.png,j,0,3,results3,001,2026-04-13_11h18.43.578,mogelijke versie adaptive staircase builder,,2026.1.3,59.89695328181507,2026-04-13 11h18.45.152023 +0200,
20.5,ecc10neg,right,26,0,26,f,1,1.3919601999996303,None,0,2,2,2,26,0,26,0,709.665919,,,,,,,,,,,,,,,709.6541854999996,709.665919,709.665919,710.5508073000001,709.665919,711.0679049,f,1,1.3919601999996303,None,right,20,"[18, 19, 18, 19, 17, 19, 18, 20, 18, 20, 19, 20]",12,shiftedgaze_R_20.png,f,1,3,results3,001,2026-04-13_11h18.43.578,mogelijke versie adaptive staircase builder,,2026.1.3,59.89695328181507,2026-04-13 11h18.45.152023 +0200,
20.5,ecc10neg,right,27,0,27,f,1,1.4148365999999442,None,0,2,2,2,27,0,27,0,711.1628142,,,,,,,,,,,,,,,711.1516486,711.1628142,711.1628142,712.0674085999999,711.1628142,712.5845854999998,f,1,1.4148365999999442,None,right,19,"[18, 19, 18, 19, 17, 19, 18, 20, 18, 20, 19, 20]",12,shiftedgaze_R_19.png,f,1,3,results3,001,2026-04-13_11h18.43.578,mogelijke versie adaptive staircase builder,,2026.1.3,59.89695328181507,2026-04-13 11h18.45.152023 +0200,
20.5,ecc10neg,right,28,0,28,j,0,1.52638830000069,None,0,2,2,2,28,0,28,0,712.6915075999996,,,,,,,,,,,,,,,712.6801482999999,712.6915075999996,712.6915075999996,713.5840852000001,712.6915075999996,714.2345194999998,j,0,1.52638830000069,None,left,18,"[18, 19, 18, 19, 17, 19, 18, 20, 18, 20, 19, 20, 18]",13,shiftedgaze_L_18.png,j,0,3,results3,001,2026-04-13_11h18.43.578,mogelijke versie adaptive staircase builder,,2026.1.3,59.89695328181507,2026-04-13 11h18.45.152023 +0200,
20.5,ecc10neg,right,29,0,29,f,1,1.2843050999999832,None,0,2,2,2,29,0,29,0,714.3493175000003,,,,,,,,,,,,,,,714.3376650999999,714.3493175000003,714.3493175000003,715.2340346999999,714.3493175000003,715.6345788999997,f,1,1.2843050999999832,None,right,19,"[18, 19, 18, 19, 17, 19, 18, 20, 18, 20, 19, 20, 18, 19]",14,shiftedgaze_R_19.png,f,1,3,results3,001,2026-04-13_11h18.43.578,mogelijke versie adaptive staircase builder,,2026.1.3,59.89695328181507,2026-04-13 11h18.45.152023 +0200,
20.5,ecc10neg,right,30,0,30,f,1,1.3207371999997122,None,0,2,2,2,30,0,30,0,715.7292935999994,,,,,,,,,,,,,,,715.7181633999999,715.7292935999994,715.7292935999994,716.6340635999995,715.7292935999994,717.0511328000002,f,1,1.3207371999997122,None,right,18,"[18, 19, 18, 19, 17, 19, 18, 20, 18, 20, 19, 20, 18, 19]",14,shiftedgaze_R_18.png,f,1,3,results3,001,2026-04-13_11h18.43.578,mogelijke versie adaptive staircase builder,,2026.1.3,59.89695328181507,2026-04-13 11h18.45.152023 +0200,
20.5,ecc10neg,right,31,0,31,f,1,1.662436699999489,None,0,2,2,2,31,0,31,0,717.1475605999995,,,,,,,,,,,,,,,717.1357136999995,717.1475605999995,717.1475605999995,718.0507023,717.1475605999995,718.8177806000003,f,1,1.662436699999489,None,right,17,"[18, 19, 18, 19, 17, 19, 18, 20, 18, 20, 19, 20, 18, 19]",14,shiftedgaze_R_17.png,f,1,3,results3,001,2026-04-13_11h18.43.578,mogelijke versie adaptive staircase builder,,2026.1.3,59.89695328181507,2026-04-13 11h18.45.152023 +0200,
20.5,ecc10neg,right,32,0,32,f,0,1.2426269999996293,None,0,2,2,2,32,0,32,0,718.9270049999996,,,,,,,,,,,,,,,718.9162556000001,718.9270049999996,718.9270049999996,719.8173501000001,718.9270049999996,720.1844087,f,0,1.2426269999996293,None,direct,16,"[18, 19, 18, 19, 17, 19, 18, 20, 18, 20, 19, 20, 18, 19, 16]",15,shifteddirectgaze.png,f,0,3,results3,001,2026-04-13_11h18.43.578,mogelijke versie adaptive staircase builder,,2026.1.3,59.89695328181507,2026-04-13 11h18.45.152023 +0200,
20.5,ecc10neg,right,33,0,33,j,0,1.8606886999996277,None,0,2,2,2,33,0,33,0,720.2769109999999,,,,,,,,,,,,,,,720.2655132,720.2769109999999,720.2769109999999,721.1842738999994,720.2769109999999,722.1510132000003,j,0,1.8606886999996277,None,left,17,"[18, 19, 18, 19, 17, 19, 18, 20, 18, 20, 19, 20, 18, 19, 16]",15,shiftedgaze_L_17.png,j,0,3,results3,001,2026-04-13_11h18.43.578,mogelijke versie adaptive staircase builder,,2026.1.3,59.89695328181507,2026-04-13 11h18.45.152023 +0200,
20.5,ecc10neg,right,34,0,34,f,0,1.5427711999991516,None,0,2,2,2,34,0,34,0,722.2428564000002,,,,,,,,,,,,,,,722.2323495999999,722.2428564000002,722.2428564000002,723.1506815000002,722.2428564000002,723.8010965000003,f,0,1.5427711999991516,None,direct,18,"[18, 19, 18, 19, 17, 19, 18, 20, 18, 20, 19, 20, 18, 19, 16]",15,shifteddirectgaze.png,f,0,3,results3,001,2026-04-13_11h18.43.578,mogelijke versie adaptive staircase builder,,2026.1.3,59.89695328181507,2026-04-13 11h18.45.152023 +0200,
20.5,ecc10neg,right,35,0,35,f,1,1.5103421000003436,None,0,2,2,2,35,0,35,0,723.9154501000003,,,,,,,,,,,,,,,723.9038534000001,723.9154501000003,723.9154501000003,724.800604,723.9154501000003,725.4343288,f,1,1.5103421000003436,None,right,19,"[18, 19, 18, 19, 17, 19, 18, 20, 18, 20, 19, 20, 18, 19, 16, 19]",16,shiftedgaze_R_19.png,f,1,3,results3,001,2026-04-13_11h18.43.578,mogelijke versie adaptive staircase builder,,2026.1.3,59.89695328181507,2026-04-13 11h18.45.152023 +0200,
20.5,ecc10neg,right,36,0,36,j,0,1.6334310000002006,None,0,2,2,2,36,0,36,0,725.544175,,,,,,,,,,,,,,,725.5322533999997,725.544175,725.544175,726.4339068999998,725.544175,727.1842684000003,j,0,1.6334310000002006,None,left,18,"[18, 19, 18, 19, 17, 19, 18, 20, 18, 20, 19, 20, 18, 19, 16, 19, 18]",17,shiftedgaze_L_18.png,j,0,3,results3,001,2026-04-13_11h18.43.578,mogelijke versie adaptive staircase builder,,2026.1.3,59.89695328181507,2026-04-13 11h18.45.152023 +0200,
20.5,ecc10neg,right,37,0,37,j,0,1.7891787999997177,None,0,2,2,2,37,0,37,0,727.2765214000001,,,,,,,,,,,,,,,727.2650314000002,727.2765214000001,727.2765214000001,728.1838730999998,727.2765214000001,729.0675015999996,j,0,1.7891787999997177,None,left,19,"[18, 19, 18, 19, 17, 19, 18, 20, 18, 20, 19, 20, 18, 19, 16, 19, 18]",17,shiftedgaze_L_19.png,j,0,3,results3,001,2026-04-13_11h18.43.578,mogelijke versie adaptive staircase builder,,2026.1.3,59.89695328181507,2026-04-13 11h18.45.152023 +0200,
20.5,ecc10neg,right,38,0,38,f,1,1.3866378000002442,None,0,2,2,2,38,0,38,0,729.1908619999995,,,,,,,,,,,,,,,729.1797176,729.1908619999995,729.1908619999995,730.0672345000003,729.1908619999995,730.5842242999997,f,1,1.3866378000002442,None,right,20,"[18, 19, 18, 19, 17, 19, 18, 20, 18, 20, 19, 20, 18, 19, 16, 19, 18, 20]",18,shiftedgaze_R_20.png,f,1,3,results3,001,2026-04-13_11h18.43.578,mogelijke versie adaptive staircase builder,,2026.1.3,59.89695328181507,2026-04-13 11h18.45.152023 +0200,
20.5,ecc10neg,right,39,0,39,f,0,1.2736439000000246,None,0,2,2,2,39,0,39,0,730.6959809,,,,,,,,,,,,,,,730.6842915999996,730.6959809,730.6959809,731.5836188000003,730.6959809,731.9842416000001,f,0,1.2736439000000246,None,direct,19,"[18, 19, 18, 19, 17, 19, 18, 20, 18, 20, 19, 20, 18, 19, 16, 19, 18, 20, 19]",19,shifteddirectgaze.png,f,0,3,results3,001,2026-04-13_11h18.43.578,mogelijke versie adaptive staircase builder,,2026.1.3,59.89695328181507,2026-04-13 11h18.45.152023 +0200,
20.5,ecc10neg,right,40,0,40,f,0,1.2704414999998335,None,0,2,2,2,40,0,40,0,732.0751498,,,,,,,,,,,,,,,732.0645286999998,732.0751498,732.0751498,732.9838245000001,732.0751498,733.3509023999995,f,0,1.2704414999998335,None,direct,20,"[18, 19, 18, 19, 17, 19, 18, 20, 18, 20, 19, 20, 18, 19, 16, 19, 18, 20, 19]",19,shifteddirectgaze.png,f,0,3,results3,001,2026-04-13_11h18.43.578,mogelijke versie adaptive staircase builder,,2026.1.3,59.89695328181507,2026-04-13 11h18.45.152023 +0200,
20.5,ecc10neg,right,41,0,41,f,0,1.2491884000000937,None,0,2,2,2,41,0,41,0,733.4803271999999,,,,,,,,,,,,,,,733.4697631999998,733.4803271999999,733.4803271999999,734.3502840000001,733.4803271999999,734.7339036000003,f,0,1.2491884000000937,None,direct,20,"[18, 19, 18, 19, 17, 19, 18, 20, 18, 20, 19, 20, 18, 19, 16, 19, 18, 20, 19]",19,shifteddirectgaze.png,f,0,3,results3,001,2026-04-13_11h18.43.578,mogelijke versie adaptive staircase builder,,2026.1.3,59.89695328181507,2026-04-13 11h18.45.152023 +0200,
20.5,ecc10neg,right,42,0,42,f,1,1.2406479999999647,None,0,2,2,2,42,0,42,0,734.8489037999998,,,,,,,,,,,,,,,734.8373395999997,734.8489037999998,734.8489037999998,735.7336371000001,734.8489037999998,736.1006559999996,f,1,1.2406479999999647,None,right,20,"[18, 19, 18, 19, 17, 19, 18, 20, 18, 20, 19, 20, 18, 19, 16, 19, 18, 20, 19, 20]",20,shiftedgaze_R_20.png,f,1,3,results3,001,2026-04-13_11h18.43.578,mogelijke versie adaptive staircase builder,,2026.1.3,59.89695328181507,2026-04-13 11h18.45.152023 +0200,
20.5,ecc10neg,right,43,0,43,f,1,1.31393079999998,None,0,2,2,2,43,0,43,0,736.1995915999996,,,,,,,,,,,,,,,736.1884706999999,736.1995915999996,736.1995915999996,737.1001581999999,736.1995915999996,737.5172832999997,f,1,1.31393079999998,None,right,19,"[18, 19, 18, 19, 17, 19, 18, 20, 18, 20, 19, 20, 18, 19, 16, 19, 18, 20, 19, 20]",20,shiftedgaze_R_19.png,f,1,3,results3,001,2026-04-13_11h18.43.578,mogelijke versie adaptive staircase builder,,2026.1.3,59.89695328181507,2026-04-13 11h18.45.152023 +0200,
20.5,ecc10neg,right,44,0,44,f,1,1.2033621000000494,None,0,2,2,2,44,0,44,0,737.6144179000003,,,,,,,,,,,,,,,737.6033018999997,737.6144179000003,737.6144179000003,738.5170540999998,737.6144179000003,738.8336818999996,f,1,1.2033621000000494,None,right,18,"[18, 19, 18, 19, 17, 19, 18, 20, 18, 20, 19, 20, 18, 19, 16, 19, 18, 20, 19, 20]",20,shiftedgaze_R_18.png,f,1,3,results3,001,2026-04-13_11h18.43.578,mogelijke versie adaptive staircase builder,,2026.1.3,59.89695328181507,2026-04-13 11h18.45.152023 +0200,
20.5,ecc10neg,right,45,0,45,j,0,1.4572723999999653,None,0,2,2,2,45,0,45,0,738.9442520000002,,,,,,,,,,,,,,,738.9329740000003,738.9442520000002,738.9442520000002,739.8334729999997,738.9442520000002,740.4174445999997,j,0,1.4572723999999653,None,left,17,"[18, 19, 18, 19, 17, 19, 18, 20, 18, 20, 19, 20, 18, 19, 16, 19, 18, 20, 19, 20, 17]",21,shiftedgaze_L_17.png,j,0,3,results3,001,2026-04-13_11h18.43.578,mogelijke versie adaptive staircase builder,,2026.1.3,59.89695328181507,2026-04-13 11h18.45.152023 +0200,
20.5,ecc10neg,right,46,0,46,f,1,1.3098798999999417,None,0,2,2,2,46,0,46,0,740.5316408999997,,,,,,,,,,,,,,,740.5199793000002,740.5316408999997,740.5316408999997,741.4170898000002,740.5316408999997,741.8506115,f,1,1.3098798999999417,None,right,18,"[18, 19, 18, 19, 17, 19, 18, 20, 18, 20, 19, 20, 18, 19, 16, 19, 18, 20, 19, 20, 17, 18]",22,shiftedgaze_R_18.png,f,1,3,results3,001,2026-04-13_11h18.43.578,mogelijke versie adaptive staircase builder,,2026.1.3,59.89695328181507,2026-04-13 11h18.45.152023 +0200,
20.5,ecc10neg,right,47,0,47,j,0,1.3218394999994416,None,0,2,2,2,47,0,47,0,741.9597813,,,,,,,,,,,,,,,741.9487704000003,741.9597813,741.9597813,742.8501230000002,741.9597813,743.2841397000002,j,0,1.3218394999994416,None,left,17,"[18, 19, 18, 19, 17, 19, 18, 20, 18, 20, 19, 20, 18, 19, 16, 19, 18, 20, 19, 20, 17, 18, 17]",23,shiftedgaze_L_17.png,j,0,3,results3,001,2026-04-13_11h18.43.578,mogelijke versie adaptive staircase builder,,2026.1.3,59.89695328181507,2026-04-13 11h18.45.152023 +0200,
20.5,ecc10neg,right,48,0,48,j,1,1.4801068000006126,None,0,2,2,2,48,0,48,0,743.3777766000003,,,,,,,,,,,,,,,743.3658906999999,743.3777766000003,743.3777766000003,744.2836996999995,743.3777766000003,744.8676162000002,j,1,1.4801068000006126,None,direct,18,"[18, 19, 18, 19, 17, 19, 18, 20, 18, 20, 19, 20, 18, 19, 16, 19, 18, 20, 19, 20, 17, 18, 17, 18]",24,shifteddirectgaze.png,j,1,3,results3,001,2026-04-13_11h18.43.578,mogelijke versie adaptive staircase builder,,2026.1.3,59.89695328181507,2026-04-13 11h18.45.152023 +0200,
20.5,ecc10neg,right,49,0,49,f,0,1.4519421000004513,None,0,2,2,2,49,0,49,0,744.9658933000001,,,,,,,,,,,,,,,744.9553223000003,744.9658933000001,744.9658933000001,745.8836340999997,744.9658933000001,746.4340316999997,f,0,1.4519421000004513,None,direct,17,"[18, 19, 18, 19, 17, 19, 18, 20, 18, 20, 19, 20, 18, 19, 16, 19, 18, 20, 19, 20, 17, 18, 17, 18, 17]",25,shifteddirectgaze.png,f,0,3,results3,001,2026-04-13_11h18.43.578,mogelijke versie adaptive staircase builder,,2026.1.3,59.89695328181507,2026-04-13 11h18.45.152023 +0200,
20.5,ecc10neg,right,50,0,50,j,0,1.4456807999995362,None,0,2,2,2,50,0,50,0,746.5318538000001,,,,,,,,,,,,,,,746.5211601999999,746.5318538000001,746.5318538000001,747.4336641999998,746.5318538000001,747.9842073999998,j,0,1.4456807999995362,None,left,18,"[18, 19, 18, 19, 17, 19, 18, 20, 18, 20, 19, 20, 18, 19, 16, 19, 18, 20, 19, 20, 17, 18, 17, 18, 17]",25,shiftedgaze_L_18.png,j,0,3,results3,001,2026-04-13_11h18.43.578,mogelijke versie adaptive staircase builder,,2026.1.3,59.89695328181507,2026-04-13 11h18.45.152023 +0200,
20.5,ecc10neg,right,51,0,51,f,1,1.291605499999605,None,0,2,2,2,51,0,51,0,748.1098812,,,,,,,,,,,,,,,748.0986983000003,748.1098812,748.1098812,749.0002667999997,748.1098812,749.41705,f,1,1.291605499999605,None,right,19,"[18, 19, 18, 19, 17, 19, 18, 20, 18, 20, 19, 20, 18, 19, 16, 19, 18, 20, 19, 20, 17, 18, 17, 18, 17, 19]",26,shiftedgaze_R_19.png,f,1,3,results3,001,2026-04-13_11h18.43.578,mogelijke versie adaptive staircase builder,,2026.1.3,59.89695328181507,2026-04-13 11h18.45.152023 +0200,
20.5,ecc10neg,right,52,0,52,j,1,1.3787750999999844,None,0,2,2,2,52,0,52,0,749.5268386999996,,,,,,,,,,,,,,,749.5154825999998,749.5268386999996,749.5268386999996,750.4169603,749.5268386999996,750.9171759000001,j,1,1.3787750999999844,None,direct,18,"[18, 19, 18, 19, 17, 19, 18, 20, 18, 20, 19, 20, 18, 19, 16, 19, 18, 20, 19, 20, 17, 18, 17, 18, 17, 19]",26,shifteddirectgaze.png,j,1,3,results3,001,2026-04-13_11h18.43.578,mogelijke versie adaptive staircase builder,,2026.1.3,59.89695328181507,2026-04-13 11h18.45.152023 +0200,
20.5,ecc10neg,right,53,0,53,j,0,1.4186915000000226,None,0,2,2,2,53,0,53,0,751.0068432999997,,,,,,,,,,,,,,,750.9962564999996,751.0068432999997,751.0068432999997,751.9168263000001,751.0068432999997,752.4341304,j,0,1.4186915000000226,None,left,17,"[18, 19, 18, 19, 17, 19, 18, 20, 18, 20, 19, 20, 18, 19, 16, 19, 18, 20, 19, 20, 17, 18, 17, 18, 17, 19, 17]",27,shiftedgaze_L_17.png,j,0,3,results3,001,2026-04-13_11h18.43.578,mogelijke versie adaptive staircase builder,,2026.1.3,59.89695328181507,2026-04-13 11h18.45.152023 +0200,
20.5,ecc10neg,right,54,0,54,f,1,1.3256036000002496,None,0,2,2,2,54,0,54,0,752.5240311999996,,,,,,,,,,,,,,,752.5128403999997,752.5240311999996,752.5240311999996,753.4502416999994,752.5240311999996,753.8503684999996,f,1,1.3256036000002496,None,left,18,"[18, 19, 18, 19, 17, 19, 18, 20, 18, 20, 19, 20, 18, 19, 16, 19, 18, 20, 19, 20, 17, 18, 17, 18, 17, 19, 17, 18]",28,shiftedgaze_L_18.png,f,1,3,results3,001,2026-04-13_11h18.43.578,mogelijke versie adaptive staircase builder,,2026.1.3,59.89695328181507,2026-04-13 11h18.45.152023 +0200,
20.5,ecc10neg,right,55,0,55,f,0,1.5017863000002762,None,0,2,2,2,55,0,55,0,753.9397381999997,,,,,,,,,,,,,,,753.9292495,753.9397381999997,753.9397381999997,754.8500586,753.9397381999997,755.4506100999997,f,0,1.5017863000002762,None,direct,17,"[18, 19, 18, 19, 17, 19, 18, 20, 18, 20, 19, 20, 18, 19, 16, 19, 18, 20, 19, 20, 17, 18, 17, 18, 17, 19, 17, 18, 17]",29,shifteddirectgaze.png,f,0,3,results3,001,2026-04-13_11h18.43.578,mogelijke versie adaptive staircase builder,,2026.1.3,59.89695328181507,2026-04-13 11h18.45.152023 +0200,
20.5,ecc10neg,right,56,0,56,f,1,1.5172328000007838,None,0,2,2,2,56,0,56,0,755.5643577000001,,,,,,,,,,,,,,,755.5526979999995,755.5643577000001,755.5643577000001,756.4501540000001,755.5643577000001,757.0838611999998,f,1,1.5172328000007838,None,right,18,"[18, 19, 18, 19, 17, 19, 18, 20, 18, 20, 19, 20, 18, 19, 16, 19, 18, 20, 19, 20, 17, 18, 17, 18, 17, 19, 17, 18, 17, 18]",30,shiftedgaze_R_18.png,f,1,3,results3,001,2026-04-13_11h18.43.578,mogelijke versie adaptive staircase builder,,2026.1.3,59.89695328181507,2026-04-13 11h18.45.152023 +0200,
20.5,ecc10neg,right,57,0,57,j,0,2.4733984000004057,None,0,2,2,2,57,0,57,0,757.1926235000001,,,,,,,,,,,,,,,757.1816282999998,757.1926235000001,757.1926235000001,758.0832770999996,757.1926235000001,759.6671047999998,j,0,2.4733984000004057,None,left,17,"[18, 19, 18, 19, 17, 19, 18, 20, 18, 20, 19, 20, 18, 19, 16, 19, 18, 20, 19, 20, 17, 18, 17, 18, 17, 19, 17, 18, 17, 18, 17]",31,shiftedgaze_L_17.png,j,0,3,results3,001,2026-04-13_11h18.43.578,mogelijke versie adaptive staircase builder,,2026.1.3,59.89695328181507,2026-04-13 11h18.45.152023 +0200,
20.5,ecc10neg,right,58,0,58,f,1,1.7792073000000528,None,0,2,2,2,58,0,58,0,759.7824271999998,,,,,,,,,,,,,,,759.7710031999995,759.7824271999998,759.7824271999998,760.6668749999999,759.7824271999998,761.5670478000002,f,1,1.7792073000000528,None,right,18,"[18, 19, 18, 19, 17, 19, 18, 20, 18, 20, 19, 20, 18, 19, 16, 19, 18, 20, 19, 20, 17, 18, 17, 18, 17, 19, 17, 18, 17, 18, 17, 18]",32,shiftedgaze_R_18.png,f,1,3,results3,001,2026-04-13_11h18.43.578,mogelijke versie adaptive staircase builder,,2026.1.3,59.89695328181507,2026-04-13 11h18.45.152023 +0200,
20.5,ecc10neg,right,59,0,59,f,0,2.057364399999642,None,0,2,2,2,59,0,59,0,761.6802048,,,,,,,,,,,,,,,761.6685562000002,761.6802048,761.6802048,762.5667449000002,761.6802048,763.750411,f,0,2.057364399999642,None,direct,17,"[18, 19, 18, 19, 17, 19, 18, 20, 18, 20, 19, 20, 18, 19, 16, 19, 18, 20, 19, 20, 17, 18, 17, 18, 17, 19, 17, 18, 17, 18, 17, 18, 17]",33,shifteddirectgaze.png,f,0,3,results3,001,2026-04-13_11h18.43.578,mogelijke versie adaptive staircase builder,,2026.1.3,59.89695328181507,2026-04-13 11h18.45.152023 +0200,
20.5,ecc10neg,right,2,2,0,,,,,0,2,2,2,,,,,,,,,,,,,,,,,,,,,,,,,,,,,,,,,,,,,,results3,001,2026-04-13_11h18.43.578,mogelijke versie adaptive staircase builder,,2026.1.3,59.89695328181507,2026-04-13 11h18.45.152023 +0200,
