xPos,stimulusSet,whichImage,thisN,thisTrialN,thisRepN,key_resp.keys,key_resp.corr,key_resp.rt,key_resp.duration,blocks.thisRepN,blocks.thisTrialN,blocks.thisN,blocks.thisIndex,trials.thisRepN,trials.thisTrialN,trials.thisN,trials.thisIndex,thisRow.t,notes,piloting,intro.started,introinstructions.started,intro_key.started,demo_image_left.started,demo_image_middle.started,demo_image_right.started,intro.stopped,intro_key.keys,intro_key.rt,intro_key.duration,block_start.started,block_start.stopped,trial.started,key_resp.started,middle_image.started,right_image.started,left_image.started,trial.stopped,trials.key_resp.keys,trials.key_resp.corr,trials.key_resp.rt,trials.key_resp.duration,direction,angle,reversal_intensities,number_reversals,stimulus,response,correct,blockNumber,participant,session,date,expName,expVersion,psychopyVersion,frameRate,expStart,
,,,,,,,,,,,,,,,,,,,,False,0.05099419999987731,0.060190500000317115,0.060190500000317115,0.060190500000317115,0.060190500000317115,0.060190500000317115,853.5498151000002,space,853.3686321999994,0.1043615000007776,,,,,,,,,,,,,,,,,,,,,results25,001,2026-04-20_11h20.04.181,mogelijke versie adaptive staircase builder,,2026.1.3,60.02494636746445,2026-04-20 11h20.04.583667 +0200,
4.5,ecc10pos,left,0,0,0,j,1,4.1127873999994335,None,0,0,0,0,0,0,0,0,853.8440984999997,,,,,,,,,,,,,853.7314898000004,853.7315451000004,853.8333942999998,853.8440984999997,853.8440984999997,853.8440984999997,854.7326713000002,857.9664622999999,j,1,4.1127873999994335,None,direct,20,[],0,shifteddirectgaze.png,j,1,1,results25,001,2026-04-20_11h20.04.181,mogelijke versie adaptive staircase builder,,2026.1.3,60.02494636746445,2026-04-20 11h20.04.583667 +0200,
4.5,ecc10pos,left,1,0,1,j,0,3.1477656999995816,None,0,0,0,0,1,0,1,0,858.0730740999998,,,,,,,,,,,,,,,858.0629429,858.0730740999998,858.0730740999998,858.0730740999998,858.9659007,861.2328312,j,0,3.1477656999995816,None,right,19,[19],1,shiftedgaze_R_19.png,j,0,1,results25,001,2026-04-20_11h20.04.181,mogelijke versie adaptive staircase builder,,2026.1.3,60.02494636746445,2026-04-20 11h20.04.583667 +0200,
4.5,ecc10pos,left,2,0,2,j,0,4.544709400000102,None,0,0,0,0,2,0,2,0,861.3561388999997,,,,,,,,,,,,,,,861.3436862999997,861.3561388999997,861.3561388999997,861.3561388999997,862.2324838000004,865.9164413999997,j,0,4.544709400000102,None,left,20,[19],1,shiftedgaze_L_20.png,j,0,1,results25,001,2026-04-20_11h20.04.181,mogelijke versie adaptive staircase builder,,2026.1.3,60.02494636746445,2026-04-20 11h20.04.583667 +0200,
4.5,ecc10pos,left,3,0,3,j,0,3.5629998999993404,None,0,0,0,0,3,0,3,0,866.0338323000005,,,,,,,,,,,,,,,866.0222320000003,866.0338323000005,866.0338323000005,866.0338323000005,866.9161051000001,869.5996725000005,j,0,3.5629998999993404,None,right,20,[19],1,shiftedgaze_R_20.png,j,0,1,results25,001,2026-04-20_11h20.04.181,mogelijke versie adaptive staircase builder,,2026.1.3,60.02494636746445,2026-04-20 11h20.04.583667 +0200,
4.5,ecc10pos,left,4,0,4,f,1,3.5478861999999936,None,0,0,0,0,4,0,4,0,869.6969429000001,,,,,,,,,,,,,,,869.6858689999999,869.6969429000001,869.6969429000001,869.6969429000001,870.5991470999998,873.2494513000001,f,1,3.5478861999999936,None,right,20,"[19, 20]",2,shiftedgaze_R_20.png,f,1,1,results25,001,2026-04-20_11h20.04.181,mogelijke versie adaptive staircase builder,,2026.1.3,60.02494636746445,2026-04-20 11h20.04.583667 +0200,
4.5,ecc10pos,left,5,0,5,f,0,3.2425842000002376,None,0,0,0,0,5,0,5,0,873.3471808000004,,,,,,,,,,,,,,,873.3359267000005,873.3471808000004,873.3471808000004,873.3471808000004,874.2494237999999,876.5995499,f,0,3.2425842000002376,None,direct,19,"[19, 20, 19]",3,shifteddirectgaze.png,f,0,1,results25,001,2026-04-20_11h20.04.181,mogelijke versie adaptive staircase builder,,2026.1.3,60.02494636746445,2026-04-20 11h20.04.583667 +0200,
4.5,ecc10pos,left,6,0,6,j,0,5.497491499999342,None,0,0,0,0,6,0,6,0,876.7232949999998,,,,,,,,,,,,,,,876.7117418999997,876.7232949999998,876.7232949999998,876.7232949999998,877.5992633000005,882.2325220000002,j,0,5.497491499999342,None,left,20,"[19, 20, 19]",3,shiftedgaze_L_20.png,j,0,1,results25,001,2026-04-20_11h20.04.181,mogelijke versie adaptive staircase builder,,2026.1.3,60.02494636746445,2026-04-20 11h20.04.583667 +0200,
4.5,ecc10pos,left,7,0,7,j,0,4.559351300000344,None,0,0,0,0,7,0,7,0,882.3494277,,,,,,,,,,,,,,,882.3380378000002,882.3494277,882.3494277,882.3494277,883.2322750000003,886.9160469999997,j,0,4.559351300000344,None,right,20,"[19, 20, 19]",3,shiftedgaze_R_20.png,j,0,1,results25,001,2026-04-20_11h20.04.181,mogelijke versie adaptive staircase builder,,2026.1.3,60.02494636746445,2026-04-20 11h20.04.583667 +0200,
4.5,ecc10pos,left,8,0,8,j,0,3.7270332999996754,None,0,0,0,0,8,0,8,0,887.0137384999998,,,,,,,,,,,,,,,887.0028399000003,887.0137384999998,887.0137384999998,887.0137384999998,887.9156061000003,890.7491571999999,j,0,3.7270332999996754,None,right,20,"[19, 20, 19]",3,shiftedgaze_R_20.png,j,0,1,results25,001,2026-04-20_11h20.04.181,mogelijke versie adaptive staircase builder,,2026.1.3,60.02494636746445,2026-04-20 11h20.04.583667 +0200,
4.5,ecc10pos,left,9,0,9,j,1,3.1633740999996007,None,0,0,0,0,9,0,9,0,890.8493826000004,,,,,,,,,,,,,,,890.8378503000004,890.8493826000004,890.8493826000004,890.8493826000004,891.7491620999999,894.0160169999999,j,1,3.1633740999996007,None,direct,20,"[19, 20, 19, 20]",4,shifteddirectgaze.png,j,1,1,results25,001,2026-04-20_11h20.04.181,mogelijke versie adaptive staircase builder,,2026.1.3,60.02494636746445,2026-04-20 11h20.04.583667 +0200,
4.5,ecc10pos,left,10,0,10,f,1,3.1702462000002924,None,0,0,0,0,10,0,10,0,894.1385319999999,,,,,,,,,,,,,,,894.1266769000003,894.1385319999999,894.1385319999999,894.1385319999999,895.0156159999997,897.3158217,f,1,3.1702462000002924,None,left,19,"[19, 20, 19, 20]",4,shiftedgaze_L_19.png,f,1,1,results25,001,2026-04-20_11h20.04.181,mogelijke versie adaptive staircase builder,,2026.1.3,60.02494636746445,2026-04-20 11h20.04.583667 +0200,
4.5,ecc10pos,left,11,0,11,f,1,3.255526999999347,None,0,0,0,0,11,0,11,0,897.4372395,,,,,,,,,,,,,,,897.420365,897.4372395,897.4372395,897.4372395,898.3155364000004,900.6990894999999,f,1,3.255526999999347,None,left,18,"[19, 20, 19, 20]",4,shiftedgaze_L_18.png,f,1,1,results25,001,2026-04-20_11h20.04.181,mogelijke versie adaptive staircase builder,,2026.1.3,60.02494636746445,2026-04-20 11h20.04.583667 +0200,
4.5,ecc10pos,left,12,0,12,f,1,3.5929166999994777,None,0,0,0,0,12,0,12,0,900.8038612999999,,,,,,,,,,,,,,,900.7924486000002,900.8038612999999,900.8038612999999,900.8038612999999,901.6994365999999,904.3992036999998,f,1,3.5929166999994777,None,left,17,"[19, 20, 19, 20]",4,shiftedgaze_L_17.png,f,1,1,results25,001,2026-04-20_11h20.04.181,mogelijke versie adaptive staircase builder,,2026.1.3,60.02494636746445,2026-04-20 11h20.04.583667 +0200,
4.5,ecc10pos,left,13,0,13,j,1,4.495965799999794,None,0,0,0,0,13,0,13,0,904.5170022000002,,,,,,,,,,,,,,,904.5053766000001,904.5170022000002,904.5170022000002,904.5170022000002,905.3987567000004,909.0156697000002,j,1,4.495965799999794,None,direct,16,"[19, 20, 19, 20]",4,shifteddirectgaze.png,j,1,1,results25,001,2026-04-20_11h20.04.181,mogelijke versie adaptive staircase builder,,2026.1.3,60.02494636746445,2026-04-20 11h20.04.583667 +0200,
4.5,ecc10pos,left,14,0,14,f,0,5.210576899999978,None,0,0,0,0,14,0,14,0,909.1142209,,,,,,,,,,,,,,,909.1033281999999,909.1142209,909.1142209,909.1142209,910.0152109,914.3321796,f,0,5.210576899999978,None,direct,15,"[19, 20, 19, 20, 15]",5,shifteddirectgaze.png,f,0,1,results25,001,2026-04-20_11h20.04.181,mogelijke versie adaptive staircase builder,,2026.1.3,60.02494636746445,2026-04-20 11h20.04.583667 +0200,
4.5,ecc10pos,left,15,0,15,j,0,2.9151812000000064,None,0,0,0,0,15,0,15,0,914.8416177999998,,,,,,,,,,,,,,,914.8298981999997,914.8416177999998,914.8416177999998,914.8416177999998,915.3318190999998,917.7656057000004,j,0,2.9151812000000064,None,left,16,"[19, 20, 19, 20, 15]",5,shiftedgaze_L_16.png,j,0,1,results25,001,2026-04-20_11h20.04.181,mogelijke versie adaptive staircase builder,,2026.1.3,60.02494636746445,2026-04-20 11h20.04.583667 +0200,
4.5,ecc10pos,left,16,0,16,j,0,3.981210299999475,None,0,0,0,0,16,0,16,0,917.8716042000005,,,,,,,,,,,,,,,917.8599568999998,917.8716042000005,917.8716042000005,917.8716042000005,918.7652139000002,921.8655981000002,j,0,3.981210299999475,None,left,17,"[19, 20, 19, 20, 15]",5,shiftedgaze_L_17.png,j,0,1,results25,001,2026-04-20_11h20.04.181,mogelijke versie adaptive staircase builder,,2026.1.3,60.02494636746445,2026-04-20 11h20.04.583667 +0200,
4.5,ecc10pos,left,17,0,17,j,0,3.0983335000000807,None,0,0,0,0,17,0,17,0,921.9704908000003,,,,,,,,,,,,,,,921.9588143000001,921.9704908000003,921.9704908000003,921.9704908000003,922.8651147999999,925.0820303999999,j,0,3.0983335000000807,None,left,18,"[19, 20, 19, 20, 15]",5,shiftedgaze_L_18.png,j,0,1,results25,001,2026-04-20_11h20.04.181,mogelijke versie adaptive staircase builder,,2026.1.3,60.02494636746445,2026-04-20 11h20.04.583667 +0200,
4.5,ecc10pos,left,18,0,18,j,1,3.549051399999371,None,0,0,0,0,18,0,18,0,925.2000018999997,,,,,,,,,,,,,,,925.1884855999997,925.2000018999997,925.2000018999997,925.2000018999997,926.0817876000001,928.7653046000005,j,1,3.549051399999371,None,direct,19,"[19, 20, 19, 20, 15, 19]",6,shifteddirectgaze.png,j,1,1,results25,001,2026-04-20_11h20.04.181,mogelijke versie adaptive staircase builder,,2026.1.3,60.02494636746445,2026-04-20 11h20.04.583667 +0200,
4.5,ecc10pos,left,19,0,19,f,0,4.894037099999878,None,0,0,0,0,19,0,19,0,928.8627738000005,,,,,,,,,,,,,,,928.8519963999997,928.8627738000005,928.8627738000005,928.8627738000005,929.7650131999999,933.7650758999998,f,0,4.894037099999878,None,direct,18,"[19, 20, 19, 20, 15, 19, 18]",7,shifteddirectgaze.png,f,0,1,results25,001,2026-04-20_11h20.04.181,mogelijke versie adaptive staircase builder,,2026.1.3,60.02494636746445,2026-04-20 11h20.04.583667 +0200,
4.5,ecc10pos,left,20,0,20,j,0,3.1474546999997983,None,0,0,0,0,20,0,20,0,933.8894479,,,,,,,,,,,,,,,933.8779617999999,933.8894479,933.8894479,933.8894479,934.7651615000004,937.0487982000004,j,0,3.1474546999997983,None,left,19,"[19, 20, 19, 20, 15, 19, 18]",7,shiftedgaze_L_19.png,j,0,1,results25,001,2026-04-20_11h20.04.181,mogelijke versie adaptive staircase builder,,2026.1.3,60.02494636746445,2026-04-20 11h20.04.583667 +0200,
4.5,ecc10pos,left,21,0,21,j,1,4.102107499999875,None,0,0,0,0,21,0,21,0,937.1666826999999,,,,,,,,,,,,,,,937.1551012,937.1666826999999,937.1666826999999,937.1666826999999,938.0486234999998,941.2821609000002,j,1,4.102107499999875,None,direct,20,"[19, 20, 19, 20, 15, 19, 18, 20]",8,shifteddirectgaze.png,j,1,1,results25,001,2026-04-20_11h20.04.181,mogelijke versie adaptive staircase builder,,2026.1.3,60.02494636746445,2026-04-20 11h20.04.583667 +0200,
4.5,ecc10pos,left,22,0,22,j,1,4.4419909000007465,None,0,0,0,0,22,0,22,0,941.3797802999998,,,,,,,,,,,,,,,941.3691061999998,941.3797802999998,941.3797802999998,941.3797802999998,942.2814980000003,945.8317784999999,j,1,4.4419909000007465,None,direct,19,"[19, 20, 19, 20, 15, 19, 18, 20]",8,shifteddirectgaze.png,j,1,1,results25,001,2026-04-20_11h20.04.181,mogelijke versie adaptive staircase builder,,2026.1.3,60.02494636746445,2026-04-20 11h20.04.583667 +0200,
4.5,ecc10pos,left,23,0,23,f,1,5.159124499999962,None,0,0,0,0,23,0,23,0,945.9577227999998,,,,,,,,,,,,,,,945.9466601000004,945.9577227999998,945.9577227999998,945.9577227999998,946.8314361000002,951.1316814000002,f,1,5.159124499999962,None,left,18,"[19, 20, 19, 20, 15, 19, 18, 20]",8,shiftedgaze_L_18.png,f,1,1,results25,001,2026-04-20_11h20.04.181,mogelijke versie adaptive staircase builder,,2026.1.3,60.02494636746445,2026-04-20 11h20.04.583667 +0200,
4.5,ecc10pos,left,24,0,24,j,0,4.379223900000397,None,0,0,0,0,24,0,24,0,951.2496583000002,,,,,,,,,,,,,,,951.2386324999998,951.2496583000002,951.2496583000002,951.2496583000002,952.1313392000002,955.6315811000004,j,0,4.379223900000397,None,right,17,"[19, 20, 19, 20, 15, 19, 18, 20, 17]",9,shiftedgaze_R_17.png,j,0,1,results25,001,2026-04-20_11h20.04.181,mogelijke versie adaptive staircase builder,,2026.1.3,60.02494636746445,2026-04-20 11h20.04.583667 +0200,
4.5,ecc10pos,left,25,0,25,j,0,3.6756789999999455,None,0,0,0,0,25,0,25,0,955.7295867000003,,,,,,,,,,,,,,,955.7193287999999,955.7295867000003,955.7295867000003,955.7295867000003,956.6313079000001,959.4150007999997,j,0,3.6756789999999455,None,right,18,"[19, 20, 19, 20, 15, 19, 18, 20, 17]",9,shiftedgaze_R_18.png,j,0,1,results25,001,2026-04-20_11h20.04.181,mogelijke versie adaptive staircase builder,,2026.1.3,60.02494636746445,2026-04-20 11h20.04.583667 +0200,
4.5,ecc10pos,left,26,0,26,j,0,3.4707110999997894,None,0,0,0,0,26,0,26,0,959.5420893,,,,,,,,,,,,,,,959.5306177000002,959.5420893,959.5420893,959.5420893,960.4144931999999,963.0151083000001,j,0,3.4707110999997894,None,left,19,"[19, 20, 19, 20, 15, 19, 18, 20, 17]",9,shiftedgaze_L_19.png,j,0,1,results25,001,2026-04-20_11h20.04.181,mogelijke versie adaptive staircase builder,,2026.1.3,60.02494636746445,2026-04-20 11h20.04.583667 +0200,
4.5,ecc10pos,left,27,0,27,j,0,4.89091290000033,None,0,0,0,0,27,0,27,0,963.1220893,,,,,,,,,,,,,,,963.1114556000002,963.1220893,963.1220893,963.1220893,964.0145167999999,968.0149984999998,j,0,4.89091290000033,None,left,20,"[19, 20, 19, 20, 15, 19, 18, 20, 17]",9,shiftedgaze_L_20.png,j,0,1,results25,001,2026-04-20_11h20.04.181,mogelijke versie adaptive staircase builder,,2026.1.3,60.02494636746445,2026-04-20 11h20.04.583667 +0200,
4.5,ecc10pos,left,28,0,28,j,1,4.43203480000011,None,0,0,0,0,28,0,28,0,968.1331166999998,,,,,,,,,,,,,,,968.1215774000002,968.1331166999998,968.1331166999998,968.1331166999998,969.0144087999997,972.5817059000001,j,1,4.43203480000011,None,direct,20,"[19, 20, 19, 20, 15, 19, 18, 20, 17, 20]",10,shifteddirectgaze.png,j,1,1,results25,001,2026-04-20_11h20.04.181,mogelijke versie adaptive staircase builder,,2026.1.3,60.02494636746445,2026-04-20 11h20.04.583667 +0200,
4.5,ecc10pos,left,29,0,29,j,0,4.652217599999858,None,0,0,0,0,29,0,29,0,972.7047466000004,,,,,,,,,,,,,,,972.6934425999998,972.7047466000004,972.7047466000004,972.7047466000004,973.5814318000002,977.3649199000001,j,0,4.652217599999858,None,left,19,"[19, 20, 19, 20, 15, 19, 18, 20, 17, 20, 19]",11,shiftedgaze_L_19.png,j,0,1,results25,001,2026-04-20_11h20.04.181,mogelijke versie adaptive staircase builder,,2026.1.3,60.02494636746445,2026-04-20 11h20.04.583667 +0200,
4.5,ecc10pos,left,30,0,30,j,0,3.06090420000055,None,0,0,0,0,30,0,30,0,977.4720083000002,,,,,,,,,,,,,,,977.4605880999998,977.4720083000002,977.4720083000002,977.4720083000002,978.3642829,980.5486892999998,j,0,3.06090420000055,None,left,20,"[19, 20, 19, 20, 15, 19, 18, 20, 17, 20, 19]",11,shiftedgaze_L_20.png,j,0,1,results25,001,2026-04-20_11h20.04.181,mogelijke versie adaptive staircase builder,,2026.1.3,60.02494636746445,2026-04-20 11h20.04.583667 +0200,
4.5,ecc10pos,left,31,0,31,j,0,3.0106074999994235,None,0,0,0,0,31,0,31,0,980.6503924999997,,,,,,,,,,,,,,,980.6385756999998,980.6503924999997,980.6503924999997,980.6503924999997,981.5643915999999,983.6647541000002,j,0,3.0106074999994235,None,left,20,"[19, 20, 19, 20, 15, 19, 18, 20, 17, 20, 19]",11,shiftedgaze_L_20.png,j,0,1,results25,001,2026-04-20_11h20.04.181,mogelijke versie adaptive staircase builder,,2026.1.3,60.02494636746445,2026-04-20 11h20.04.583667 +0200,
4.5,ecc10pos,left,32,0,32,f,0,2.9849736999995002,None,0,0,0,0,32,0,32,0,983.7799492000004,,,,,,,,,,,,,,,983.7687220999996,983.7799492000004,983.7799492000004,983.7799492000004,984.6641945000001,986.7811555999997,f,0,2.9849736999995002,None,direct,20,"[19, 20, 19, 20, 15, 19, 18, 20, 17, 20, 19]",11,shifteddirectgaze.png,f,0,1,results25,001,2026-04-20_11h20.04.181,mogelijke versie adaptive staircase builder,,2026.1.3,60.02494636746445,2026-04-20 11h20.04.583667 +0200,
4.5,ecc10pos,left,33,0,33,j,0,2.5020997999999963,None,0,0,0,0,33,0,33,0,986.8790805999997,,,,,,,,,,,,,,,986.8679008999998,986.8790805999997,986.8790805999997,986.8790805999997,987.7811899999997,989.3978765000002,j,0,2.5020997999999963,None,right,20,"[19, 20, 19, 20, 15, 19, 18, 20, 17, 20, 19]",11,shiftedgaze_R_20.png,j,0,1,results25,001,2026-04-20_11h20.04.181,mogelijke versie adaptive staircase builder,,2026.1.3,60.02494636746445,2026-04-20 11h20.04.583667 +0200,
4.5,ecc10pos,left,34,0,34,j,0,2.684388100000433,None,0,0,0,0,34,0,34,0,989.4968743,,,,,,,,,,,,,,,989.4850255000001,989.4968743,989.4968743,989.4968743,990.3976670000002,992.1978307999998,j,0,2.684388100000433,None,right,20,"[19, 20, 19, 20, 15, 19, 18, 20, 17, 20, 19]",11,shiftedgaze_R_20.png,j,0,1,results25,001,2026-04-20_11h20.04.181,mogelijke versie adaptive staircase builder,,2026.1.3,60.02494636746445,2026-04-20 11h20.04.583667 +0200,
4.5,ecc10pos,left,35,0,35,j,0,3.0037452999995367,None,0,0,0,0,35,0,35,0,992.3213422999997,,,,,,,,,,,,,,,992.3090222000001,992.3213422999997,992.3213422999997,992.3213422999997,993.1974771000005,995.3312535000005,j,0,3.0037452999995367,None,left,20,"[19, 20, 19, 20, 15, 19, 18, 20, 17, 20, 19]",11,shiftedgaze_L_20.png,j,0,1,results25,001,2026-04-20_11h20.04.181,mogelijke versie adaptive staircase builder,,2026.1.3,60.02494636746445,2026-04-20 11h20.04.583667 +0200,
4.5,ecc10pos,left,36,0,36,f,1,4.477938099999847,None,0,0,0,0,36,0,36,0,995.4468976999997,,,,,,,,,,,,,,,995.4354054000005,995.4468976999997,995.4468976999997,995.4468976999997,996.3310053000005,999.9310750000004,f,1,4.477938099999847,None,right,20,"[19, 20, 19, 20, 15, 19, 18, 20, 17, 20, 19, 20]",12,shiftedgaze_R_20.png,f,1,1,results25,001,2026-04-20_11h20.04.181,mogelijke versie adaptive staircase builder,,2026.1.3,60.02494636746445,2026-04-20 11h20.04.583667 +0200,
4.5,ecc10pos,left,37,0,37,f,1,3.1191804999998567,None,0,0,0,0,37,0,37,0,1000.0539000999997,,,,,,,,,,,,,,,1000.0425969999997,1000.0539000999997,1000.0539000999997,1000.0539000999997,1000.9308056999998,1003.1817799999999,f,1,3.1191804999998567,None,left,19,"[19, 20, 19, 20, 15, 19, 18, 20, 17, 20, 19, 20]",12,shiftedgaze_L_19.png,f,1,1,results25,001,2026-04-20_11h20.04.181,mogelijke versie adaptive staircase builder,,2026.1.3,60.02494636746445,2026-04-20 11h20.04.583667 +0200,
4.5,ecc10pos,left,38,0,38,j,0,3.1382690999998886,None,0,0,0,0,38,0,38,0,1003.3066758000004,,,,,,,,,,,,,,,1003.2952488999999,1003.3066758000004,1003.3066758000004,1003.3066758000004,1004.1973188000002,1006.4476537,j,0,3.1382690999998886,None,right,18,"[19, 20, 19, 20, 15, 19, 18, 20, 17, 20, 19, 20, 18]",13,shiftedgaze_R_18.png,j,0,1,results25,001,2026-04-20_11h20.04.181,mogelijke versie adaptive staircase builder,,2026.1.3,60.02494636746445,2026-04-20 11h20.04.583667 +0200,
4.5,ecc10pos,left,39,0,39,j,1,3.0182065999997576,None,0,0,0,0,39,0,39,0,1006.5547586000002,,,,,,,,,,,,,,,1006.5441073000002,1006.5547586000002,1006.5547586000002,1006.5547586000002,1007.4472432000002,1009.5809976999999,j,1,3.0182065999997576,None,direct,19,"[19, 20, 19, 20, 15, 19, 18, 20, 17, 20, 19, 20, 18, 19]",14,shifteddirectgaze.png,j,1,1,results25,001,2026-04-20_11h20.04.181,mogelijke versie adaptive staircase builder,,2026.1.3,60.02494636746445,2026-04-20 11h20.04.583667 +0200,
4.5,ecc10pos,left,40,0,40,j,0,2.7341863000001467,None,0,0,0,0,40,0,40,0,1009.6788716000001,,,,,,,,,,,,,,,1009.667324,1009.6788716000001,1009.6788716000001,1009.6788716000001,1010.5804884999998,1012.4142401999998,j,0,2.7341863000001467,None,right,18,"[19, 20, 19, 20, 15, 19, 18, 20, 17, 20, 19, 20, 18, 19, 18]",15,shiftedgaze_R_18.png,j,0,1,results25,001,2026-04-20_11h20.04.181,mogelijke versie adaptive staircase builder,,2026.1.3,60.02494636746445,2026-04-20 11h20.04.583667 +0200,
4.5,ecc10pos,left,41,0,41,j,0,5.1444658999998865,None,0,0,0,0,41,0,41,0,1012.5324857000005,,,,,,,,,,,,,,,1012.5226229999998,1012.5324857000005,1012.5324857000005,1012.5324857000005,1013.4138799000002,1017.6808624000005,j,0,5.1444658999998865,None,right,19,"[19, 20, 19, 20, 15, 19, 18, 20, 17, 20, 19, 20, 18, 19, 18]",15,shiftedgaze_R_19.png,j,0,1,results25,001,2026-04-20_11h20.04.181,mogelijke versie adaptive staircase builder,,2026.1.3,60.02494636746445,2026-04-20 11h20.04.583667 +0200,
4.5,ecc10pos,left,42,0,42,j,0,4.440578099999584,None,0,0,0,0,42,0,42,0,1017.7974500999999,,,,,,,,,,,,,,,1017.7877500000004,1017.7974500999999,1017.7974500999999,1017.7974500999999,1018.6802869000003,1022.2477810999999,j,0,4.440578099999584,None,right,20,"[19, 20, 19, 20, 15, 19, 18, 20, 17, 20, 19, 20, 18, 19, 18]",15,shiftedgaze_R_20.png,j,0,1,results25,001,2026-04-20_11h20.04.181,mogelijke versie adaptive staircase builder,,2026.1.3,60.02494636746445,2026-04-20 11h20.04.583667 +0200,
4.5,ecc10pos,left,43,0,43,f,1,5.876866999999947,None,0,0,0,0,43,0,43,0,1022.3920195999999,,,,,,,,,,,,,,,1022.3807785999998,1022.3920195999999,1022.3920195999999,1022.3920195999999,1023.2636614000003,1028.2805246999997,f,1,5.876866999999947,None,left,20,"[19, 20, 19, 20, 15, 19, 18, 20, 17, 20, 19, 20, 18, 19, 18, 20]",16,shiftedgaze_L_20.png,f,1,1,results25,001,2026-04-20_11h20.04.181,mogelijke versie adaptive staircase builder,,2026.1.3,60.02494636746445,2026-04-20 11h20.04.583667 +0200,
4.5,ecc10pos,left,44,0,44,j,0,3.191577999999936,None,0,0,0,0,44,0,44,0,1028.3973004,,,,,,,,,,,,,,,1028.3871398,1028.3973004,1028.3973004,1028.3973004,1029.2802262000005,1031.5973788000001,j,0,3.191577999999936,None,left,19,"[19, 20, 19, 20, 15, 19, 18, 20, 17, 20, 19, 20, 18, 19, 18, 20, 19]",17,shiftedgaze_L_19.png,j,0,1,results25,001,2026-04-20_11h20.04.181,mogelijke versie adaptive staircase builder,,2026.1.3,60.02494636746445,2026-04-20 11h20.04.583667 +0200,
4.5,ecc10pos,left,45,0,45,j,1,3.5896344999991925,None,0,0,0,0,45,0,45,0,1031.7193378000002,,,,,,,,,,,,,,,1031.7088994000005,1031.7193378000002,1031.7193378000002,1031.7193378000002,1032.596966,1035.3145898000002,j,1,3.5896344999991925,None,direct,20,"[19, 20, 19, 20, 15, 19, 18, 20, 17, 20, 19, 20, 18, 19, 18, 20, 19, 20]",18,shifteddirectgaze.png,j,1,1,results25,001,2026-04-20_11h20.04.181,mogelijke versie adaptive staircase builder,,2026.1.3,60.02494636746445,2026-04-20 11h20.04.583667 +0200,
4.5,ecc10pos,left,46,0,46,j,0,4.180904400000145,None,0,0,0,0,46,0,46,0,1035.4239436999997,,,,,,,,,,,,,,,1035.4135361999997,1035.4239436999997,1035.4239436999997,1035.4239436999997,1036.3302419000001,1039.6138965,j,0,4.180904400000145,None,right,19,"[19, 20, 19, 20, 15, 19, 18, 20, 17, 20, 19, 20, 18, 19, 18, 20, 19, 20, 19]",19,shiftedgaze_R_19.png,j,0,1,results25,001,2026-04-20_11h20.04.181,mogelijke versie adaptive staircase builder,,2026.1.3,60.02494636746445,2026-04-20 11h20.04.583667 +0200,
4.5,ecc10pos,left,47,0,47,j,1,2.27564110000003,None,0,0,0,0,47,0,47,0,1039.7216676999997,,,,,,,,,,,,,,,1039.7128207000005,1039.7216676999997,1039.7216676999997,1039.7216676999997,1040.6134462,1042.0138152,j,1,2.27564110000003,None,direct,20,"[19, 20, 19, 20, 15, 19, 18, 20, 17, 20, 19, 20, 18, 19, 18, 20, 19, 20, 19, 20]",20,shifteddirectgaze.png,j,1,1,results25,001,2026-04-20_11h20.04.181,mogelijke versie adaptive staircase builder,,2026.1.3,60.02494636746445,2026-04-20 11h20.04.583667 +0200,
4.5,ecc10pos,left,48,0,48,f,1,2.162170000000515,None,0,0,0,0,48,0,48,0,1042.1227395000005,,,,,,,,,,,,,,,1042.1131434,1042.1227395000005,1042.1227395000005,1042.1227395000005,1043.0138779999997,1044.2974279999999,f,1,2.162170000000515,None,right,19,"[19, 20, 19, 20, 15, 19, 18, 20, 17, 20, 19, 20, 18, 19, 18, 20, 19, 20, 19, 20]",20,shiftedgaze_R_19.png,f,1,1,results25,001,2026-04-20_11h20.04.181,mogelijke versie adaptive staircase builder,,2026.1.3,60.02494636746445,2026-04-20 11h20.04.583667 +0200,
4.5,ecc10pos,left,49,0,49,j,0,2.295782999999574,None,0,0,0,0,49,0,49,0,1044.4291693000005,,,,,,,,,,,,,,,1044.4175904000003,1044.4291693000005,1044.4291693000005,1044.4291693000005,1045.2967359000004,1046.7304769000002,j,0,2.295782999999574,None,left,18,"[19, 20, 19, 20, 15, 19, 18, 20, 17, 20, 19, 20, 18, 19, 18, 20, 19, 20, 19, 20, 18]",21,shiftedgaze_L_18.png,j,0,1,results25,001,2026-04-20_11h20.04.181,mogelijke versie adaptive staircase builder,,2026.1.3,60.02494636746445,2026-04-20 11h20.04.583667 +0200,
4.5,ecc10pos,left,50,0,50,j,0,1.9953967999999804,None,0,0,0,0,50,0,50,0,1046.8496145,,,,,,,,,,,,,,,1046.8380290000005,1046.8496145,1046.8496145,1046.8496145,1047.7301023,1048.8473034999997,j,0,1.9953967999999804,None,right,19,"[19, 20, 19, 20, 15, 19, 18, 20, 17, 20, 19, 20, 18, 19, 18, 20, 19, 20, 19, 20, 18]",21,shiftedgaze_R_19.png,j,0,1,results25,001,2026-04-20_11h20.04.181,mogelijke versie adaptive staircase builder,,2026.1.3,60.02494636746445,2026-04-20 11h20.04.583667 +0200,
4.5,ecc10pos,left,51,0,51,f,0,1.7955007999998998,None,0,0,0,0,51,0,51,0,1048.9534189000005,,,,,,,,,,,,,,,1048.9439725000002,1048.9534189000005,1048.9534189000005,1048.9534189000005,1049.8467873,1050.7637845999998,f,0,1.7955007999998998,None,direct,20,"[19, 20, 19, 20, 15, 19, 18, 20, 17, 20, 19, 20, 18, 19, 18, 20, 19, 20, 19, 20, 18]",21,shifteddirectgaze.png,f,0,1,results25,001,2026-04-20_11h20.04.181,mogelijke versie adaptive staircase builder,,2026.1.3,60.02494636746445,2026-04-20 11h20.04.583667 +0200,
4.5,ecc10pos,left,52,0,52,f,1,2.2733674999999494,None,0,0,0,0,52,0,52,0,1050.8914750000004,,,,,,,,,,,,,,,1050.8802930000002,1050.8914750000004,1050.8914750000004,1050.8914750000004,1051.7632822000005,1053.1803891999998,f,1,2.2733674999999494,None,left,20,"[19, 20, 19, 20, 15, 19, 18, 20, 17, 20, 19, 20, 18, 19, 18, 20, 19, 20, 19, 20, 18, 20]",22,shiftedgaze_L_20.png,f,1,1,results25,001,2026-04-20_11h20.04.181,mogelijke versie adaptive staircase builder,,2026.1.3,60.02494636746445,2026-04-20 11h20.04.583667 +0200,
4.5,ecc10pos,left,53,0,53,f,0,1.8333249000006617,None,0,0,0,0,53,0,53,0,1053.2995284999997,,,,,,,,,,,,,,,1053.2882635000005,1053.2995284999997,1053.2995284999997,1053.2995284999997,1054.1799771000005,1055.1468397999997,f,0,1.8333249000006617,None,direct,19,"[19, 20, 19, 20, 15, 19, 18, 20, 17, 20, 19, 20, 18, 19, 18, 20, 19, 20, 19, 20, 18, 20, 19]",23,shifteddirectgaze.png,f,0,1,results25,001,2026-04-20_11h20.04.181,mogelijke versie adaptive staircase builder,,2026.1.3,60.02494636746445,2026-04-20 11h20.04.583667 +0200,
4.5,ecc10pos,left,54,0,54,j,1,2.0470118000002913,None,0,0,0,0,54,0,54,0,1055.2459116999999,,,,,,,,,,,,,,,1055.2351006,1055.2459116999999,1055.2459116999999,1055.2459116999999,1056.1466550000005,1057.2970936000002,j,1,2.0470118000002913,None,direct,20,"[19, 20, 19, 20, 15, 19, 18, 20, 17, 20, 19, 20, 18, 19, 18, 20, 19, 20, 19, 20, 18, 20, 19, 20]",24,shifteddirectgaze.png,j,1,1,results25,001,2026-04-20_11h20.04.181,mogelijke versie adaptive staircase builder,,2026.1.3,60.02494636746445,2026-04-20 11h20.04.583667 +0200,
4.5,ecc10pos,left,55,0,55,j,0,4.645120799999859,None,0,0,0,0,55,0,55,0,1057.4157518000002,,,,,,,,,,,,,,,1057.4045281999997,1057.4157518000002,1057.4157518000002,1057.4157518000002,1058.296523,1062.0635997999998,j,0,4.645120799999859,None,left,19,"[19, 20, 19, 20, 15, 19, 18, 20, 17, 20, 19, 20, 18, 19, 18, 20, 19, 20, 19, 20, 18, 20, 19, 20, 19]",25,shiftedgaze_L_19.png,j,0,1,results25,001,2026-04-20_11h20.04.181,mogelijke versie adaptive staircase builder,,2026.1.3,60.02494636746445,2026-04-20 11h20.04.583667 +0200,
4.5,ecc10pos,left,56,0,56,f,0,2.0959201000005123,None,0,0,0,0,56,0,56,0,1062.1729710999998,,,,,,,,,,,,,,,1062.1616359,1062.1729710999998,1062.1729710999998,1062.1729710999998,1063.0632186000003,1064.2803812000002,f,0,2.0959201000005123,None,direct,20,"[19, 20, 19, 20, 15, 19, 18, 20, 17, 20, 19, 20, 18, 19, 18, 20, 19, 20, 19, 20, 18, 20, 19, 20, 19]",25,shifteddirectgaze.png,f,0,1,results25,001,2026-04-20_11h20.04.181,mogelijke versie adaptive staircase builder,,2026.1.3,60.02494636746445,2026-04-20 11h20.04.583667 +0200,
4.5,ecc10pos,left,57,0,57,f,0,2.136239399999795,None,0,0,0,0,57,0,57,0,1064.3727518000005,,,,,,,,,,,,,,,1064.3620485000001,1064.3727518000005,1064.3727518000005,1064.3727518000005,1065.2798230999997,1066.5135025,f,0,2.136239399999795,None,direct,20,"[19, 20, 19, 20, 15, 19, 18, 20, 17, 20, 19, 20, 18, 19, 18, 20, 19, 20, 19, 20, 18, 20, 19, 20, 19]",25,shifteddirectgaze.png,f,0,1,results25,001,2026-04-20_11h20.04.181,mogelijke versie adaptive staircase builder,,2026.1.3,60.02494636746445,2026-04-20 11h20.04.583667 +0200,
4.5,ecc10pos,left,58,0,58,f,1,5.741205699999227,None,0,0,0,0,58,0,58,0,1066.6317566999996,,,,,,,,,,,,,,,1066.6201535,1066.6317566999996,1066.6317566999996,1066.6317566999996,1067.5136499999999,1072.3802015,f,1,5.741205699999227,None,left,20,"[19, 20, 19, 20, 15, 19, 18, 20, 17, 20, 19, 20, 18, 19, 18, 20, 19, 20, 19, 20, 18, 20, 19, 20, 19, 20]",26,shiftedgaze_L_20.png,f,1,1,results25,001,2026-04-20_11h20.04.181,mogelijke versie adaptive staircase builder,,2026.1.3,60.02494636746445,2026-04-20 11h20.04.583667 +0200,
4.5,ecc10pos,left,59,0,59,j,0,2.207155499999317,None,0,0,0,0,59,0,59,0,1072.4778142000005,,,,,,,,,,,,,,,1072.466421,1072.4778142000005,1072.4778142000005,1072.4778142000005,1073.3796184000003,1074.6966979,j,0,2.207155499999317,None,left,19,"[19, 20, 19, 20, 15, 19, 18, 20, 17, 20, 19, 20, 18, 19, 18, 20, 19, 20, 19, 20, 18, 20, 19, 20, 19, 20, 19]",27,shiftedgaze_L_19.png,j,0,1,results25,001,2026-04-20_11h20.04.181,mogelijke versie adaptive staircase builder,,2026.1.3,60.02494636746445,2026-04-20 11h20.04.583667 +0200,
4.5,ecc10pos,left,0,0,0,,,,,0,0,0,0,,,,,,,,,,,,,,,,,,,,,,,,,,,,,,,,,,,,,,results25,001,2026-04-20_11h20.04.181,mogelijke versie adaptive staircase builder,,2026.1.3,60.02494636746445,2026-04-20 11h20.04.583667 +0200,
12.5,ecc0,mid,0,0,0,j,1,2.8829125999991447,None,0,1,1,1,0,0,0,0,1074.8341381999999,,,,,,,,,,,,,1074.7182146000005,1074.7182685999996,1074.8225583000003,1074.8341381999999,1075.7296198000004,1074.8341381999999,1074.8341381999999,1077.7300780000005,j,1,2.8829125999991447,None,direct,20,[],0,direct_gaze.png,j,1,2,results25,001,2026-04-20_11h20.04.181,mogelijke versie adaptive staircase builder,,2026.1.3,60.02494636746445,2026-04-20 11h20.04.583667 +0200,
12.5,ecc0,mid,1,0,1,j,0,2.390049199999339,None,0,1,1,1,1,0,1,0,1077.8309132000004,,,,,,,,,,,,,,,1077.8201201000002,1077.8309132000004,1078.729582,1077.8309132000004,1077.8309132000004,1080.2300158999997,j,0,2.390049199999339,None,left,19,[19],1,gaze_L_19.png,j,0,2,results25,001,2026-04-20_11h20.04.181,mogelijke versie adaptive staircase builder,,2026.1.3,60.02494636746445,2026-04-20 11h20.04.583667 +0200,
12.5,ecc0,mid,2,0,2,j,1,2.794895300000462,None,0,1,1,1,2,0,2,0,1080.3220044999998,,,,,,,,,,,,,,,1080.3112468,1080.3220044999998,1081.2295313000004,1080.3220044999998,1080.3220044999998,1083.1297679,j,1,2.794895300000462,None,direct,20,"[19, 20]",2,direct_gaze.png,j,1,2,results25,001,2026-04-20_11h20.04.181,mogelijke versie adaptive staircase builder,,2026.1.3,60.02494636746445,2026-04-20 11h20.04.583667 +0200,
12.5,ecc0,mid,3,0,3,f,1,1.7332190000006449,None,0,1,1,1,3,0,3,0,1083.2318115999997,,,,,,,,,,,,,,,1083.2205314000003,1083.2318115999997,1084.1295459000003,1083.2318115999997,1083.2318115999997,1084.9802301999998,f,1,1.7332190000006449,None,right,19,"[19, 20]",2,gaze_R_19.png,f,1,2,results25,001,2026-04-20_11h20.04.181,mogelijke versie adaptive staircase builder,,2026.1.3,60.02494636746445,2026-04-20 11h20.04.583667 +0200,
12.5,ecc0,mid,4,0,4,j,1,1.6897665000005873,None,0,1,1,1,4,0,4,0,1085.0751964,,,,,,,,,,,,,,,1085.0645348999997,1085.0751964,1085.9796016,1085.0751964,1085.0751964,1086.7799949999999,j,1,1.6897665000005873,None,direct,18,"[19, 20]",2,direct_gaze.png,j,1,2,results25,001,2026-04-20_11h20.04.181,mogelijke versie adaptive staircase builder,,2026.1.3,60.02494636746445,2026-04-20 11h20.04.583667 +0200,
12.5,ecc0,mid,5,0,5,j,0,1.7884756999992533,None,0,1,1,1,5,0,5,0,1086.8815359,,,,,,,,,,,,,,,1086.8709688999998,1086.8815359,1087.7795641000002,1086.8815359,1086.8815359,1088.6798172,j,0,1.7884756999992533,None,right,17,"[19, 20, 17]",3,gaze_R_17.png,j,0,2,results25,001,2026-04-20_11h20.04.181,mogelijke versie adaptive staircase builder,,2026.1.3,60.02494636746445,2026-04-20 11h20.04.583667 +0200,
12.5,ecc0,mid,6,0,6,j,1,1.7132964000002175,None,0,1,1,1,6,0,6,0,1088.7717654999997,,,,,,,,,,,,,,,1088.7611668999998,1088.7717654999997,1089.6794230000005,1088.7717654999997,1088.7717654999997,1090.4965548,j,1,1.7132964000002175,None,direct,18,"[19, 20, 17, 18]",4,direct_gaze.png,j,1,2,results25,001,2026-04-20_11h20.04.181,mogelijke versie adaptive staircase builder,,2026.1.3,60.02494636746445,2026-04-20 11h20.04.583667 +0200,
12.5,ecc0,mid,7,0,7,f,0,1.991129899999578,None,0,1,1,1,7,0,7,0,1090.5898728000002,,,,,,,,,,,,,,,1090.5787803000003,1090.5898728000002,1091.4961896000004,1090.5898728000002,1090.5898728000002,1092.5964408999998,f,0,1.991129899999578,None,direct,17,"[19, 20, 17, 18, 17]",5,direct_gaze.png,f,0,2,results25,001,2026-04-20_11h20.04.181,mogelijke versie adaptive staircase builder,,2026.1.3,60.02494636746445,2026-04-20 11h20.04.583667 +0200,
12.5,ecc0,mid,8,0,8,j,1,2.11626570000044,None,0,1,1,1,8,0,8,0,1092.6888135,,,,,,,,,,,,,,,1092.6775132000002,1092.6888135,1093.5960672,1092.6888135,1092.6888135,1094.8131344000003,j,1,2.11626570000044,None,direct,18,"[19, 20, 17, 18, 17, 18]",6,direct_gaze.png,j,1,2,results25,001,2026-04-20_11h20.04.181,mogelijke versie adaptive staircase builder,,2026.1.3,60.02494636746445,2026-04-20 11h20.04.583667 +0200,
12.5,ecc0,mid,9,0,9,j,0,1.7809789000002638,None,0,1,1,1,9,0,9,0,1094.9120904000001,,,,,,,,,,,,,,,1094.9011956000004,1094.9120904000001,1095.8127187,1094.9120904000001,1094.9120904000001,1096.6963296000004,j,0,1.7809789000002638,None,left,17,"[19, 20, 17, 18, 17, 18, 17]",7,gaze_L_17.png,j,0,2,results25,001,2026-04-20_11h20.04.181,mogelijke versie adaptive staircase builder,,2026.1.3,60.02494636746445,2026-04-20 11h20.04.583667 +0200,
12.5,ecc0,mid,10,0,10,j,0,2.106290999999146,None,0,1,1,1,10,0,10,0,1096.7946288000003,,,,,,,,,,,,,,,1096.7838370999998,1096.7946288000003,1097.6958524000001,1096.7946288000003,1096.7946288000003,1098.9130347,j,0,2.106290999999146,None,right,18,"[19, 20, 17, 18, 17, 18, 17]",7,gaze_R_18.png,j,0,2,results25,001,2026-04-20_11h20.04.181,mogelijke versie adaptive staircase builder,,2026.1.3,60.02494636746445,2026-04-20 11h20.04.583667 +0200,
12.5,ecc0,mid,11,0,11,j,1,1.6882286999998541,None,0,1,1,1,11,0,11,0,1099.0048189999998,,,,,,,,,,,,,,,1098.9934941000001,1099.0048189999998,1099.9126599,1099.0048189999998,1099.0048189999998,1100.6963582999997,j,1,1.6882286999998541,None,direct,19,"[19, 20, 17, 18, 17, 18, 17, 19]",8,direct_gaze.png,j,1,2,results25,001,2026-04-20_11h20.04.181,mogelijke versie adaptive staircase builder,,2026.1.3,60.02494636746445,2026-04-20 11h20.04.583667 +0200,
12.5,ecc0,mid,12,0,12,f,1,2.6830651000000216,None,0,1,1,1,12,0,12,0,1100.7939504000005,,,,,,,,,,,,,,,1100.7835289000004,1100.7939504000005,1101.6959489,1100.7939504000005,1100.7939504000005,1103.4796877999997,f,1,2.6830651000000216,None,left,18,"[19, 20, 17, 18, 17, 18, 17, 19]",8,gaze_L_18.png,f,1,2,results25,001,2026-04-20_11h20.04.181,mogelijke versie adaptive staircase builder,,2026.1.3,60.02494636746445,2026-04-20 11h20.04.583667 +0200,
12.5,ecc0,mid,13,0,13,j,0,1.8494505999997273,None,0,1,1,1,13,0,13,0,1103.5715630000004,,,,,,,,,,,,,,,1103.5602710000003,1103.5715630000004,1104.4792325999997,1103.5715630000004,1103.5715630000004,1105.4297566000005,j,0,1.8494505999997273,None,left,17,"[19, 20, 17, 18, 17, 18, 17, 19, 17]",9,gaze_L_17.png,j,0,2,results25,001,2026-04-20_11h20.04.181,mogelijke versie adaptive staircase builder,,2026.1.3,60.02494636746445,2026-04-20 11h20.04.583667 +0200,
12.5,ecc0,mid,14,0,14,j,0,1.6741740999996182,None,0,1,1,1,14,0,14,0,1105.5227569999997,,,,,,,,,,,,,,,1105.5122247,1105.5227569999997,1106.4293177999998,1105.5227569999997,1105.5227569999997,1107.2130480000005,j,0,1.6741740999996182,None,right,18,"[19, 20, 17, 18, 17, 18, 17, 19, 17]",9,gaze_R_18.png,j,0,2,results25,001,2026-04-20_11h20.04.181,mogelijke versie adaptive staircase builder,,2026.1.3,60.02494636746445,2026-04-20 11h20.04.583667 +0200,
12.5,ecc0,mid,15,0,15,j,0,1.8275481000000582,None,0,1,1,1,15,0,15,0,1107.3053654000005,,,,,,,,,,,,,,,1107.2945312000002,1107.3053654000005,1108.2125495,1107.3053654000005,1107.3053654000005,1109.1462274000005,j,0,1.8275481000000582,None,right,19,"[19, 20, 17, 18, 17, 18, 17, 19, 17]",9,gaze_R_19.png,j,0,2,results25,001,2026-04-20_11h20.04.181,mogelijke versie adaptive staircase builder,,2026.1.3,60.02494636746445,2026-04-20 11h20.04.583667 +0200,
12.5,ecc0,mid,16,0,16,f,1,1.7751835999997638,None,0,1,1,1,16,0,16,0,1109.2458094000003,,,,,,,,,,,,,,,1109.2347079,1109.2458094000003,1110.1458302,1109.2458094000003,1109.2458094000003,1111.0295214999996,f,1,1.7751835999997638,None,right,20,"[19, 20, 17, 18, 17, 18, 17, 19, 17, 20]",10,gaze_R_20.png,f,1,2,results25,001,2026-04-20_11h20.04.181,mogelijke versie adaptive staircase builder,,2026.1.3,60.02494636746445,2026-04-20 11h20.04.583667 +0200,
12.5,ecc0,mid,17,0,17,j,0,1.8433163999998214,None,0,1,1,1,17,0,17,0,1111.1217121,,,,,,,,,,,,,,,1111.1111744,1111.1217121,1112.0291599000002,1111.1217121,1111.1217121,1112.9796279000002,j,0,1.8433163999998214,None,right,19,"[19, 20, 17, 18, 17, 18, 17, 19, 17, 20, 19]",11,gaze_R_19.png,j,0,2,results25,001,2026-04-20_11h20.04.181,mogelijke versie adaptive staircase builder,,2026.1.3,60.02494636746445,2026-04-20 11h20.04.583667 +0200,
12.5,ecc0,mid,18,0,18,f,1,1.9019186999994417,None,0,1,1,1,18,0,18,0,1113.0711302,,,,,,,,,,,,,,,1113.0601551999998,1113.0711302,1113.9791203000004,1113.0711302,1113.0711302,1114.9794567,f,1,1.9019186999994417,None,right,20,"[19, 20, 17, 18, 17, 18, 17, 19, 17, 20, 19, 20]",12,gaze_R_20.png,f,1,2,results25,001,2026-04-20_11h20.04.181,mogelijke versie adaptive staircase builder,,2026.1.3,60.02494636746445,2026-04-20 11h20.04.583667 +0200,
12.5,ecc0,mid,19,0,19,j,0,1.9414975999998205,None,0,1,1,1,19,0,19,0,1115.0717782000002,,,,,,,,,,,,,,,1115.0599217999998,1115.0717782000002,1115.9791746,1115.0717782000002,1115.0717782000002,1117.0294832,j,0,1.9414975999998205,None,right,19,"[19, 20, 17, 18, 17, 18, 17, 19, 17, 20, 19, 20, 19]",13,gaze_R_19.png,j,0,2,results25,001,2026-04-20_11h20.04.181,mogelijke versie adaptive staircase builder,,2026.1.3,60.02494636746445,2026-04-20 11h20.04.583667 +0200,
12.5,ecc0,mid,20,0,20,j,0,1.9828569999999672,None,0,1,1,1,20,0,20,0,1117.1261382000002,,,,,,,,,,,,,,,1117.1154016,1117.1261382000002,1118.0290970000005,1117.1261382000002,1117.1261382000002,1119.1128254000005,j,0,1.9828569999999672,None,left,20,"[19, 20, 17, 18, 17, 18, 17, 19, 17, 20, 19, 20, 19]",13,gaze_L_20.png,j,0,2,results25,001,2026-04-20_11h20.04.181,mogelijke versie adaptive staircase builder,,2026.1.3,60.02494636746445,2026-04-20 11h20.04.583667 +0200,
12.5,ecc0,mid,21,0,21,j,1,3.44634859999951,None,0,1,1,1,21,0,21,0,1119.2065635999998,,,,,,,,,,,,,,,1119.1956857000005,1119.2065635999998,1120.1123393999997,1119.2065635999998,1119.2065635999998,1122.6628730000002,j,1,3.44634859999951,None,direct,20,"[19, 20, 17, 18, 17, 18, 17, 19, 17, 20, 19, 20, 19, 20]",14,direct_gaze.png,j,1,2,results25,001,2026-04-20_11h20.04.181,mogelijke versie adaptive staircase builder,,2026.1.3,60.02494636746445,2026-04-20 11h20.04.583667 +0200,
12.5,ecc0,mid,22,0,22,f,1,1.8558050999999978,None,0,1,1,1,22,0,22,0,1122.7571555000004,,,,,,,,,,,,,,,1122.7462612,1122.7571555000004,1123.6623245,1122.7571555000004,1122.7571555000004,1124.6294041,f,1,1.8558050999999978,None,left,19,"[19, 20, 17, 18, 17, 18, 17, 19, 17, 20, 19, 20, 19, 20]",14,gaze_L_19.png,f,1,2,results25,001,2026-04-20_11h20.04.181,mogelijke versie adaptive staircase builder,,2026.1.3,60.02494636746445,2026-04-20 11h20.04.583667 +0200,
12.5,ecc0,mid,23,0,23,f,1,2.133961000000454,None,0,1,1,1,23,0,23,0,1124.7190215,,,,,,,,,,,,,,,1124.7086116,1124.7190215,1125.6289496,1124.7190215,1124.7190215,1126.8627347000001,f,1,2.133961000000454,None,right,18,"[19, 20, 17, 18, 17, 18, 17, 19, 17, 20, 19, 20, 19, 20]",14,gaze_R_18.png,f,1,2,results25,001,2026-04-20_11h20.04.181,mogelijke versie adaptive staircase builder,,2026.1.3,60.02494636746445,2026-04-20 11h20.04.583667 +0200,
12.5,ecc0,mid,24,0,24,f,1,4.032906899999944,None,0,1,1,1,24,0,24,0,1126.9560278999998,,,,,,,,,,,,,,,1126.9446202999998,1126.9560278999998,1127.8623619,1126.9560278999998,1126.9560278999998,1130.9959250000002,f,1,4.032906899999944,None,right,17,"[19, 20, 17, 18, 17, 18, 17, 19, 17, 20, 19, 20, 19, 20]",14,gaze_R_17.png,f,1,2,results25,001,2026-04-20_11h20.04.181,mogelijke versie adaptive staircase builder,,2026.1.3,60.02494636746445,2026-04-20 11h20.04.583667 +0200,
12.5,ecc0,mid,25,0,25,j,0,2.383242999999311,None,0,1,1,1,25,0,25,0,1131.0938008000003,,,,,,,,,,,,,,,1131.0834704999997,1131.0938008000003,1131.9955479999999,1131.0938008000003,1131.0938008000003,1133.4792427000002,j,0,2.383242999999311,None,right,16,"[19, 20, 17, 18, 17, 18, 17, 19, 17, 20, 19, 20, 19, 20, 16]",15,gaze_R_16.png,j,0,2,results25,001,2026-04-20_11h20.04.181,mogelijke versie adaptive staircase builder,,2026.1.3,60.02494636746445,2026-04-20 11h20.04.583667 +0200,
12.5,ecc0,mid,26,0,26,j,1,2.201224500000535,None,0,1,1,1,26,0,26,0,1133.5717147000005,,,,,,,,,,,,,,,1133.5608119999997,1133.5717147000005,1134.4790388000001,1133.5717147000005,1133.5717147000005,1135.7791847999997,j,1,2.201224500000535,None,direct,17,"[19, 20, 17, 18, 17, 18, 17, 19, 17, 20, 19, 20, 19, 20, 16, 17]",16,direct_gaze.png,j,1,2,results25,001,2026-04-20_11h20.04.181,mogelijke versie adaptive staircase builder,,2026.1.3,60.02494636746445,2026-04-20 11h20.04.583667 +0200,
12.5,ecc0,mid,27,0,27,j,0,2.506507600000077,None,0,1,1,1,27,0,27,0,1135.8744453,,,,,,,,,,,,,,,1135.8629760000003,1135.8744453,1136.7787165999998,1135.8744453,1135.8744453,1138.3959188,j,0,2.506507600000077,None,right,16,"[19, 20, 17, 18, 17, 18, 17, 19, 17, 20, 19, 20, 19, 20, 16, 17, 16]",17,gaze_R_16.png,j,0,2,results25,001,2026-04-20_11h20.04.181,mogelijke versie adaptive staircase builder,,2026.1.3,60.02494636746445,2026-04-20 11h20.04.583667 +0200,
12.5,ecc0,mid,28,0,28,f,1,2.2592343999995137,None,0,1,1,1,28,0,28,0,1138.4899189999996,,,,,,,,,,,,,,,1138.4792017999998,1138.4899189999996,1139.3954756000003,1138.4899189999996,1138.4899189999996,1140.7625556000003,f,1,2.2592343999995137,None,right,17,"[19, 20, 17, 18, 17, 18, 17, 19, 17, 20, 19, 20, 19, 20, 16, 17, 16, 17]",18,gaze_R_17.png,f,1,2,results25,001,2026-04-20_11h20.04.181,mogelijke versie adaptive staircase builder,,2026.1.3,60.02494636746445,2026-04-20 11h20.04.583667 +0200,
12.5,ecc0,mid,29,0,29,f,1,2.284683799999584,None,0,1,1,1,29,0,29,0,1140.8643972999998,,,,,,,,,,,,,,,1140.8540039999998,1140.8643972999998,1141.7620414000003,1140.8643972999998,1140.8643972999998,1143.1624743000002,f,1,2.284683799999584,None,left,16,"[19, 20, 17, 18, 17, 18, 17, 19, 17, 20, 19, 20, 19, 20, 16, 17, 16, 17]",18,gaze_L_16.png,f,1,2,results25,001,2026-04-20_11h20.04.181,mogelijke versie adaptive staircase builder,,2026.1.3,60.02494636746445,2026-04-20 11h20.04.583667 +0200,
12.5,ecc0,mid,30,0,30,j,0,2.813529999999446,None,0,1,1,1,30,0,30,0,1143.2634737999997,,,,,,,,,,,,,,,1143.2527547999998,1143.2634737999997,1144.1620209000002,1143.2634737999997,1143.2634737999997,1146.0793806000001,j,0,2.813529999999446,None,left,15,"[19, 20, 17, 18, 17, 18, 17, 19, 17, 20, 19, 20, 19, 20, 16, 17, 16, 17, 15]",19,gaze_L_15.png,j,0,2,results25,001,2026-04-20_11h20.04.181,mogelijke versie adaptive staircase builder,,2026.1.3,60.02494636746445,2026-04-20 11h20.04.583667 +0200,
12.5,ecc0,mid,31,0,31,j,1,1.8223022000001947,None,0,1,1,1,31,0,31,0,1146.1747664000004,,,,,,,,,,,,,,,1146.1644807000002,1146.1747664000004,1147.0787013,1146.1747664000004,1146.1747664000004,1148.0125260000004,j,1,1.8223022000001947,None,direct,16,"[19, 20, 17, 18, 17, 18, 17, 19, 17, 20, 19, 20, 19, 20, 16, 17, 16, 17, 15, 16]",20,direct_gaze.png,j,1,2,results25,001,2026-04-20_11h20.04.181,mogelijke versie adaptive staircase builder,,2026.1.3,60.02494636746445,2026-04-20 11h20.04.583667 +0200,
12.5,ecc0,mid,32,0,32,f,0,2.0187675999995918,None,0,1,1,1,32,0,32,0,1148.1061978999996,,,,,,,,,,,,,,,1148.0954886999998,1148.1061978999996,1149.0120519000002,1148.1061978999996,1148.1061978999996,1150.1289987999999,f,0,2.0187675999995918,None,direct,15,"[19, 20, 17, 18, 17, 18, 17, 19, 17, 20, 19, 20, 19, 20, 16, 17, 16, 17, 15, 16, 15]",21,direct_gaze.png,f,0,2,results25,001,2026-04-20_11h20.04.181,mogelijke versie adaptive staircase builder,,2026.1.3,60.02494636746445,2026-04-20 11h20.04.583667 +0200,
12.5,ecc0,mid,33,0,33,f,1,2.230595099999846,None,0,1,1,1,33,0,33,0,1150.2223899,,,,,,,,,,,,,,,1150.2115739,1150.2223899,1151.1287511,1150.2223899,1150.2223899,1152.4623594000004,f,1,2.230595099999846,None,left,16,"[19, 20, 17, 18, 17, 18, 17, 19, 17, 20, 19, 20, 19, 20, 16, 17, 16, 17, 15, 16, 15, 16]",22,gaze_L_16.png,f,1,2,results25,001,2026-04-20_11h20.04.181,mogelijke versie adaptive staircase builder,,2026.1.3,60.02494636746445,2026-04-20 11h20.04.583667 +0200,
12.5,ecc0,mid,34,0,34,j,0,1.838258699999642,None,0,1,1,1,34,0,34,0,1152.9507030000004,,,,,,,,,,,,,,,1152.9396795000002,1152.9507030000004,1153.4620734,1152.9507030000004,1152.9507030000004,1154.7957070000002,j,0,1.838258699999642,None,right,15,"[19, 20, 17, 18, 17, 18, 17, 19, 17, 20, 19, 20, 19, 20, 16, 17, 16, 17, 15, 16, 15, 16, 15]",23,gaze_R_15.png,j,0,2,results25,001,2026-04-20_11h20.04.181,mogelijke versie adaptive staircase builder,,2026.1.3,60.02494636746445,2026-04-20 11h20.04.583667 +0200,
12.5,ecc0,mid,35,0,35,f,0,3.7528629999997065,None,0,1,1,1,35,0,35,0,1154.8922143999998,,,,,,,,,,,,,,,1154.8816723999998,1154.8922143999998,1155.7952954000002,1154.8922143999998,1154.8922143999998,1158.645625,f,0,3.7528629999997065,None,direct,16,"[19, 20, 17, 18, 17, 18, 17, 19, 17, 20, 19, 20, 19, 20, 16, 17, 16, 17, 15, 16, 15, 16, 15]",23,direct_gaze.png,f,0,2,results25,001,2026-04-20_11h20.04.181,mogelijke versie adaptive staircase builder,,2026.1.3,60.02494636746445,2026-04-20 11h20.04.583667 +0200,
12.5,ecc0,mid,36,0,36,f,1,1.9764308000003439,None,0,1,1,1,36,0,36,0,1158.7405444000005,,,,,,,,,,,,,,,1158.7304290000002,1158.7405444000005,1159.6452675,1158.7405444000005,1158.7405444000005,1160.7290702,f,1,1.9764308000003439,None,right,17,"[19, 20, 17, 18, 17, 18, 17, 19, 17, 20, 19, 20, 19, 20, 16, 17, 16, 17, 15, 16, 15, 16, 15, 17]",24,gaze_R_17.png,f,1,2,results25,001,2026-04-20_11h20.04.181,mogelijke versie adaptive staircase builder,,2026.1.3,60.02494636746445,2026-04-20 11h20.04.583667 +0200,
12.5,ecc0,mid,37,0,37,j,0,1.714575199999672,None,0,1,1,1,37,0,37,0,1160.8264523999997,,,,,,,,,,,,,,,1160.8154034999998,1160.8264523999997,1161.7285233000002,1160.8264523999997,1160.8264523999997,1162.5455136,j,0,1.714575199999672,None,left,16,"[19, 20, 17, 18, 17, 18, 17, 19, 17, 20, 19, 20, 19, 20, 16, 17, 16, 17, 15, 16, 15, 16, 15, 17, 16]",25,gaze_L_16.png,j,0,2,results25,001,2026-04-20_11h20.04.181,mogelijke versie adaptive staircase builder,,2026.1.3,60.02494636746445,2026-04-20 11h20.04.583667 +0200,
12.5,ecc0,mid,38,0,38,j,0,1.7631895000004079,None,0,1,1,1,38,0,38,0,1162.6418337000005,,,,,,,,,,,,,,,1162.6313226000002,1162.6418337000005,1163.5451388000001,1162.6418337000005,1162.6418337000005,1164.4121457,j,0,1.7631895000004079,None,right,17,"[19, 20, 17, 18, 17, 18, 17, 19, 17, 20, 19, 20, 19, 20, 16, 17, 16, 17, 15, 16, 15, 16, 15, 17, 16]",25,gaze_R_17.png,j,0,2,results25,001,2026-04-20_11h20.04.181,mogelijke versie adaptive staircase builder,,2026.1.3,60.02494636746445,2026-04-20 11h20.04.583667 +0200,
12.5,ecc0,mid,39,0,39,f,1,2.163900599999579,None,0,1,1,1,39,0,39,0,1164.5058102000003,,,,,,,,,,,,,,,1164.4960707999999,1164.5058102000003,1165.4124633000001,1164.5058102000003,1164.5058102000003,1166.6786625000004,f,1,2.163900599999579,None,right,18,"[19, 20, 17, 18, 17, 18, 17, 19, 17, 20, 19, 20, 19, 20, 16, 17, 16, 17, 15, 16, 15, 16, 15, 17, 16, 18]",26,gaze_R_18.png,f,1,2,results25,001,2026-04-20_11h20.04.181,mogelijke versie adaptive staircase builder,,2026.1.3,60.02494636746445,2026-04-20 11h20.04.583667 +0200,
12.5,ecc0,mid,40,0,40,j,0,2.1203778999997667,None,0,1,1,1,40,0,40,0,1166.7725864000004,,,,,,,,,,,,,,,1166.7619968,1166.7725864000004,1167.6783636999999,1166.7725864000004,1166.7725864000004,1168.8953558000003,j,0,2.1203778999997667,None,right,17,"[19, 20, 17, 18, 17, 18, 17, 19, 17, 20, 19, 20, 19, 20, 16, 17, 16, 17, 15, 16, 15, 16, 15, 17, 16, 18, 17]",27,gaze_R_17.png,j,0,2,results25,001,2026-04-20_11h20.04.181,mogelijke versie adaptive staircase builder,,2026.1.3,60.02494636746445,2026-04-20 11h20.04.583667 +0200,
12.5,ecc0,mid,41,0,41,f,1,2.182552599999326,None,0,1,1,1,41,0,41,0,1168.9904181000002,,,,,,,,,,,,,,,1168.9803647999997,1168.9904181000002,1169.8950323999998,1168.9904181000002,1168.9904181000002,1171.1788132000001,f,1,2.182552599999326,None,left,18,"[19, 20, 17, 18, 17, 18, 17, 19, 17, 20, 19, 20, 19, 20, 16, 17, 16, 17, 15, 16, 15, 16, 15, 17, 16, 18, 17, 18]",28,gaze_L_18.png,f,1,2,results25,001,2026-04-20_11h20.04.181,mogelijke versie adaptive staircase builder,,2026.1.3,60.02494636746445,2026-04-20 11h20.04.583667 +0200,
12.5,ecc0,mid,42,0,42,f,1,4.060608499999944,None,0,1,1,1,42,0,42,0,1171.2724777000003,,,,,,,,,,,,,,,1171.2618056000001,1171.2724777000003,1172.1788149000004,1171.2724777000003,1171.2724777000003,1175.3453243000004,f,1,4.060608499999944,None,right,17,"[19, 20, 17, 18, 17, 18, 17, 19, 17, 20, 19, 20, 19, 20, 16, 17, 16, 17, 15, 16, 15, 16, 15, 17, 16, 18, 17, 18]",28,gaze_R_17.png,f,1,2,results25,001,2026-04-20_11h20.04.181,mogelijke versie adaptive staircase builder,,2026.1.3,60.02494636746445,2026-04-20 11h20.04.583667 +0200,
12.5,ecc0,mid,43,0,43,f,0,2.3330744000004415,None,0,1,1,1,43,0,43,0,1175.439958,,,,,,,,,,,,,,,1175.4288167000004,1175.439958,1176.3450835000003,1175.439958,1175.439958,1177.7787835,f,0,2.3330744000004415,None,direct,16,"[19, 20, 17, 18, 17, 18, 17, 19, 17, 20, 19, 20, 19, 20, 16, 17, 16, 17, 15, 16, 15, 16, 15, 17, 16, 18, 17, 18, 16]",29,direct_gaze.png,f,0,2,results25,001,2026-04-20_11h20.04.181,mogelijke versie adaptive staircase builder,,2026.1.3,60.02494636746445,2026-04-20 11h20.04.583667 +0200,
12.5,ecc0,mid,44,0,44,j,0,1.9143066000006002,None,0,1,1,1,44,0,44,0,1177.8747402,,,,,,,,,,,,,,,1177.8649842000004,1177.8747402,1178.7782923000004,1177.8747402,1177.8747402,1179.7952433,j,0,1.9143066000006002,None,right,17,"[19, 20, 17, 18, 17, 18, 17, 19, 17, 20, 19, 20, 19, 20, 16, 17, 16, 17, 15, 16, 15, 16, 15, 17, 16, 18, 17, 18, 16]",29,gaze_R_17.png,j,0,2,results25,001,2026-04-20_11h20.04.181,mogelijke versie adaptive staircase builder,,2026.1.3,60.02494636746445,2026-04-20 11h20.04.583667 +0200,
12.5,ecc0,mid,45,0,45,j,0,2.1026810000003024,None,0,1,1,1,45,0,45,0,1179.8942722000002,,,,,,,,,,,,,,,1179.8818981000004,1179.8942722000002,1180.7949851000003,1179.8942722000002,1179.8942722000002,1182.0122582000004,j,0,2.1026810000003024,None,right,18,"[19, 20, 17, 18, 17, 18, 17, 19, 17, 20, 19, 20, 19, 20, 16, 17, 16, 17, 15, 16, 15, 16, 15, 17, 16, 18, 17, 18, 16]",29,gaze_R_18.png,j,0,2,results25,001,2026-04-20_11h20.04.181,mogelijke versie adaptive staircase builder,,2026.1.3,60.02494636746445,2026-04-20 11h20.04.583667 +0200,
12.5,ecc0,mid,46,0,46,j,0,2.1937014000004638,None,0,1,1,1,46,0,46,0,1182.1081831000001,,,,,,,,,,,,,,,1182.0983834999997,1182.1081831000001,1183.0115925,1182.1081831000001,1182.1081831000001,1184.3118838,j,0,2.1937014000004638,None,left,19,"[19, 20, 17, 18, 17, 18, 17, 19, 17, 20, 19, 20, 19, 20, 16, 17, 16, 17, 15, 16, 15, 16, 15, 17, 16, 18, 17, 18, 16]",29,gaze_L_19.png,j,0,2,results25,001,2026-04-20_11h20.04.181,mogelijke versie adaptive staircase builder,,2026.1.3,60.02494636746445,2026-04-20 11h20.04.583667 +0200,
12.5,ecc0,mid,47,0,47,j,0,1.9334497999998348,None,0,1,1,1,47,0,47,0,1184.4075733999998,,,,,,,,,,,,,,,1184.3973543000002,1184.4075733999998,1185.3115448999997,1184.4075733999998,1184.4075733999998,1186.3453614,j,0,1.9334497999998348,None,left,20,"[19, 20, 17, 18, 17, 18, 17, 19, 17, 20, 19, 20, 19, 20, 16, 17, 16, 17, 15, 16, 15, 16, 15, 17, 16, 18, 17, 18, 16]",29,gaze_L_20.png,j,0,2,results25,001,2026-04-20_11h20.04.181,mogelijke versie adaptive staircase builder,,2026.1.3,60.02494636746445,2026-04-20 11h20.04.583667 +0200,
12.5,ecc0,mid,48,0,48,j,1,1.8830224000003,None,0,1,1,1,48,0,48,0,1186.4420198999997,,,,,,,,,,,,,,,1186.4311563,1186.4420198999997,1187.344854,1186.4420198999997,1186.4420198999997,1188.3284832,j,1,1.8830224000003,None,direct,20,"[19, 20, 17, 18, 17, 18, 17, 19, 17, 20, 19, 20, 19, 20, 16, 17, 16, 17, 15, 16, 15, 16, 15, 17, 16, 18, 17, 18, 16, 20]",30,direct_gaze.png,j,1,2,results25,001,2026-04-20_11h20.04.181,mogelijke versie adaptive staircase builder,,2026.1.3,60.02494636746445,2026-04-20 11h20.04.583667 +0200,
12.5,ecc0,mid,49,0,49,j,0,2.926269499999762,None,0,1,1,1,49,0,49,0,1188.4228284,,,,,,,,,,,,,,,1188.4125653,1188.4228284,1189.3281291000003,1188.4228284,1188.4228284,1191.3618169000001,j,0,2.926269499999762,None,right,19,"[19, 20, 17, 18, 17, 18, 17, 19, 17, 20, 19, 20, 19, 20, 16, 17, 16, 17, 15, 16, 15, 16, 15, 17, 16, 18, 17, 18, 16, 20, 19]",31,gaze_R_19.png,j,0,2,results25,001,2026-04-20_11h20.04.181,mogelijke versie adaptive staircase builder,,2026.1.3,60.02494636746445,2026-04-20 11h20.04.583667 +0200,
12.5,ecc0,mid,50,0,50,f,1,2.092163100000107,None,0,1,1,1,50,0,50,0,1191.4568581000003,,,,,,,,,,,,,,,1191.4463660000001,1191.4568581000003,1192.3614047,1191.4568581000003,1191.4568581000003,1193.561885,f,1,2.092163100000107,None,right,20,"[19, 20, 17, 18, 17, 18, 17, 19, 17, 20, 19, 20, 19, 20, 16, 17, 16, 17, 15, 16, 15, 16, 15, 17, 16, 18, 17, 18, 16, 20, 19, 20]",32,gaze_R_20.png,f,1,2,results25,001,2026-04-20_11h20.04.181,mogelijke versie adaptive staircase builder,,2026.1.3,60.02494636746445,2026-04-20 11h20.04.583667 +0200,
12.5,ecc0,mid,51,0,51,f,1,2.2898494999999457,None,0,1,1,1,51,0,51,0,1193.6592363999998,,,,,,,,,,,,,,,1193.6482026000003,1193.6592363999998,1194.5613627000002,1193.6592363999998,1193.6592363999998,1195.9617066,f,1,2.2898494999999457,None,left,19,"[19, 20, 17, 18, 17, 18, 17, 19, 17, 20, 19, 20, 19, 20, 16, 17, 16, 17, 15, 16, 15, 16, 15, 17, 16, 18, 17, 18, 16, 20, 19, 20]",32,gaze_L_19.png,f,1,2,results25,001,2026-04-20_11h20.04.181,mogelijke versie adaptive staircase builder,,2026.1.3,60.02494636746445,2026-04-20 11h20.04.583667 +0200,
12.5,ecc0,mid,52,0,52,j,0,1.8627124000004187,None,0,1,1,1,52,0,52,0,1196.0543466999998,,,,,,,,,,,,,,,1196.0437149999998,1196.0543466999998,1196.9613037,1196.0543466999998,1196.0543466999998,1197.9284211000004,j,0,1.8627124000004187,None,right,18,"[19, 20, 17, 18, 17, 18, 17, 19, 17, 20, 19, 20, 19, 20, 16, 17, 16, 17, 15, 16, 15, 16, 15, 17, 16, 18, 17, 18, 16, 20, 19, 20, 18]",33,gaze_R_18.png,j,0,2,results25,001,2026-04-20_11h20.04.181,mogelijke versie adaptive staircase builder,,2026.1.3,60.02494636746445,2026-04-20 11h20.04.583667 +0200,
12.5,ecc0,mid,53,0,53,j,0,2.3096742999996422,None,0,1,1,1,53,0,53,0,1198.0233011999999,,,,,,,,,,,,,,,1198.0122743000002,1198.0233011999999,1198.9279288999996,1198.0233011999999,1198.0233011999999,1200.3449711000003,j,0,2.3096742999996422,None,right,19,"[19, 20, 17, 18, 17, 18, 17, 19, 17, 20, 19, 20, 19, 20, 16, 17, 16, 17, 15, 16, 15, 16, 15, 17, 16, 18, 17, 18, 16, 20, 19, 20, 18]",33,gaze_R_19.png,j,0,2,results25,001,2026-04-20_11h20.04.181,mogelijke versie adaptive staircase builder,,2026.1.3,60.02494636746445,2026-04-20 11h20.04.583667 +0200,
12.5,ecc0,mid,54,0,54,j,0,1.8990121999995608,None,0,1,1,1,54,0,54,0,1200.4420736000002,,,,,,,,,,,,,,,1200.4313696999998,1200.4420736000002,1201.3445868,1200.4420736000002,1200.4420736000002,1202.3449335000005,j,0,1.8990121999995608,None,left,20,"[19, 20, 17, 18, 17, 18, 17, 19, 17, 20, 19, 20, 19, 20, 16, 17, 16, 17, 15, 16, 15, 16, 15, 17, 16, 18, 17, 18, 16, 20, 19, 20, 18]",33,gaze_L_20.png,j,0,2,results25,001,2026-04-20_11h20.04.181,mogelijke versie adaptive staircase builder,,2026.1.3,60.02494636746445,2026-04-20 11h20.04.583667 +0200,
12.5,ecc0,mid,55,0,55,j,0,2.4683052000000316,None,0,1,1,1,55,0,55,0,1202.4407541,,,,,,,,,,,,,,,1202.4305856,1202.4407541,1203.3446263000005,1202.4407541,1202.4407541,1204.9116622000001,j,0,2.4683052000000316,None,left,20,"[19, 20, 17, 18, 17, 18, 17, 19, 17, 20, 19, 20, 19, 20, 16, 17, 16, 17, 15, 16, 15, 16, 15, 17, 16, 18, 17, 18, 16, 20, 19, 20, 18]",33,gaze_L_20.png,j,0,2,results25,001,2026-04-20_11h20.04.181,mogelijke versie adaptive staircase builder,,2026.1.3,60.02494636746445,2026-04-20 11h20.04.583667 +0200,
12.5,ecc0,mid,56,0,56,f,1,3.998910600000272,None,0,1,1,1,56,0,56,0,1205.0062439000003,,,,,,,,,,,,,,,1204.9954476000003,1205.0062439000003,1205.9112338000004,1205.0062439000003,1205.0062439000003,1209.0117165000001,f,1,3.998910600000272,None,right,20,"[19, 20, 17, 18, 17, 18, 17, 19, 17, 20, 19, 20, 19, 20, 16, 17, 16, 17, 15, 16, 15, 16, 15, 17, 16, 18, 17, 18, 16, 20, 19, 20, 18, 20]",34,gaze_R_20.png,f,1,2,results25,001,2026-04-20_11h20.04.181,mogelijke versie adaptive staircase builder,,2026.1.3,60.02494636746445,2026-04-20 11h20.04.583667 +0200,
12.5,ecc0,mid,57,0,57,j,0,1.8977781000003233,None,0,1,1,1,57,0,57,0,1209.1072824000003,,,,,,,,,,,,,,,1209.0968810000004,1209.1072824000003,1210.0111969,1209.1072824000003,1209.1072824000003,1211.0115126,j,0,1.8977781000003233,None,right,19,"[19, 20, 17, 18, 17, 18, 17, 19, 17, 20, 19, 20, 19, 20, 16, 17, 16, 17, 15, 16, 15, 16, 15, 17, 16, 18, 17, 18, 16, 20, 19, 20, 18, 20, 19]",35,gaze_R_19.png,j,0,2,results25,001,2026-04-20_11h20.04.181,mogelijke versie adaptive staircase builder,,2026.1.3,60.02494636746445,2026-04-20 11h20.04.583667 +0200,
12.5,ecc0,mid,58,0,58,f,1,2.3383880999999747,None,0,1,1,1,58,0,58,0,1211.1069195999999,,,,,,,,,,,,,,,1211.0963471000005,1211.1069195999999,1212.0111666000003,1211.1069195999999,1211.1069195999999,1213.4615743000004,f,1,2.3383880999999747,None,right,20,"[19, 20, 17, 18, 17, 18, 17, 19, 17, 20, 19, 20, 19, 20, 16, 17, 16, 17, 15, 16, 15, 16, 15, 17, 16, 18, 17, 18, 16, 20, 19, 20, 18, 20, 19, 20]",36,gaze_R_20.png,f,1,2,results25,001,2026-04-20_11h20.04.181,mogelijke versie adaptive staircase builder,,2026.1.3,60.02494636746445,2026-04-20 11h20.04.583667 +0200,
12.5,ecc0,mid,59,0,59,f,1,1.983999699999913,None,0,1,1,1,59,0,59,0,1213.5571625000002,,,,,,,,,,,,,,,1213.5455597,1213.5571625000002,1214.4610247,1213.5571625000002,1213.5571625000002,1215.5446345999999,f,1,1.983999699999913,None,right,19,"[19, 20, 17, 18, 17, 18, 17, 19, 17, 20, 19, 20, 19, 20, 16, 17, 16, 17, 15, 16, 15, 16, 15, 17, 16, 18, 17, 18, 16, 20, 19, 20, 18, 20, 19, 20]",36,gaze_R_19.png,f,1,2,results25,001,2026-04-20_11h20.04.181,mogelijke versie adaptive staircase builder,,2026.1.3,60.02494636746445,2026-04-20 11h20.04.583667 +0200,
12.5,ecc0,mid,1,1,0,,,,,0,1,1,1,,,,,,,,,,,,,,,,,,,,,,,,,,,,,,,,,,,,,,results25,001,2026-04-20_11h20.04.181,mogelijke versie adaptive staircase builder,,2026.1.3,60.02494636746445,2026-04-20 11h20.04.583667 +0200,
20.5,ecc10neg,right,0,0,0,j,0,1.4665743999994447,None,0,2,2,2,0,0,0,0,1215.6505476000002,,,,,,,,,,,,,1215.5473671,1215.5474040999998,1215.6397349999997,1215.6505476000002,1215.6505476000002,1216.5610637,1215.6505476000002,1217.1281583,j,0,1.4665743999994447,None,left,20,[],0,shiftedgaze_L_20.png,j,0,3,results25,001,2026-04-20_11h20.04.181,mogelijke versie adaptive staircase builder,,2026.1.3,60.02494636746445,2026-04-20 11h20.04.583667 +0200,
20.5,ecc10neg,right,1,0,1,j,1,3.7401270999998815,None,0,2,2,2,1,0,1,0,1217.2329719999998,,,,,,,,,,,,,,,1217.2213419999998,1217.2329719999998,1217.2329719999998,1218.1277663,1217.2329719999998,1220.9779976999998,j,1,3.7401270999998815,None,direct,20,[20],1,shifteddirectgaze.png,j,1,3,results25,001,2026-04-20_11h20.04.181,mogelijke versie adaptive staircase builder,,2026.1.3,60.02494636746445,2026-04-20 11h20.04.583667 +0200,
20.5,ecc10neg,right,2,0,2,j,0,1.9404968999997436,None,0,2,2,2,2,0,2,0,1221.0807065,,,,,,,,,,,,,,,1221.0702343000003,1221.0807065,1221.0807065,1221.9783537000003,1221.0807065,1223.0280279999997,j,0,1.9404968999997436,None,left,19,"[20, 19]",2,shiftedgaze_L_19.png,j,0,3,results25,001,2026-04-20_11h20.04.181,mogelijke versie adaptive staircase builder,,2026.1.3,60.02494636746445,2026-04-20 11h20.04.583667 +0200,
20.5,ecc10neg,right,3,0,3,f,1,1.5940095000005385,None,0,2,2,2,3,0,3,0,1223.1551824999997,,,,,,,,,,,,,,,1223.1432839999998,1223.1551824999997,1223.1551824999997,1224.0276284000001,1223.1551824999997,1224.7614269000005,f,1,1.5940095000005385,None,right,20,"[20, 19, 20]",3,shiftedgaze_R_20.png,f,1,3,results25,001,2026-04-20_11h20.04.181,mogelijke versie adaptive staircase builder,,2026.1.3,60.02494636746445,2026-04-20 11h20.04.583667 +0200,
20.5,ecc10neg,right,4,0,4,f,1,1.6553033000000141,None,0,2,2,2,4,0,4,0,1224.8698485000004,,,,,,,,,,,,,,,1224.8581974999997,1224.8698485000004,1224.8698485000004,1225.7608926000003,1224.8698485000004,1226.5280039999998,f,1,1.6553033000000141,None,right,19,"[20, 19, 20]",3,shiftedgaze_R_19.png,f,1,3,results25,001,2026-04-20_11h20.04.181,mogelijke versie adaptive staircase builder,,2026.1.3,60.02494636746445,2026-04-20 11h20.04.583667 +0200,
20.5,ecc10neg,right,5,0,5,f,1,2.3982089000000997,None,0,2,2,2,5,0,5,0,1226.6389641000005,,,,,,,,,,,,,,,1226.6278782,1226.6389641000005,1226.6389641000005,1227.5276198000001,1226.6389641000005,1229.0446130999999,f,1,2.3982089000000997,None,right,18,"[20, 19, 20]",3,shiftedgaze_R_18.png,f,1,3,results25,001,2026-04-20_11h20.04.181,mogelijke versie adaptive staircase builder,,2026.1.3,60.02494636746445,2026-04-20 11h20.04.583667 +0200,
20.5,ecc10neg,right,6,0,6,j,0,1.7392401999995855,None,0,2,2,2,6,0,6,0,1229.1539321,,,,,,,,,,,,,,,1229.1432457,1229.1539321,1229.1539321,1230.0444943000002,1229.1539321,1230.8945618999996,j,0,1.7392401999995855,None,right,17,"[20, 19, 20, 17]",4,shiftedgaze_R_17.png,j,0,3,results25,001,2026-04-20_11h20.04.181,mogelijke versie adaptive staircase builder,,2026.1.3,60.02494636746445,2026-04-20 11h20.04.583667 +0200,
20.5,ecc10neg,right,7,0,7,f,0,1.6755618000006507,None,0,2,2,2,7,0,7,0,1231.0095182000005,,,,,,,,,,,,,,,1230.9980259000004,1231.0095182000005,1231.0095182000005,1231.8941989000004,1231.0095182000005,1232.6945919999998,f,0,1.6755618000006507,None,direct,18,"[20, 19, 20, 17]",4,shifteddirectgaze.png,f,0,3,results25,001,2026-04-20_11h20.04.181,mogelijke versie adaptive staircase builder,,2026.1.3,60.02494636746445,2026-04-20 11h20.04.583667 +0200,
20.5,ecc10neg,right,8,0,8,j,0,1.4935690000002069,None,0,2,2,2,8,0,8,0,1232.8155339000004,,,,,,,,,,,,,,,1232.8039500000004,1232.8155339000004,1232.8155339000004,1233.6942635000005,1232.8155339000004,1234.3112487999997,j,0,1.4935690000002069,None,right,19,"[20, 19, 20, 17]",4,shiftedgaze_R_19.png,j,0,3,results25,001,2026-04-20_11h20.04.181,mogelijke versie adaptive staircase builder,,2026.1.3,60.02494636746445,2026-04-20 11h20.04.583667 +0200,
20.5,ecc10neg,right,9,0,9,j,1,1.7392770999995264,None,0,2,2,2,9,0,9,0,1234.4258958,,,,,,,,,,,,,,,1234.4143947000002,1234.4258958,1234.4258958,1235.3107864000003,1234.4258958,1236.1778018000005,j,1,1.7392770999995264,None,direct,20,"[20, 19, 20, 17, 20]",5,shifteddirectgaze.png,j,1,3,results25,001,2026-04-20_11h20.04.181,mogelijke versie adaptive staircase builder,,2026.1.3,60.02494636746445,2026-04-20 11h20.04.583667 +0200,
20.5,ecc10neg,right,10,0,10,j,0,1.650308600000244,None,0,2,2,2,10,0,10,0,1236.2988338000005,,,,,,,,,,,,,,,1236.2870917999999,1236.2988338000005,1236.2988338000005,1237.1773980999997,1236.2988338000005,1237.9614375,j,0,1.650308600000244,None,right,19,"[20, 19, 20, 17, 20, 19]",6,shiftedgaze_R_19.png,j,0,3,results25,001,2026-04-20_11h20.04.181,mogelijke versie adaptive staircase builder,,2026.1.3,60.02494636746445,2026-04-20 11h20.04.583667 +0200,
20.5,ecc10neg,right,11,0,11,f,0,1.793974100000014,None,0,2,2,2,11,0,11,0,1238.0751419999997,,,,,,,,,,,,,,,1238.0641064000001,1238.0751419999997,1238.0751419999997,1238.9612475000004,1238.0751419999997,1239.8778123000002,f,0,1.793974100000014,None,direct,20,"[20, 19, 20, 17, 20, 19]",6,shifteddirectgaze.png,f,0,3,results25,001,2026-04-20_11h20.04.181,mogelijke versie adaptive staircase builder,,2026.1.3,60.02494636746445,2026-04-20 11h20.04.583667 +0200,
20.5,ecc10neg,right,12,0,12,j,0,1.73485299999993,None,0,2,2,2,12,0,12,0,1239.9741721999999,,,,,,,,,,,,,,,1239.9629409999998,1239.9741721999999,1239.9741721999999,1240.8773301,1239.9741721999999,1241.7110564000004,j,0,1.73485299999993,None,left,20,"[20, 19, 20, 17, 20, 19]",6,shiftedgaze_L_20.png,j,0,3,results25,001,2026-04-20_11h20.04.181,mogelijke versie adaptive staircase builder,,2026.1.3,60.02494636746445,2026-04-20 11h20.04.583667 +0200,
20.5,ecc10neg,right,13,0,13,j,1,1.7593010999999024,None,0,2,2,2,13,0,13,0,1241.8057553999997,,,,,,,,,,,,,,,1241.7955819,1241.8057553999997,1241.8057553999997,1242.7107508999998,1241.8057553999997,1243.5777718,j,1,1.7593010999999024,None,direct,20,"[20, 19, 20, 17, 20, 19, 20]",7,shifteddirectgaze.png,j,1,3,results25,001,2026-04-20_11h20.04.181,mogelijke versie adaptive staircase builder,,2026.1.3,60.02494636746445,2026-04-20 11h20.04.583667 +0200,
20.5,ecc10neg,right,14,0,14,f,1,2.0971317000003182,None,0,2,2,2,14,0,14,0,1243.6998839999997,,,,,,,,,,,,,,,1243.6883789000003,1243.6998839999997,1243.6998839999997,1244.5773836999997,1243.6998839999997,1245.8111538000003,f,1,2.0971317000003182,None,right,19,"[20, 19, 20, 17, 20, 19, 20]",7,shiftedgaze_R_19.png,f,1,3,results25,001,2026-04-20_11h20.04.181,mogelijke versie adaptive staircase builder,,2026.1.3,60.02494636746445,2026-04-20 11h20.04.583667 +0200,
20.5,ecc10neg,right,15,0,15,j,1,1.4405816999997114,None,0,2,2,2,15,0,15,0,1245.9246679999997,,,,,,,,,,,,,,,1245.9132191999997,1245.9246679999997,1245.9246679999997,1246.8105416999997,1245.9246679999997,1247.3775353,j,1,1.4405816999997114,None,direct,18,"[20, 19, 20, 17, 20, 19, 20]",7,shifteddirectgaze.png,j,1,3,results25,001,2026-04-20_11h20.04.181,mogelijke versie adaptive staircase builder,,2026.1.3,60.02494636746445,2026-04-20 11h20.04.583667 +0200,
20.5,ecc10neg,right,16,0,16,j,0,1.5427220999999918,None,0,2,2,2,16,0,16,0,1247.5023615,,,,,,,,,,,,,,,1247.4908809999997,1247.5023615,1247.5023615,1248.3772473,1247.5023615,1249.0608067000003,j,0,1.5427220999999918,None,right,17,"[20, 19, 20, 17, 20, 19, 20, 17]",8,shiftedgaze_R_17.png,j,0,3,results25,001,2026-04-20_11h20.04.181,mogelijke versie adaptive staircase builder,,2026.1.3,60.02494636746445,2026-04-20 11h20.04.583667 +0200,
20.5,ecc10neg,right,17,0,17,j,0,1.4213737000000037,None,0,2,2,2,17,0,17,0,1249.1836801,,,,,,,,,,,,,,,1249.1720587,1249.1836801,1249.1836801,1250.0604242999998,1249.1836801,1250.6108518,j,0,1.4213737000000037,None,left,18,"[20, 19, 20, 17, 20, 19, 20, 17]",8,shiftedgaze_L_18.png,j,0,3,results25,001,2026-04-20_11h20.04.181,mogelijke versie adaptive staircase builder,,2026.1.3,60.02494636746445,2026-04-20 11h20.04.583667 +0200,
20.5,ecc10neg,right,18,0,18,j,1,1.5698038000000452,None,0,2,2,2,18,0,18,0,1250.7073240999998,,,,,,,,,,,,,,,1250.6970616999997,1250.7073240999998,1250.7073240999998,1251.6105712999997,1250.7073240999998,1252.2777305,j,1,1.5698038000000452,None,direct,19,"[20, 19, 20, 17, 20, 19, 20, 17, 19]",9,shifteddirectgaze.png,j,1,3,results25,001,2026-04-20_11h20.04.181,mogelijke versie adaptive staircase builder,,2026.1.3,60.02494636746445,2026-04-20 11h20.04.583667 +0200,
20.5,ecc10neg,right,19,0,19,j,0,1.749152999999751,None,0,2,2,2,19,0,19,0,1252.3999553000003,,,,,,,,,,,,,,,1252.3882174,1252.3999553000003,1252.3999553000003,1253.2770479,1252.3999553000003,1254.1605877000002,j,0,1.749152999999751,None,right,18,"[20, 19, 20, 17, 20, 19, 20, 17, 19, 18]",10,shiftedgaze_R_18.png,j,0,3,results25,001,2026-04-20_11h20.04.181,mogelijke versie adaptive staircase builder,,2026.1.3,60.02494636746445,2026-04-20 11h20.04.583667 +0200,
20.5,ecc10neg,right,20,0,20,j,0,2.1010292999999365,None,0,2,2,2,20,0,20,0,1254.2800512000003,,,,,,,,,,,,,,,1254.2685312000003,1254.2800512000003,1254.2800512000003,1255.16043,1254.2800512000003,1256.3940407,j,0,2.1010292999999365,None,left,19,"[20, 19, 20, 17, 20, 19, 20, 17, 19, 18]",10,shiftedgaze_L_19.png,j,0,3,results25,001,2026-04-20_11h20.04.181,mogelijke versie adaptive staircase builder,,2026.1.3,60.02494636746445,2026-04-20 11h20.04.583667 +0200,
20.5,ecc10neg,right,21,0,21,f,1,1.7342221999997491,None,0,2,2,2,21,0,21,0,1256.518822,,,,,,,,,,,,,,,1256.5065378999998,1256.518822,1256.518822,1257.3938491999997,1256.518822,1258.2606590000005,f,1,1.7342221999997491,None,right,20,"[20, 19, 20, 17, 20, 19, 20, 17, 19, 18, 20]",11,shiftedgaze_R_20.png,f,1,3,results25,001,2026-04-20_11h20.04.181,mogelijke versie adaptive staircase builder,,2026.1.3,60.02494636746445,2026-04-20 11h20.04.583667 +0200,
20.5,ecc10neg,right,22,0,22,j,0,2.1542810999999347,None,0,2,2,2,22,0,22,0,1258.3868014999998,,,,,,,,,,,,,,,1258.3735902999997,1258.3868014999998,1258.3868014999998,1259.2605832,1258.3868014999998,1260.5440171,j,0,2.1542810999999347,None,left,19,"[20, 19, 20, 17, 20, 19, 20, 17, 19, 18, 20, 19]",12,shiftedgaze_L_19.png,j,0,3,results25,001,2026-04-20_11h20.04.181,mogelijke versie adaptive staircase builder,,2026.1.3,60.02494636746445,2026-04-20 11h20.04.583667 +0200,
20.5,ecc10neg,right,23,0,23,f,1,2.0968808999996327,None,0,2,2,2,23,0,23,0,1260.6522100000002,,,,,,,,,,,,,,,1260.6391497000004,1260.6522100000002,1260.6522100000002,1261.5437892,1260.6522100000002,1262.7606942000002,f,1,2.0968808999996327,None,left,20,"[20, 19, 20, 17, 20, 19, 20, 17, 19, 18, 20, 19, 20]",13,shiftedgaze_L_20.png,f,1,3,results25,001,2026-04-20_11h20.04.181,mogelijke versie adaptive staircase builder,,2026.1.3,60.02494636746445,2026-04-20 11h20.04.583667 +0200,
20.5,ecc10neg,right,24,0,24,j,0,3.040547699999479,None,0,2,2,2,24,0,24,0,1262.8684875999998,,,,,,,,,,,,,,,1262.8567972,1262.8684875999998,1262.8684875999998,1263.7604509000003,1262.8684875999998,1265.9106413999998,j,0,3.040547699999479,None,left,19,"[20, 19, 20, 17, 20, 19, 20, 17, 19, 18, 20, 19, 20, 19]",14,shiftedgaze_L_19.png,j,0,3,results25,001,2026-04-20_11h20.04.181,mogelijke versie adaptive staircase builder,,2026.1.3,60.02494636746445,2026-04-20 11h20.04.583667 +0200,
20.5,ecc10neg,right,25,0,25,j,0,4.178887699999905,None,0,2,2,2,25,0,25,0,1266.0501675000005,,,,,,,,,,,,,,,1266.0369265,1266.0501675000005,1266.0501675000005,1266.9103464,1266.0501675000005,1270.2438321,j,0,4.178887699999905,None,right,20,"[20, 19, 20, 17, 20, 19, 20, 17, 19, 18, 20, 19, 20, 19]",14,shiftedgaze_R_20.png,j,0,3,results25,001,2026-04-20_11h20.04.181,mogelijke versie adaptive staircase builder,,2026.1.3,60.02494636746445,2026-04-20 11h20.04.583667 +0200,
20.5,ecc10neg,right,26,0,26,f,0,2.1311516000005213,None,0,2,2,2,26,0,26,0,1270.3619632,,,,,,,,,,,,,,,1270.3512757999997,1270.3619632,1270.3619632,1271.2435565000005,1270.3619632,1272.4939449000003,f,0,2.1311516000005213,None,direct,20,"[20, 19, 20, 17, 20, 19, 20, 17, 19, 18, 20, 19, 20, 19]",14,shifteddirectgaze.png,f,0,3,results25,001,2026-04-20_11h20.04.181,mogelijke versie adaptive staircase builder,,2026.1.3,60.02494636746445,2026-04-20 11h20.04.583667 +0200,
20.5,ecc10neg,right,27,0,27,j,0,1.5613202999993518,None,0,2,2,2,27,0,27,0,1272.6197294000003,,,,,,,,,,,,,,,1272.6084816000002,1272.6197294000003,1272.6197294000003,1273.4935698999998,1272.6197294000003,1274.1937470000003,j,0,1.5613202999993518,None,right,20,"[20, 19, 20, 17, 20, 19, 20, 17, 19, 18, 20, 19, 20, 19]",14,shiftedgaze_R_20.png,j,0,3,results25,001,2026-04-20_11h20.04.181,mogelijke versie adaptive staircase builder,,2026.1.3,60.02494636746445,2026-04-20 11h20.04.583667 +0200,
20.5,ecc10neg,right,28,0,28,j,0,1.8473967999998422,None,0,2,2,2,28,0,28,0,1274.3096646000004,,,,,,,,,,,,,,,1274.2985324,1274.3096646000004,1274.3096646000004,1275.1935077999997,1274.3096646000004,1276.1604312999998,j,0,1.8473967999998422,None,left,20,"[20, 19, 20, 17, 20, 19, 20, 17, 19, 18, 20, 19, 20, 19]",14,shiftedgaze_L_20.png,j,0,3,results25,001,2026-04-20_11h20.04.181,mogelijke versie adaptive staircase builder,,2026.1.3,60.02494636746445,2026-04-20 11h20.04.583667 +0200,
20.5,ecc10neg,right,29,0,29,f,0,1.60357010000007,None,0,2,2,2,29,0,29,0,1276.2575697000002,,,,,,,,,,,,,,,1276.2471618,1276.2575697000002,1276.2575697000002,1277.1601570000003,1276.2575697000002,1277.8616502000004,f,0,1.60357010000007,None,direct,20,"[20, 19, 20, 17, 20, 19, 20, 17, 19, 18, 20, 19, 20, 19]",14,shifteddirectgaze.png,f,0,3,results25,001,2026-04-20_11h20.04.181,mogelijke versie adaptive staircase builder,,2026.1.3,60.02494636746445,2026-04-20 11h20.04.583667 +0200,
20.5,ecc10neg,right,30,0,30,j,1,1.9497047000004386,None,0,2,2,2,30,0,30,0,1277.9754221000003,,,,,,,,,,,,,,,1277.9606529000002,1277.9754221000003,1277.9754221000003,1278.8768243000004,1277.9754221000003,1279.9272784000004,j,1,1.9497047000004386,None,direct,20,"[20, 19, 20, 17, 20, 19, 20, 17, 19, 18, 20, 19, 20, 19, 20]",15,shifteddirectgaze.png,j,1,3,results25,001,2026-04-20_11h20.04.181,mogelijke versie adaptive staircase builder,,2026.1.3,60.02494636746445,2026-04-20 11h20.04.583667 +0200,
20.5,ecc10neg,right,31,0,31,f,1,1.7440344000006007,None,0,2,2,2,31,0,31,0,1280.0529818000005,,,,,,,,,,,,,,,1280.0419584,1280.0529818000005,1280.0529818000005,1280.9268683999999,1280.0529818000005,1281.8103228999998,f,1,1.7440344000006007,None,right,19,"[20, 19, 20, 17, 20, 19, 20, 17, 19, 18, 20, 19, 20, 19, 20]",15,shiftedgaze_R_19.png,f,1,3,results25,001,2026-04-20_11h20.04.181,mogelijke versie adaptive staircase builder,,2026.1.3,60.02494636746445,2026-04-20 11h20.04.583667 +0200,
20.5,ecc10neg,right,32,0,32,f,1,2.0028818999999203,None,0,2,2,2,32,0,32,0,1281.9150134000001,,,,,,,,,,,,,,,1281.9041119000003,1281.9150134000001,1281.9150134000001,1282.8100525999998,1281.9150134000001,1283.9269171000005,f,1,2.0028818999999203,None,right,18,"[20, 19, 20, 17, 20, 19, 20, 17, 19, 18, 20, 19, 20, 19, 20]",15,shiftedgaze_R_18.png,f,1,3,results25,001,2026-04-20_11h20.04.181,mogelijke versie adaptive staircase builder,,2026.1.3,60.02494636746445,2026-04-20 11h20.04.583667 +0200,
20.5,ecc10neg,right,33,0,33,j,0,1.5451704999995854,None,0,2,2,2,33,0,33,0,1284.0518545000004,,,,,,,,,,,,,,,1284.0403207,1284.0518545000004,1284.0518545000004,1284.9267424999998,1284.0518545000004,1285.6102886999997,j,0,1.5451704999995854,None,left,17,"[20, 19, 20, 17, 20, 19, 20, 17, 19, 18, 20, 19, 20, 19, 20, 17]",16,shiftedgaze_L_17.png,j,0,3,results25,001,2026-04-20_11h20.04.181,mogelijke versie adaptive staircase builder,,2026.1.3,60.02494636746445,2026-04-20 11h20.04.583667 +0200,
20.5,ecc10neg,right,34,0,34,j,1,5.913195199999791,None,0,2,2,2,34,0,34,0,1285.7079458999997,,,,,,,,,,,,,,,1285.6974424,1285.7079458999997,1285.7079458999997,1286.6100483999999,1285.7079458999997,1291.6268934999998,j,1,5.913195199999791,None,direct,18,"[20, 19, 20, 17, 20, 19, 20, 17, 19, 18, 20, 19, 20, 19, 20, 17, 18]",17,shifteddirectgaze.png,j,1,3,results25,001,2026-04-20_11h20.04.181,mogelijke versie adaptive staircase builder,,2026.1.3,60.02494636746445,2026-04-20 11h20.04.583667 +0200,
20.5,ecc10neg,right,35,0,35,j,1,1.8635315999999875,None,0,2,2,2,35,0,35,0,1291.7256427000002,,,,,,,,,,,,,,,1291.7146000000002,1291.7256427000002,1291.7256427000002,1292.6266093000004,1291.7256427000002,1293.5936848000001,j,1,1.8635315999999875,None,direct,17,"[20, 19, 20, 17, 20, 19, 20, 17, 19, 18, 20, 19, 20, 19, 20, 17, 18]",17,shifteddirectgaze.png,j,1,3,results25,001,2026-04-20_11h20.04.181,mogelijke versie adaptive staircase builder,,2026.1.3,60.02494636746445,2026-04-20 11h20.04.583667 +0200,
20.5,ecc10neg,right,36,0,36,f,1,1.7567486999996618,None,0,2,2,2,36,0,36,0,1293.7043184000004,,,,,,,,,,,,,,,1293.6936566000004,1293.7043184000004,1293.7043184000004,1294.5932824000001,1293.7043184000004,1295.4768300000005,f,1,1.7567486999996618,None,left,16,"[20, 19, 20, 17, 20, 19, 20, 17, 19, 18, 20, 19, 20, 19, 20, 17, 18]",17,shiftedgaze_L_16.png,f,1,3,results25,001,2026-04-20_11h20.04.181,mogelijke versie adaptive staircase builder,,2026.1.3,60.02494636746445,2026-04-20 11h20.04.583667 +0200,
20.5,ecc10neg,right,37,0,37,j,1,2.2923172000000704,None,0,2,2,2,37,0,37,0,1295.5768079999998,,,,,,,,,,,,,,,1295.5665626,1295.5768079999998,1295.5768079999998,1296.4765618000001,1295.5768079999998,1297.876698,j,1,2.2923172000000704,None,direct,15,"[20, 19, 20, 17, 20, 19, 20, 17, 19, 18, 20, 19, 20, 19, 20, 17, 18]",17,shifteddirectgaze.png,j,1,3,results25,001,2026-04-20_11h20.04.181,mogelijke versie adaptive staircase builder,,2026.1.3,60.02494636746445,2026-04-20 11h20.04.583667 +0200,
20.5,ecc10neg,right,38,0,38,f,0,2.3585125999998127,None,0,2,2,2,38,0,38,0,1297.9759799000003,,,,,,,,,,,,,,,1297.9647430000005,1297.9759799000003,1297.9759799000003,1298.8764318000003,1297.9759799000003,1300.3434841999997,f,0,2.3585125999998127,None,direct,14,"[20, 19, 20, 17, 20, 19, 20, 17, 19, 18, 20, 19, 20, 19, 20, 17, 18, 14]",18,shifteddirectgaze.png,f,0,3,results25,001,2026-04-20_11h20.04.181,mogelijke versie adaptive staircase builder,,2026.1.3,60.02494636746445,2026-04-20 11h20.04.583667 +0200,
20.5,ecc10neg,right,39,0,39,j,1,2.9066754999994373,None,0,2,2,2,39,0,39,0,1300.4424144000004,,,,,,,,,,,,,,,1300.4322510000002,1300.4424144000004,1300.4424144000004,1301.3432068000002,1300.4424144000004,1303.3599781000003,j,1,2.9066754999994373,None,direct,15,"[20, 19, 20, 17, 20, 19, 20, 17, 19, 18, 20, 19, 20, 19, 20, 17, 18, 14, 15]",19,shifteddirectgaze.png,j,1,3,results25,001,2026-04-20_11h20.04.181,mogelijke versie adaptive staircase builder,,2026.1.3,60.02494636746445,2026-04-20 11h20.04.583667 +0200,
20.5,ecc10neg,right,40,0,40,j,0,3.2092465000005177,None,0,2,2,2,40,0,40,0,1303.4680157000003,,,,,,,,,,,,,,,1303.4572813000004,1303.4680157000003,1303.4680157000003,1304.3598596000002,1303.4680157000003,1306.6935996000002,j,0,3.2092465000005177,None,right,14,"[20, 19, 20, 17, 20, 19, 20, 17, 19, 18, 20, 19, 20, 19, 20, 17, 18, 14, 15, 14]",20,shiftedgaze_R_14.png,j,0,3,results25,001,2026-04-20_11h20.04.181,mogelijke versie adaptive staircase builder,,2026.1.3,60.02494636746445,2026-04-20 11h20.04.583667 +0200,
20.5,ecc10neg,right,41,0,41,j,0,3.9054111000004923,None,0,2,2,2,41,0,41,0,1307.2622295,,,,,,,,,,,,,,,1307.2515676000003,1307.2622295,1307.2622295,1307.6932205000003,1307.2622295,1311.1766287,j,0,3.9054111000004923,None,right,15,"[20, 19, 20, 17, 20, 19, 20, 17, 19, 18, 20, 19, 20, 19, 20, 17, 18, 14, 15, 14]",20,shiftedgaze_R_15.png,j,0,3,results25,001,2026-04-20_11h20.04.181,mogelijke versie adaptive staircase builder,,2026.1.3,60.02494636746445,2026-04-20 11h20.04.583667 +0200,
20.5,ecc10neg,right,42,0,42,j,0,1.9855081000005157,None,0,2,2,2,42,0,42,0,1311.2755695000005,,,,,,,,,,,,,,,1311.2646111000004,1311.2755695000005,1311.2755695000005,1312.1763554,1311.2755695000005,1313.2765345999996,j,0,1.9855081000005157,None,left,16,"[20, 19, 20, 17, 20, 19, 20, 17, 19, 18, 20, 19, 20, 19, 20, 17, 18, 14, 15, 14]",20,shiftedgaze_L_16.png,j,0,3,results25,001,2026-04-20_11h20.04.181,mogelijke versie adaptive staircase builder,,2026.1.3,60.02494636746445,2026-04-20 11h20.04.583667 +0200,
20.5,ecc10neg,right,43,0,43,f,1,1.652727299999242,None,0,2,2,2,43,0,43,0,1313.3763217000005,,,,,,,,,,,,,,,1313.3654610000003,1313.3763217000005,1313.3763217000005,1314.2763212999998,1313.3763217000005,1315.0432913000004,f,1,1.652727299999242,None,left,17,"[20, 19, 20, 17, 20, 19, 20, 17, 19, 18, 20, 19, 20, 19, 20, 17, 18, 14, 15, 14, 17]",21,shiftedgaze_L_17.png,f,1,3,results25,001,2026-04-20_11h20.04.181,mogelijke versie adaptive staircase builder,,2026.1.3,60.02494636746445,2026-04-20 11h20.04.583667 +0200,
20.5,ecc10neg,right,44,0,44,j,0,2.1171426000000793,None,0,2,2,2,44,0,44,0,1315.1759393000002,,,,,,,,,,,,,,,1315.1640543000003,1315.1759393000002,1315.1759393000002,1316.0429160000003,1315.1759393000002,1317.2933844999998,j,0,2.1171426000000793,None,right,16,"[20, 19, 20, 17, 20, 19, 20, 17, 19, 18, 20, 19, 20, 19, 20, 17, 18, 14, 15, 14, 17, 16]",22,shiftedgaze_R_16.png,j,0,3,results25,001,2026-04-20_11h20.04.181,mogelijke versie adaptive staircase builder,,2026.1.3,60.02494636746445,2026-04-20 11h20.04.583667 +0200,
20.5,ecc10neg,right,45,0,45,j,0,1.8372338999997737,None,0,2,2,2,45,0,45,0,1317.3998376,,,,,,,,,,,,,,,1317.3889893000005,1317.3998376,1317.3998376,1318.2929615000003,1317.3998376,1319.2432125000005,j,0,1.8372338999997737,None,right,17,"[20, 19, 20, 17, 20, 19, 20, 17, 19, 18, 20, 19, 20, 19, 20, 17, 18, 14, 15, 14, 17, 16]",22,shiftedgaze_R_17.png,j,0,3,results25,001,2026-04-20_11h20.04.181,mogelijke versie adaptive staircase builder,,2026.1.3,60.02494636746445,2026-04-20 11h20.04.583667 +0200,
20.5,ecc10neg,right,46,0,46,j,0,1.8585290000000896,None,0,2,2,2,46,0,46,0,1319.3626679,,,,,,,,,,,,,,,1319.3514802,1319.3626679,1319.3626679,1320.2428769999997,1319.3626679,1321.2264530000002,j,0,1.8585290000000896,None,left,18,"[20, 19, 20, 17, 20, 19, 20, 17, 19, 18, 20, 19, 20, 19, 20, 17, 18, 14, 15, 14, 17, 16]",22,shiftedgaze_L_18.png,j,0,3,results25,001,2026-04-20_11h20.04.181,mogelijke versie adaptive staircase builder,,2026.1.3,60.02494636746445,2026-04-20 11h20.04.583667 +0200,
20.5,ecc10neg,right,47,0,47,f,1,1.767358900000545,None,0,2,2,2,47,0,47,0,1321.3257984000002,,,,,,,,,,,,,,,1321.3153029000005,1321.3257984000002,1321.3257984000002,1322.2262386000002,1321.3257984000002,1323.1097763999996,f,1,1.767358900000545,None,left,19,"[20, 19, 20, 17, 20, 19, 20, 17, 19, 18, 20, 19, 20, 19, 20, 17, 18, 14, 15, 14, 17, 16, 19]",23,shiftedgaze_L_19.png,f,1,3,results25,001,2026-04-20_11h20.04.181,mogelijke versie adaptive staircase builder,,2026.1.3,60.02494636746445,2026-04-20 11h20.04.583667 +0200,
20.5,ecc10neg,right,48,0,48,j,0,1.9635158000000956,None,0,2,2,2,48,0,48,0,1323.2335639000003,,,,,,,,,,,,,,,1323.2220416999999,1323.2335639000003,1323.2335639000003,1324.1095181,1323.2335639000003,1325.2097333000002,j,0,1.9635158000000956,None,right,18,"[20, 19, 20, 17, 20, 19, 20, 17, 19, 18, 20, 19, 20, 19, 20, 17, 18, 14, 15, 14, 17, 16, 19, 18]",24,shiftedgaze_R_18.png,j,0,3,results25,001,2026-04-20_11h20.04.181,mogelijke versie adaptive staircase builder,,2026.1.3,60.02494636746445,2026-04-20 11h20.04.583667 +0200,
20.5,ecc10neg,right,49,0,49,j,1,3.1835031000000527,None,0,2,2,2,49,0,49,0,1325.3345442,,,,,,,,,,,,,,,1325.3230322,1325.3345442,1325.3345442,1326.2094970999997,1325.3345442,1328.5263759,j,1,3.1835031000000527,None,direct,19,"[20, 19, 20, 17, 20, 19, 20, 17, 19, 18, 20, 19, 20, 19, 20, 17, 18, 14, 15, 14, 17, 16, 19, 18, 19]",25,shifteddirectgaze.png,j,1,3,results25,001,2026-04-20_11h20.04.181,mogelijke versie adaptive staircase builder,,2026.1.3,60.02494636746445,2026-04-20 11h20.04.583667 +0200,
20.5,ecc10neg,right,50,0,50,j,0,1.6832454000004873,None,0,2,2,2,50,0,50,0,1328.6511372000004,,,,,,,,,,,,,,,1328.6393765000003,1328.6511372000004,1328.6511372000004,1329.5260881000004,1328.6511372000004,1330.3429764000002,j,0,1.6832454000004873,None,right,18,"[20, 19, 20, 17, 20, 19, 20, 17, 19, 18, 20, 19, 20, 19, 20, 17, 18, 14, 15, 14, 17, 16, 19, 18, 19, 18]",26,shiftedgaze_R_18.png,j,0,3,results25,001,2026-04-20_11h20.04.181,mogelijke versie adaptive staircase builder,,2026.1.3,60.02494636746445,2026-04-20 11h20.04.583667 +0200,
20.5,ecc10neg,right,51,0,51,j,0,2.11672069999986,None,0,2,2,2,51,0,51,0,1330.4487535999997,,,,,,,,,,,,,,,1330.4376281000004,1330.4487535999997,1330.4487535999997,1331.3427367000004,1330.4487535999997,1332.5762794000002,j,0,2.11672069999986,None,right,19,"[20, 19, 20, 17, 20, 19, 20, 17, 19, 18, 20, 19, 20, 19, 20, 17, 18, 14, 15, 14, 17, 16, 19, 18, 19, 18]",26,shiftedgaze_R_19.png,j,0,3,results25,001,2026-04-20_11h20.04.181,mogelijke versie adaptive staircase builder,,2026.1.3,60.02494636746445,2026-04-20 11h20.04.583667 +0200,
20.5,ecc10neg,right,52,0,52,f,1,1.8547355000000607,None,0,2,2,2,52,0,52,0,1332.6798913000002,,,,,,,,,,,,,,,1332.6687075999998,1332.6798913000002,1332.6798913000002,1333.5760437999998,1332.6798913000002,1334.5430704999999,f,1,1.8547355000000607,None,right,20,"[20, 19, 20, 17, 20, 19, 20, 17, 19, 18, 20, 19, 20, 19, 20, 17, 18, 14, 15, 14, 17, 16, 19, 18, 19, 18, 20]",27,shiftedgaze_R_20.png,f,1,3,results25,001,2026-04-20_11h20.04.181,mogelijke versie adaptive staircase builder,,2026.1.3,60.02494636746445,2026-04-20 11h20.04.583667 +0200,
20.5,ecc10neg,right,53,0,53,j,0,1.7685641999996733,None,0,2,2,2,53,0,53,0,1334.6606683999998,,,,,,,,,,,,,,,1334.6496340000003,1334.6606683999998,1334.6606683999998,1335.5426893000003,1334.6606683999998,1336.4428686,j,0,1.7685641999996733,None,left,19,"[20, 19, 20, 17, 20, 19, 20, 17, 19, 18, 20, 19, 20, 19, 20, 17, 18, 14, 15, 14, 17, 16, 19, 18, 19, 18, 20, 19]",28,shiftedgaze_L_19.png,j,0,3,results25,001,2026-04-20_11h20.04.181,mogelijke versie adaptive staircase builder,,2026.1.3,60.02494636746445,2026-04-20 11h20.04.583667 +0200,
20.5,ecc10neg,right,54,0,54,f,1,1.8141416000007666,None,0,2,2,2,54,0,54,0,1336.5670185,,,,,,,,,,,,,,,1336.5555476999998,1336.5670185,1336.5670185,1337.4426523000002,1336.5670185,1338.3928354,f,1,1.8141416000007666,None,right,20,"[20, 19, 20, 17, 20, 19, 20, 17, 19, 18, 20, 19, 20, 19, 20, 17, 18, 14, 15, 14, 17, 16, 19, 18, 19, 18, 20, 19, 20]",29,shiftedgaze_R_20.png,f,1,3,results25,001,2026-04-20_11h20.04.181,mogelijke versie adaptive staircase builder,,2026.1.3,60.02494636746445,2026-04-20 11h20.04.583667 +0200,
20.5,ecc10neg,right,55,0,55,j,0,1.5340962000000218,None,0,2,2,2,55,0,55,0,1338.5111398999998,,,,,,,,,,,,,,,1338.4999396000003,1338.5111398999998,1338.5111398999998,1339.3926063999997,1338.5111398999998,1340.0596969999997,j,0,1.5340962000000218,None,left,19,"[20, 19, 20, 17, 20, 19, 20, 17, 19, 18, 20, 19, 20, 19, 20, 17, 18, 14, 15, 14, 17, 16, 19, 18, 19, 18, 20, 19, 20, 19]",30,shiftedgaze_L_19.png,j,0,3,results25,001,2026-04-20_11h20.04.181,mogelijke versie adaptive staircase builder,,2026.1.3,60.02494636746445,2026-04-20 11h20.04.583667 +0200,
20.5,ecc10neg,right,56,0,56,j,1,1.6379031000005853,None,0,2,2,2,56,0,56,0,1340.1593324000005,,,,,,,,,,,,,,,1340.1491547000005,1340.1593324000005,1340.1593324000005,1341.0593380999999,1340.1593324000005,1341.8095345000002,j,1,1.6379031000005853,None,direct,20,"[20, 19, 20, 17, 20, 19, 20, 17, 19, 18, 20, 19, 20, 19, 20, 17, 18, 14, 15, 14, 17, 16, 19, 18, 19, 18, 20, 19, 20, 19, 20]",31,shifteddirectgaze.png,j,1,3,results25,001,2026-04-20_11h20.04.181,mogelijke versie adaptive staircase builder,,2026.1.3,60.02494636746445,2026-04-20 11h20.04.583667 +0200,
20.5,ecc10neg,right,57,0,57,f,1,1.552459400000771,None,0,2,2,2,57,0,57,0,1341.9087725,,,,,,,,,,,,,,,1341.8981188999996,1341.9087725,1341.9087725,1342.8092500000002,1341.9087725,1343.4761165999998,f,1,1.552459400000771,None,left,19,"[20, 19, 20, 17, 20, 19, 20, 17, 19, 18, 20, 19, 20, 19, 20, 17, 18, 14, 15, 14, 17, 16, 19, 18, 19, 18, 20, 19, 20, 19, 20]",31,shiftedgaze_L_19.png,f,1,3,results25,001,2026-04-20_11h20.04.181,mogelijke versie adaptive staircase builder,,2026.1.3,60.02494636746445,2026-04-20 11h20.04.583667 +0200,
20.5,ecc10neg,right,58,0,58,j,0,1.6045788000001266,None,0,2,2,2,58,0,58,0,1343.6006733000004,,,,,,,,,,,,,,,1343.5892445999998,1343.6006733000004,1343.6006733000004,1344.4758515000003,1343.6006733000004,1345.2094249000002,j,0,1.6045788000001266,None,right,18,"[20, 19, 20, 17, 20, 19, 20, 17, 19, 18, 20, 19, 20, 19, 20, 17, 18, 14, 15, 14, 17, 16, 19, 18, 19, 18, 20, 19, 20, 19, 20, 18]",32,shiftedgaze_R_18.png,j,0,3,results25,001,2026-04-20_11h20.04.181,mogelijke versie adaptive staircase builder,,2026.1.3,60.02494636746445,2026-04-20 11h20.04.583667 +0200,
20.5,ecc10neg,right,59,0,59,j,0,1.8580495999995037,None,0,2,2,2,59,0,59,0,1345.3232101000003,,,,,,,,,,,,,,,1345.3122130000002,1345.3232101000003,1345.3232101000003,1346.2091779000002,1345.3232101000003,1347.1927059999998,j,0,1.8580495999995037,None,right,19,"[20, 19, 20, 17, 20, 19, 20, 17, 19, 18, 20, 19, 20, 19, 20, 17, 18, 14, 15, 14, 17, 16, 19, 18, 19, 18, 20, 19, 20, 19, 20, 18]",32,shiftedgaze_R_19.png,j,0,3,results25,001,2026-04-20_11h20.04.181,mogelijke versie adaptive staircase builder,,2026.1.3,60.02494636746445,2026-04-20 11h20.04.583667 +0200,
20.5,ecc10neg,right,2,2,0,,,,,0,2,2,2,,,,,,,,,,,,,,,,,,,,,,,,,,,,,,,,,,,,,,results25,001,2026-04-20_11h20.04.181,mogelijke versie adaptive staircase builder,,2026.1.3,60.02494636746445,2026-04-20 11h20.04.583667 +0200,
