xPos,stimulusSet,whichImage,thisN,thisTrialN,thisRepN,key_resp.keys,key_resp.corr,key_resp.rt,key_resp.duration,blocks.thisRepN,blocks.thisTrialN,blocks.thisN,blocks.thisIndex,trials.thisRepN,trials.thisTrialN,trials.thisN,trials.thisIndex,thisRow.t,notes,piloting,intro.started,introinstructions.started,intro_key.started,demo_image_left.started,demo_image_middle.started,demo_image_right.started,intro.stopped,intro_key.keys,intro_key.rt,intro_key.duration,block_start.started,block_start.stopped,trial.started,key_resp.started,middle_image.started,right_image.started,left_image.started,trial.stopped,trials.key_resp.keys,trials.key_resp.corr,trials.key_resp.rt,trials.key_resp.duration,direction,angle,reversal_intensities,number_reversals,stimulus,response,correct,blockNumber,participant,session,date,expName,expVersion,psychopyVersion,frameRate,expStart,
,,,,,,,,,,,,,,,,,,,,False,0.05180909999762662,0.06354970000029425,0.06354970000029425,0.06354970000029425,0.06354970000029425,0.06354970000029425,105.07006120000005,space,104.8636805999995,0.12748830000055023,,,,,,,,,,,,,,,,,,,,,results9,001,2026-04-13_14h31.59.921,mogelijke versie adaptive staircase builder,,2026.1.3,59.927930671640574,2026-04-13 14h32.00.255294 +0200,
4.5,ecc10pos,left,0,0,0,f,0,9.391570899999351,None,0,0,0,0,0,0,0,0,105.39916900000026,,,,,,,,,,,,,105.28959659999964,105.28964640000049,105.3897724999988,105.39916900000026,105.39916900000026,105.39916900000026,106.30314050000015,114.80328999999983,f,0,9.391570899999351,None,direct,20,[],0,shifteddirectgaze.png,f,0,1,results9,001,2026-04-13_14h31.59.921,mogelijke versie adaptive staircase builder,,2026.1.3,59.927930671640574,2026-04-13 14h32.00.255294 +0200,
4.5,ecc10pos,left,1,0,1,f,1,2.0191114000008383,None,0,0,0,0,1,0,1,0,114.9315319999987,,,,,,,,,,,,,,,114.92012780000005,114.9315319999987,114.9315319999987,114.9315319999987,115.8030331000009,116.9532689000007,f,1,2.0191114000008383,None,left,20,[20],1,shiftedgaze_L_20.png,f,1,1,results9,001,2026-04-13_14h31.59.921,mogelijke versie adaptive staircase builder,,2026.1.3,59.927930671640574,2026-04-13 14h32.00.255294 +0200,
4.5,ecc10pos,left,2,0,2,f,0,2.975084400000924,None,0,0,0,0,2,0,2,0,117.07159060000049,,,,,,,,,,,,,,,117.06126320000112,117.07159060000049,117.07159060000049,117.07159060000049,117.9530300999977,120.05334149999908,f,0,2.975084400000924,None,direct,19,"[20, 19]",2,shifteddirectgaze.png,f,0,1,results9,001,2026-04-13_14h31.59.921,mogelijke versie adaptive staircase builder,,2026.1.3,59.927930671640574,2026-04-13 14h32.00.255294 +0200,
4.5,ecc10pos,left,3,0,3,j,0,3.189991800001735,None,0,0,0,0,3,0,3,0,120.17675319999762,,,,,,,,,,,,,,,120.16539740000007,120.17675319999762,120.17675319999762,120.17675319999762,121.05287229999885,123.37103299999944,j,0,3.189991800001735,None,left,20,"[20, 19]",2,shiftedgaze_L_20.png,j,0,1,results9,001,2026-04-13_14h31.59.921,mogelijke versie adaptive staircase builder,,2026.1.3,59.927930671640574,2026-04-13 14h32.00.255294 +0200,
4.5,ecc10pos,left,4,0,4,f,0,1.890146800000366,None,0,0,0,0,4,0,4,0,123.49239820000003,,,,,,,,,,,,,,,123.48106339999867,123.49239820000003,123.49239820000003,123.49239820000003,124.38615489999938,125.38637620000009,f,0,1.890146800000366,None,direct,20,"[20, 19]",2,shifteddirectgaze.png,f,0,1,results9,001,2026-04-13_14h31.59.921,mogelijke versie adaptive staircase builder,,2026.1.3,59.927930671640574,2026-04-13 14h32.00.255294 +0200,
4.5,ecc10pos,left,5,0,5,j,0,1.802448700000241,None,0,0,0,0,5,0,5,0,125.50828600000023,,,,,,,,,,,,,,,125.49635259999923,125.50828600000023,125.50828600000023,125.50828600000023,126.38614299999972,127.31991669999843,j,0,1.802448700000241,None,left,20,"[20, 19]",2,shiftedgaze_L_20.png,j,0,1,results9,001,2026-04-13_14h31.59.921,mogelijke versie adaptive staircase builder,,2026.1.3,59.927930671640574,2026-04-13 14h32.00.255294 +0200,
4.5,ecc10pos,left,6,0,6,f,1,2.400064100002055,None,0,0,0,0,6,0,6,0,127.44656759999998,,,,,,,,,,,,,,,127.43564519999927,127.44656759999998,127.44656759999998,127.44656759999998,128.31970499999807,129.85296789999848,f,1,2.400064100002055,None,right,20,"[20, 19, 20]",3,shiftedgaze_R_20.png,f,1,1,results9,001,2026-04-13_14h31.59.921,mogelijke versie adaptive staircase builder,,2026.1.3,59.927930671640574,2026-04-13 14h32.00.255294 +0200,
4.5,ecc10pos,left,7,0,7,f,0,4.118674899997131,None,0,0,0,0,7,0,7,0,129.95215889999963,,,,,,,,,,,,,,,129.9415627999988,129.95215889999963,129.95215889999963,129.95215889999963,130.85275099999853,134.08637420000014,f,0,4.118674899997131,None,direct,19,"[20, 19, 20, 19]",4,shifteddirectgaze.png,f,0,1,results9,001,2026-04-13_14h31.59.921,mogelijke versie adaptive staircase builder,,2026.1.3,59.927930671640574,2026-04-13 14h32.00.255294 +0200,
4.5,ecc10pos,left,8,0,8,j,0,2.3541618999988714,None,0,0,0,0,8,0,8,0,134.2125688999986,,,,,,,,,,,,,,,134.20112479999807,134.2125688999986,134.2125688999986,134.2125688999986,135.08615959999952,136.5697540000001,j,0,2.3541618999988714,None,left,20,"[20, 19, 20, 19]",4,shiftedgaze_L_20.png,j,0,1,results9,001,2026-04-13_14h31.59.921,mogelijke versie adaptive staircase builder,,2026.1.3,59.927930671640574,2026-04-13 14h32.00.255294 +0200,
4.5,ecc10pos,left,9,0,9,f,0,1.5109016000023985,None,0,0,0,0,9,0,9,0,136.68788149999818,,,,,,,,,,,,,,,136.6766592999993,136.68788149999818,136.68788149999818,136.68788149999818,137.5695182999989,138.20294210000066,f,0,1.5109016000023985,None,direct,20,"[20, 19, 20, 19]",4,shifteddirectgaze.png,f,0,1,results9,001,2026-04-13_14h31.59.921,mogelijke versie adaptive staircase builder,,2026.1.3,59.927930671640574,2026-04-13 14h32.00.255294 +0200,
4.5,ecc10pos,left,10,0,10,j,0,1.519354399999429,None,0,0,0,0,10,0,10,0,138.32727929999965,,,,,,,,,,,,,,,138.31586590000006,138.32727929999965,138.32727929999965,138.32727929999965,139.20268849999775,139.8529611999984,j,0,1.519354399999429,None,left,20,"[20, 19, 20, 19]",4,shiftedgaze_L_20.png,j,0,1,results9,001,2026-04-13_14h31.59.921,mogelijke versie adaptive staircase builder,,2026.1.3,59.927930671640574,2026-04-13 14h32.00.255294 +0200,
4.5,ecc10pos,left,11,0,11,f,1,1.7593115999989095,None,0,0,0,0,11,0,11,0,139.9594971999977,,,,,,,,,,,,,,,139.94829000000027,139.9594971999977,139.9594971999977,139.9594971999977,140.8528344999977,141.71958230000018,f,1,1.7593115999989095,None,left,20,"[20, 19, 20, 19, 20]",5,shiftedgaze_L_20.png,f,1,1,results9,001,2026-04-13_14h31.59.921,mogelijke versie adaptive staircase builder,,2026.1.3,59.927930671640574,2026-04-13 14h32.00.255294 +0200,
4.5,ecc10pos,left,12,0,12,f,0,1.5923915000021225,None,0,0,0,0,12,0,12,0,141.8382464999995,,,,,,,,,,,,,,,141.82746530000077,141.8382464999995,141.8382464999995,141.8382464999995,142.71952890000102,143.43625890000112,f,0,1.5923915000021225,None,direct,19,"[20, 19, 20, 19, 20, 19]",6,shifteddirectgaze.png,f,0,1,results9,001,2026-04-13_14h31.59.921,mogelijke versie adaptive staircase builder,,2026.1.3,59.927930671640574,2026-04-13 14h32.00.255294 +0200,
4.5,ecc10pos,left,13,0,13,f,1,1.624855900001421,None,0,0,0,0,13,0,13,0,143.53471609999906,,,,,,,,,,,,,,,143.52437110000028,143.53471609999906,143.53471609999906,143.53471609999906,144.43604699999923,145.16941089999818,f,1,1.624855900001421,None,right,20,"[20, 19, 20, 19, 20, 19, 20]",7,shiftedgaze_R_20.png,f,1,1,results9,001,2026-04-13_14h31.59.921,mogelijke versie adaptive staircase builder,,2026.1.3,59.927930671640574,2026-04-13 14h32.00.255294 +0200,
4.5,ecc10pos,left,14,0,14,f,1,2.352937199997541,None,0,0,0,0,14,0,14,0,145.2859779999999,,,,,,,,,,,,,,,145.2759851999981,145.2859779999999,145.2859779999999,145.2859779999999,146.16925419999825,147.65318689999913,f,1,2.352937199997541,None,right,19,"[20, 19, 20, 19, 20, 19, 20]",7,shiftedgaze_R_19.png,f,1,1,results9,001,2026-04-13_14h31.59.921,mogelijke versie adaptive staircase builder,,2026.1.3,59.927930671640574,2026-04-13 14h32.00.255294 +0200,
4.5,ecc10pos,left,15,0,15,j,1,1.5473167999989528,None,0,0,0,0,15,0,15,0,147.76336489999812,,,,,,,,,,,,,,,147.7529269000006,147.76336489999812,147.76336489999812,147.76336489999812,148.65265129999898,149.3197414999995,j,1,1.5473167999989528,None,direct,18,"[20, 19, 20, 19, 20, 19, 20]",7,shifteddirectgaze.png,j,1,1,results9,001,2026-04-13_14h31.59.921,mogelijke versie adaptive staircase builder,,2026.1.3,59.927930671640574,2026-04-13 14h32.00.255294 +0200,
4.5,ecc10pos,left,16,0,16,f,1,1.3243239000003086,None,0,0,0,0,16,0,16,0,149.42632669999875,,,,,,,,,,,,,,,149.4160845999977,149.42632669999875,149.42632669999875,149.42632669999875,150.31914949999918,150.75305110000045,f,1,1.3243239000003086,None,right,17,"[20, 19, 20, 19, 20, 19, 20]",7,shiftedgaze_R_17.png,f,1,1,results9,001,2026-04-13_14h31.59.921,mogelijke versie adaptive staircase builder,,2026.1.3,59.927930671640574,2026-04-13 14h32.00.255294 +0200,
4.5,ecc10pos,left,17,0,17,f,1,1.3948716999984754,None,0,0,0,0,17,0,17,0,150.8598490000004,,,,,,,,,,,,,,,150.84929310000007,150.8598490000004,150.8598490000004,150.8598490000004,151.75270420000015,152.26956430000064,f,1,1.3948716999984754,None,right,16,"[20, 19, 20, 19, 20, 19, 20]",7,shiftedgaze_R_16.png,f,1,1,results9,001,2026-04-13_14h31.59.921,mogelijke versie adaptive staircase builder,,2026.1.3,59.927930671640574,2026-04-13 14h32.00.255294 +0200,
4.5,ecc10pos,left,18,0,18,f,0,1.4297431000013603,None,0,0,0,0,18,0,18,0,152.368926799998,,,,,,,,,,,,,,,152.3582553999986,152.368926799998,152.368926799998,152.368926799998,153.26924769999823,153.8027015000007,f,0,1.4297431000013603,None,direct,15,"[20, 19, 20, 19, 20, 19, 20, 15]",8,shifteddirectgaze.png,f,0,1,results9,001,2026-04-13_14h31.59.921,mogelijke versie adaptive staircase builder,,2026.1.3,59.927930671640574,2026-04-13 14h32.00.255294 +0200,
4.5,ecc10pos,left,19,0,19,j,0,1.9048436000011861,None,0,0,0,0,19,0,19,0,153.90183909999905,,,,,,,,,,,,,,,153.89172110000072,153.90183909999905,153.90183909999905,153.90183909999905,154.80250410000008,155.8193855999998,j,0,1.9048436000011861,None,right,16,"[20, 19, 20, 19, 20, 19, 20, 15]",8,shiftedgaze_R_16.png,j,0,1,results9,001,2026-04-13_14h31.59.921,mogelijke versie adaptive staircase builder,,2026.1.3,59.927930671640574,2026-04-13 14h32.00.255294 +0200,
4.5,ecc10pos,left,20,0,20,f,1,1.6219113999977708,None,0,0,0,0,20,0,20,0,155.9528266999987,,,,,,,,,,,,,,,155.9415009000004,155.9528266999987,155.9528266999987,155.9528266999987,156.8191872999996,157.5860928000002,f,1,1.6219113999977708,None,left,17,"[20, 19, 20, 19, 20, 19, 20, 15, 17]",9,shiftedgaze_L_17.png,f,1,1,results9,001,2026-04-13_14h31.59.921,mogelijke versie adaptive staircase builder,,2026.1.3,59.927930671640574,2026-04-13 14h32.00.255294 +0200,
4.5,ecc10pos,left,21,0,21,f,1,3.2706509999989066,None,0,0,0,0,21,0,21,0,157.70418530000097,,,,,,,,,,,,,,,157.6929672999977,157.70418530000097,157.70418530000097,157.70418530000097,158.58594810000068,160.9859977999986,f,1,3.2706509999989066,None,right,16,"[20, 19, 20, 19, 20, 19, 20, 15, 17]",9,shiftedgaze_R_16.png,f,1,1,results9,001,2026-04-13_14h31.59.921,mogelijke versie adaptive staircase builder,,2026.1.3,59.927930671640574,2026-04-13 14h32.00.255294 +0200,
4.5,ecc10pos,left,22,0,22,f,0,2.3774862000027497,None,0,0,0,0,22,0,22,0,161.08510100000058,,,,,,,,,,,,,,,161.0747792000002,161.08510100000058,161.08510100000058,161.08510100000058,161.9856316999976,163.46938949999821,f,0,2.3774862000027497,None,direct,15,"[20, 19, 20, 19, 20, 19, 20, 15, 17, 15]",10,shifteddirectgaze.png,f,0,1,results9,001,2026-04-13_14h31.59.921,mogelijke versie adaptive staircase builder,,2026.1.3,59.927930671640574,2026-04-13 14h32.00.255294 +0200,
4.5,ecc10pos,left,23,0,23,f,1,2.1145185999994283,None,0,0,0,0,23,0,23,0,163.57226979999905,,,,,,,,,,,,,,,163.56134229999952,163.57226979999905,163.57226979999905,163.57226979999905,164.46919780000098,165.70267020000028,f,1,2.1145185999994283,None,right,16,"[20, 19, 20, 19, 20, 19, 20, 15, 17, 15, 16]",11,shiftedgaze_R_16.png,f,1,1,results9,001,2026-04-13_14h31.59.921,mogelijke versie adaptive staircase builder,,2026.1.3,59.927930671640574,2026-04-13 14h32.00.255294 +0200,
4.5,ecc10pos,left,24,0,24,j,0,1.729095899998356,None,0,0,0,0,24,0,24,0,165.8215816999982,,,,,,,,,,,,,,,165.81198239999867,165.8215816999982,165.8215816999982,165.8215816999982,166.70238099999915,167.55275659999825,j,0,1.729095899998356,None,left,15,"[20, 19, 20, 19, 20, 19, 20, 15, 17, 15, 16, 15]",12,shiftedgaze_L_15.png,j,0,1,results9,001,2026-04-13_14h31.59.921,mogelijke versie adaptive staircase builder,,2026.1.3,59.927930671640574,2026-04-13 14h32.00.255294 +0200,
4.5,ecc10pos,left,25,0,25,j,0,2.5775211000000127,None,0,0,0,0,25,0,25,0,167.68528479999804,,,,,,,,,,,,,,,167.67370239999946,167.68528479999804,167.68528479999804,167.68528479999804,168.55240090000007,170.26936009999918,j,0,2.5775211000000127,None,left,16,"[20, 19, 20, 19, 20, 19, 20, 15, 17, 15, 16, 15]",12,shiftedgaze_L_16.png,j,0,1,results9,001,2026-04-13_14h31.59.921,mogelijke versie adaptive staircase builder,,2026.1.3,59.927930671640574,2026-04-13 14h32.00.255294 +0200,
4.5,ecc10pos,left,26,0,26,f,1,1.8191646000013861,None,0,0,0,0,26,0,26,0,170.37943040000027,,,,,,,,,,,,,,,170.3667256000008,170.37943040000027,170.37943040000027,170.37943040000027,171.26906729999973,172.20263239999986,f,1,1.8191646000013861,None,left,17,"[20, 19, 20, 19, 20, 19, 20, 15, 17, 15, 16, 15, 17]",13,shiftedgaze_L_17.png,f,1,1,results9,001,2026-04-13_14h31.59.921,mogelijke versie adaptive staircase builder,,2026.1.3,59.927930671640574,2026-04-13 14h32.00.255294 +0200,
4.5,ecc10pos,left,27,0,27,f,1,1.9778334999973595,None,0,0,0,0,27,0,27,0,172.3087419000003,,,,,,,,,,,,,,,172.297032399998,172.3087419000003,172.3087419000003,172.3087419000003,173.20228510000015,174.3025959000006,f,1,1.9778334999973595,None,left,16,"[20, 19, 20, 19, 20, 19, 20, 15, 17, 15, 16, 15, 17]",13,shiftedgaze_L_16.png,f,1,1,results9,001,2026-04-13_14h31.59.921,mogelijke versie adaptive staircase builder,,2026.1.3,59.927930671640574,2026-04-13 14h32.00.255294 +0200,
4.5,ecc10pos,left,28,0,28,j,0,1.6640177000008407,None,0,0,0,0,28,0,28,0,174.43068219999986,,,,,,,,,,,,,,,174.41959779999888,174.43068219999986,174.43068219999986,174.43068219999986,175.30224280000039,176.10252729999775,j,0,1.6640177000008407,None,right,15,"[20, 19, 20, 19, 20, 19, 20, 15, 17, 15, 16, 15, 17, 15]",14,shiftedgaze_R_15.png,j,0,1,results9,001,2026-04-13_14h31.59.921,mogelijke versie adaptive staircase builder,,2026.1.3,59.927930671640574,2026-04-13 14h32.00.255294 +0200,
4.5,ecc10pos,left,29,0,29,f,0,2.884199299998727,None,0,0,0,0,29,0,29,0,176.20242839999992,,,,,,,,,,,,,,,176.19153329999972,176.20242839999992,176.20242839999992,176.20242839999992,177.10214260000066,179.10229310000068,f,0,2.884199299998727,None,direct,16,"[20, 19, 20, 19, 20, 19, 20, 15, 17, 15, 16, 15, 17, 15]",14,shifteddirectgaze.png,f,0,1,results9,001,2026-04-13_14h31.59.921,mogelijke versie adaptive staircase builder,,2026.1.3,59.927930671640574,2026-04-13 14h32.00.255294 +0200,
4.5,ecc10pos,left,30,0,30,j,0,2.0731457000001683,None,0,0,0,0,30,0,30,0,179.22957529999985,,,,,,,,,,,,,,,179.21805369999856,179.22957529999985,179.22957529999985,179.22957529999985,180.10224440000093,181.31908430000112,j,0,2.0731457000001683,None,left,17,"[20, 19, 20, 19, 20, 19, 20, 15, 17, 15, 16, 15, 17, 15]",14,shiftedgaze_L_17.png,j,0,1,results9,001,2026-04-13_14h31.59.921,mogelijke versie adaptive staircase builder,,2026.1.3,59.927930671640574,2026-04-13 14h32.00.255294 +0200,
4.5,ecc10pos,left,31,0,31,f,1,1.4087053000002925,None,0,0,0,0,31,0,31,0,181.44585720000032,,,,,,,,,,,,,,,181.43500570000106,181.44585720000032,181.44585720000032,181.44585720000032,182.3189715999979,182.8690929000004,f,1,1.4087053000002925,None,right,18,"[20, 19, 20, 19, 20, 19, 20, 15, 17, 15, 16, 15, 17, 15, 18]",15,shiftedgaze_R_18.png,f,1,1,results9,001,2026-04-13_14h31.59.921,mogelijke versie adaptive staircase builder,,2026.1.3,59.927930671640574,2026-04-13 14h32.00.255294 +0200,
4.5,ecc10pos,left,32,0,32,f,1,1.4855371999983618,None,0,0,0,0,32,0,32,0,182.9690730000002,,,,,,,,,,,,,,,182.9588345000011,182.9690730000002,182.9690730000002,182.9690730000002,183.86868459999823,184.46892229999867,f,1,1.4855371999983618,None,right,17,"[20, 19, 20, 19, 20, 19, 20, 15, 17, 15, 16, 15, 17, 15, 18]",15,shiftedgaze_R_17.png,f,1,1,results9,001,2026-04-13_14h31.59.921,mogelijke versie adaptive staircase builder,,2026.1.3,59.927930671640574,2026-04-13 14h32.00.255294 +0200,
4.5,ecc10pos,left,33,0,33,f,1,1.5156680000000051,None,0,0,0,0,33,0,33,0,184.59494559999803,,,,,,,,,,,,,,,184.58366279999973,184.59494559999803,184.59494559999803,184.59494559999803,185.4686918999978,186.11898419999852,f,1,1.5156680000000051,None,left,16,"[20, 19, 20, 19, 20, 19, 20, 15, 17, 15, 16, 15, 17, 15, 18]",15,shiftedgaze_L_16.png,f,1,1,results9,001,2026-04-13_14h31.59.921,mogelijke versie adaptive staircase builder,,2026.1.3,59.927930671640574,2026-04-13 14h32.00.255294 +0200,
4.5,ecc10pos,left,34,0,34,j,0,1.441588599998795,None,0,0,0,0,34,0,34,0,186.23710709999796,,,,,,,,,,,,,,,186.226088899999,186.23710709999796,186.23710709999796,186.23710709999796,187.11875619999773,187.68569560000105,j,0,1.441588599998795,None,left,15,"[20, 19, 20, 19, 20, 19, 20, 15, 17, 15, 16, 15, 17, 15, 18, 15]",16,shiftedgaze_L_15.png,j,0,1,results9,001,2026-04-13_14h31.59.921,mogelijke versie adaptive staircase builder,,2026.1.3,59.927930671640574,2026-04-13 14h32.00.255294 +0200,
4.5,ecc10pos,left,35,0,35,j,0,1.9396180999974604,None,0,0,0,0,35,0,35,0,187.81101370000033,,,,,,,,,,,,,,,187.80045329999848,187.81101370000033,187.81101370000033,187.81101370000033,188.6854132999979,189.7524545999986,j,0,1.9396180999974604,None,left,16,"[20, 19, 20, 19, 20, 19, 20, 15, 17, 15, 16, 15, 17, 15, 18, 15]",16,shiftedgaze_L_16.png,j,0,1,results9,001,2026-04-13_14h31.59.921,mogelijke versie adaptive staircase builder,,2026.1.3,59.927930671640574,2026-04-13 14h32.00.255294 +0200,
4.5,ecc10pos,left,36,0,36,f,0,1.6636671999985992,None,0,0,0,0,36,0,36,0,189.87101489999986,,,,,,,,,,,,,,,189.86023419999765,189.87101489999986,189.87101489999986,189.87101489999986,190.75222419999773,191.53568219999943,f,0,1.6636671999985992,None,direct,17,"[20, 19, 20, 19, 20, 19, 20, 15, 17, 15, 16, 15, 17, 15, 18, 15]",16,shifteddirectgaze.png,f,0,1,results9,001,2026-04-13_14h31.59.921,mogelijke versie adaptive staircase builder,,2026.1.3,59.927930671640574,2026-04-13 14h32.00.255294 +0200,
4.5,ecc10pos,left,37,0,37,j,0,1.2792786999998498,None,0,0,0,0,37,0,37,0,191.67128690000027,,,,,,,,,,,,,,,191.65982919999806,191.67128690000027,191.67128690000027,191.67128690000027,192.535370900001,192.95240139999805,j,0,1.2792786999998498,None,left,18,"[20, 19, 20, 19, 20, 19, 20, 15, 17, 15, 16, 15, 17, 15, 18, 15]",16,shiftedgaze_L_18.png,j,0,1,results9,001,2026-04-13_14h31.59.921,mogelijke versie adaptive staircase builder,,2026.1.3,59.927930671640574,2026-04-13 14h32.00.255294 +0200,
4.5,ecc10pos,left,38,0,38,f,1,1.5281299000016588,None,0,0,0,0,38,0,38,0,193.0704970000006,,,,,,,,,,,,,,,193.05937269999777,193.0704970000006,193.0704970000006,193.0704970000006,193.95188439999765,194.60219309999957,f,1,1.5281299000016588,None,right,19,"[20, 19, 20, 19, 20, 19, 20, 15, 17, 15, 16, 15, 17, 15, 18, 15, 19]",17,shiftedgaze_R_19.png,f,1,1,results9,001,2026-04-13_14h31.59.921,mogelijke versie adaptive staircase builder,,2026.1.3,59.927930671640574,2026-04-13 14h32.00.255294 +0200,
4.5,ecc10pos,left,39,0,39,f,0,1.4378164999980072,None,0,0,0,0,39,0,39,0,194.7128073999993,,,,,,,,,,,,,,,194.70198679999885,194.7128073999993,194.7128073999993,194.7128073999993,195.60184590000063,196.15230789999987,f,0,1.4378164999980072,None,direct,18,"[20, 19, 20, 19, 20, 19, 20, 15, 17, 15, 16, 15, 17, 15, 18, 15, 19, 18]",18,shifteddirectgaze.png,f,0,1,results9,001,2026-04-13_14h31.59.921,mogelijke versie adaptive staircase builder,,2026.1.3,59.927930671640574,2026-04-13 14h32.00.255294 +0200,
4.5,ecc10pos,left,40,0,40,j,0,1.6798882000002777,None,0,0,0,0,40,0,40,0,196.28671399999803,,,,,,,,,,,,,,,196.2756690999995,196.28671399999803,196.28671399999803,196.28671399999803,197.15183740000066,197.96879389999958,j,0,1.6798882000002777,None,left,19,"[20, 19, 20, 19, 20, 19, 20, 15, 17, 15, 16, 15, 17, 15, 18, 15, 19, 18]",18,shiftedgaze_L_19.png,j,0,1,results9,001,2026-04-13_14h31.59.921,mogelijke versie adaptive staircase builder,,2026.1.3,59.927930671640574,2026-04-13 14h32.00.255294 +0200,
4.5,ecc10pos,left,41,0,41,j,0,1.6980936999971163,None,0,0,0,0,41,0,41,0,198.07748119999815,,,,,,,,,,,,,,,198.0664856000003,198.07748119999815,198.07748119999815,198.07748119999815,198.96844299999793,199.78556190000018,j,0,1.6980936999971163,None,left,20,"[20, 19, 20, 19, 20, 19, 20, 15, 17, 15, 16, 15, 17, 15, 18, 15, 19, 18]",18,shiftedgaze_L_20.png,j,0,1,results9,001,2026-04-13_14h31.59.921,mogelijke versie adaptive staircase builder,,2026.1.3,59.927930671640574,2026-04-13 14h32.00.255294 +0200,
4.5,ecc10pos,left,42,0,42,j,1,1.4906792000001587,None,0,0,0,0,42,0,42,0,199.90795119999893,,,,,,,,,,,,,,,199.8958844000008,199.90795119999893,199.90795119999893,199.90795119999893,200.7851167000008,201.40227400000003,j,1,1.4906792000001587,None,direct,20,"[20, 19, 20, 19, 20, 19, 20, 15, 17, 15, 16, 15, 17, 15, 18, 15, 19, 18, 20]",19,shifteddirectgaze.png,j,1,1,results9,001,2026-04-13_14h31.59.921,mogelijke versie adaptive staircase builder,,2026.1.3,59.927930671640574,2026-04-13 14h32.00.255294 +0200,
4.5,ecc10pos,left,43,0,43,f,1,1.2288862999994308,None,0,0,0,0,43,0,43,0,201.513643899998,,,,,,,,,,,,,,,201.50310510000054,201.513643899998,201.513643899998,201.513643899998,202.4018729999989,202.75236049999876,f,1,1.2288862999994308,None,right,19,"[20, 19, 20, 19, 20, 19, 20, 15, 17, 15, 16, 15, 17, 15, 18, 15, 19, 18, 20]",19,shiftedgaze_R_19.png,f,1,1,results9,001,2026-04-13_14h31.59.921,mogelijke versie adaptive staircase builder,,2026.1.3,59.927930671640574,2026-04-13 14h32.00.255294 +0200,
4.5,ecc10pos,left,44,0,44,f,0,1.1175866999983555,None,0,0,0,0,44,0,44,0,202.8651146000011,,,,,,,,,,,,,,,202.85520779999933,202.8651146000011,202.8651146000011,202.8651146000011,203.75201870000092,203.98546129999886,f,0,1.1175866999983555,None,direct,18,"[20, 19, 20, 19, 20, 19, 20, 15, 17, 15, 16, 15, 17, 15, 18, 15, 19, 18, 20, 18]",20,shifteddirectgaze.png,f,0,1,results9,001,2026-04-13_14h31.59.921,mogelijke versie adaptive staircase builder,,2026.1.3,59.927930671640574,2026-04-13 14h32.00.255294 +0200,
4.5,ecc10pos,left,45,0,45,f,1,1.314876100001129,None,0,0,0,0,45,0,45,0,204.11574760000076,,,,,,,,,,,,,,,204.1044789000007,204.11574760000076,204.11574760000076,204.11574760000076,204.98532889999842,205.43548490000103,f,1,1.314876100001129,None,left,19,"[20, 19, 20, 19, 20, 19, 20, 15, 17, 15, 16, 15, 17, 15, 18, 15, 19, 18, 20, 18, 19]",21,shiftedgaze_L_19.png,f,1,1,results9,001,2026-04-13_14h31.59.921,mogelijke versie adaptive staircase builder,,2026.1.3,59.927930671640574,2026-04-13 14h32.00.255294 +0200,
4.5,ecc10pos,left,46,0,46,j,0,1.3331438999994134,None,0,0,0,0,46,0,46,0,205.55349659999774,,,,,,,,,,,,,,,205.54236160000073,205.55349659999774,205.55349659999774,205.55349659999774,206.43509129999802,206.9021959999991,j,0,1.3331438999994134,None,right,18,"[20, 19, 20, 19, 20, 19, 20, 15, 17, 15, 16, 15, 17, 15, 18, 15, 19, 18, 20, 18, 19, 18]",22,shiftedgaze_R_18.png,j,0,1,results9,001,2026-04-13_14h31.59.921,mogelijke versie adaptive staircase builder,,2026.1.3,59.927930671640574,2026-04-13 14h32.00.255294 +0200,
4.5,ecc10pos,left,47,0,47,f,1,1.2679476000012073,None,0,0,0,0,47,0,47,0,207.01071579999916,,,,,,,,,,,,,,,206.999626599998,207.01071579999916,207.01071579999916,207.01071579999916,207.90176839999913,208.2853327999983,f,1,1.2679476000012073,None,right,19,"[20, 19, 20, 19, 20, 19, 20, 15, 17, 15, 16, 15, 17, 15, 18, 15, 19, 18, 20, 18, 19, 18, 19]",23,shiftedgaze_R_19.png,f,1,1,results9,001,2026-04-13_14h31.59.921,mogelijke versie adaptive staircase builder,,2026.1.3,59.927930671640574,2026-04-13 14h32.00.255294 +0200,
4.5,ecc10pos,left,48,0,48,f,0,1.4697173000022303,None,0,0,0,0,48,0,48,0,208.39300100000037,,,,,,,,,,,,,,,208.38360069999908,208.39300100000037,208.39300100000037,208.39300100000037,209.28504239999893,209.868771999998,f,0,1.4697173000022303,None,direct,18,"[20, 19, 20, 19, 20, 19, 20, 15, 17, 15, 16, 15, 17, 15, 18, 15, 19, 18, 20, 18, 19, 18, 19, 18]",24,shifteddirectgaze.png,f,0,1,results9,001,2026-04-13_14h31.59.921,mogelijke versie adaptive staircase builder,,2026.1.3,59.927930671640574,2026-04-13 14h32.00.255294 +0200,
4.5,ecc10pos,left,49,0,49,j,0,1.2313278000001446,None,0,0,0,0,49,0,49,0,209.99150179999924,,,,,,,,,,,,,,,209.97945139999865,209.99150179999924,209.99150179999924,209.99150179999924,210.86839959999998,211.235415799998,j,0,1.2313278000001446,None,left,19,"[20, 19, 20, 19, 20, 19, 20, 15, 17, 15, 16, 15, 17, 15, 18, 15, 19, 18, 20, 18, 19, 18, 19, 18]",24,shiftedgaze_L_19.png,j,0,1,results9,001,2026-04-13_14h31.59.921,mogelijke versie adaptive staircase builder,,2026.1.3,59.927930671640574,2026-04-13 14h32.00.255294 +0200,
4.5,ecc10pos,left,50,0,50,f,1,1.589018099999521,None,0,0,0,0,50,0,50,0,211.35347089999777,,,,,,,,,,,,,,,211.34233049999966,211.35347089999777,211.35347089999777,211.35347089999777,212.2351009999984,212.95210229999793,f,1,1.589018099999521,None,right,20,"[20, 19, 20, 19, 20, 19, 20, 15, 17, 15, 16, 15, 17, 15, 18, 15, 19, 18, 20, 18, 19, 18, 19, 18, 20]",25,shiftedgaze_R_20.png,f,1,1,results9,001,2026-04-13_14h31.59.921,mogelijke versie adaptive staircase builder,,2026.1.3,59.927930671640574,2026-04-13 14h32.00.255294 +0200,
4.5,ecc10pos,left,51,0,51,j,0,2.3224713999989035,None,0,0,0,0,51,0,51,0,213.0761711999985,,,,,,,,,,,,,,,213.06462269999975,213.0761711999985,213.0761711999985,213.0761711999985,213.95197499999995,215.40206209999815,j,0,2.3224713999989035,None,left,19,"[20, 19, 20, 19, 20, 19, 20, 15, 17, 15, 16, 15, 17, 15, 18, 15, 19, 18, 20, 18, 19, 18, 19, 18, 20, 19]",26,shiftedgaze_L_19.png,j,0,1,results9,001,2026-04-13_14h31.59.921,mogelijke versie adaptive staircase builder,,2026.1.3,59.927930671640574,2026-04-13 14h32.00.255294 +0200,
4.5,ecc10pos,left,52,0,52,f,0,1.5553290999996534,None,0,0,0,0,52,0,52,0,215.52330000000075,,,,,,,,,,,,,,,215.5091711999994,215.52330000000075,215.52330000000075,215.52330000000075,216.40179239999998,217.08513839999796,f,0,1.5553290999996534,None,direct,20,"[20, 19, 20, 19, 20, 19, 20, 15, 17, 15, 16, 15, 17, 15, 18, 15, 19, 18, 20, 18, 19, 18, 19, 18, 20, 19]",26,shifteddirectgaze.png,f,0,1,results9,001,2026-04-13_14h31.59.921,mogelijke versie adaptive staircase builder,,2026.1.3,59.927930671640574,2026-04-13 14h32.00.255294 +0200,
4.5,ecc10pos,left,53,0,53,j,0,1.9672092000000703,None,0,0,0,0,53,0,53,0,217.18357860000106,,,,,,,,,,,,,,,217.17311340000015,217.18357860000106,217.18357860000106,217.18357860000106,218.08485139999902,219.15202289999797,j,0,1.9672092000000703,None,right,20,"[20, 19, 20, 19, 20, 19, 20, 15, 17, 15, 16, 15, 17, 15, 18, 15, 19, 18, 20, 18, 19, 18, 19, 18, 20, 19]",26,shiftedgaze_R_20.png,j,0,1,results9,001,2026-04-13_14h31.59.921,mogelijke versie adaptive staircase builder,,2026.1.3,59.927930671640574,2026-04-13 14h32.00.255294 +0200,
4.5,ecc10pos,left,54,0,54,f,0,1.442519899999752,None,0,0,0,0,54,0,54,0,219.25211109999873,,,,,,,,,,,,,,,219.2414346000005,219.25211109999873,219.25211109999873,219.25211109999873,220.15173829999912,220.7017807000011,f,0,1.442519899999752,None,direct,20,"[20, 19, 20, 19, 20, 19, 20, 15, 17, 15, 16, 15, 17, 15, 18, 15, 19, 18, 20, 18, 19, 18, 19, 18, 20, 19]",26,shifteddirectgaze.png,f,0,1,results9,001,2026-04-13_14h31.59.921,mogelijke versie adaptive staircase builder,,2026.1.3,59.927930671640574,2026-04-13 14h32.00.255294 +0200,
4.5,ecc10pos,left,55,0,55,f,1,2.4527504999969096,None,0,0,0,0,55,0,55,0,220.80201459999807,,,,,,,,,,,,,,,220.79136619999917,220.80201459999807,220.80201459999807,220.80201459999807,221.70147319999887,223.2686098999984,f,1,2.4527504999969096,None,right,20,"[20, 19, 20, 19, 20, 19, 20, 15, 17, 15, 16, 15, 17, 15, 18, 15, 19, 18, 20, 18, 19, 18, 19, 18, 20, 19, 20]",27,shiftedgaze_R_20.png,f,1,1,results9,001,2026-04-13_14h31.59.921,mogelijke versie adaptive staircase builder,,2026.1.3,59.927930671640574,2026-04-13 14h32.00.255294 +0200,
4.5,ecc10pos,left,56,0,56,f,1,1.5422091000000364,None,0,0,0,0,56,0,56,0,223.3925492999988,,,,,,,,,,,,,,,223.38107300000047,223.3925492999988,223.3925492999988,223.3925492999988,224.26830419999897,224.935312900001,f,1,1.5422091000000364,None,left,19,"[20, 19, 20, 19, 20, 19, 20, 15, 17, 15, 16, 15, 17, 15, 18, 15, 19, 18, 20, 18, 19, 18, 19, 18, 20, 19, 20]",27,shiftedgaze_L_19.png,f,1,1,results9,001,2026-04-13_14h31.59.921,mogelijke versie adaptive staircase builder,,2026.1.3,59.927930671640574,2026-04-13 14h32.00.255294 +0200,
4.5,ecc10pos,left,57,0,57,j,0,2.356614100001025,None,0,0,0,0,57,0,57,0,225.04209249999985,,,,,,,,,,,,,,,225.03072350000002,225.04209249999985,225.04209249999985,225.04209249999985,225.93507099999988,227.40188719999787,j,0,2.356614100001025,None,left,18,"[20, 19, 20, 19, 20, 19, 20, 15, 17, 15, 16, 15, 17, 15, 18, 15, 19, 18, 20, 18, 19, 18, 19, 18, 20, 19, 20, 18]",28,shiftedgaze_L_18.png,j,0,1,results9,001,2026-04-13_14h31.59.921,mogelijke versie adaptive staircase builder,,2026.1.3,59.927930671640574,2026-04-13 14h32.00.255294 +0200,
4.5,ecc10pos,left,58,0,58,f,0,1.8209154999967723,None,0,0,0,0,58,0,58,0,227.52173200000107,,,,,,,,,,,,,,,227.5109580999997,227.52173200000107,227.52173200000107,227.52173200000107,228.4016331999992,229.3517060999984,f,0,1.8209154999967723,None,direct,19,"[20, 19, 20, 19, 20, 19, 20, 15, 17, 15, 16, 15, 17, 15, 18, 15, 19, 18, 20, 18, 19, 18, 19, 18, 20, 19, 20, 18]",28,shifteddirectgaze.png,f,0,1,results9,001,2026-04-13_14h31.59.921,mogelijke versie adaptive staircase builder,,2026.1.3,59.927930671640574,2026-04-13 14h32.00.255294 +0200,
4.5,ecc10pos,left,59,0,59,f,1,1.923977400001604,None,0,0,0,0,59,0,59,0,229.45157199999812,,,,,,,,,,,,,,,229.44077860000107,229.45157199999812,229.45157199999812,229.45157199999812,230.3514026999983,231.38514349999969,f,1,1.923977400001604,None,right,20,"[20, 19, 20, 19, 20, 19, 20, 15, 17, 15, 16, 15, 17, 15, 18, 15, 19, 18, 20, 18, 19, 18, 19, 18, 20, 19, 20, 18, 20]",29,shiftedgaze_R_20.png,f,1,1,results9,001,2026-04-13_14h31.59.921,mogelijke versie adaptive staircase builder,,2026.1.3,59.927930671640574,2026-04-13 14h32.00.255294 +0200,
4.5,ecc10pos,left,0,0,0,,,,,0,0,0,0,,,,,,,,,,,,,,,,,,,,,,,,,,,,,,,,,,,,,,results9,001,2026-04-13_14h31.59.921,mogelijke versie adaptive staircase builder,,2026.1.3,59.927930671640574,2026-04-13 14h32.00.255294 +0200,
12.5,ecc0,mid,0,0,0,f,1,3.2497941000001447,None,0,1,1,1,0,0,0,0,231.49290389999805,,,,,,,,,,,,,231.3876676,231.38770219999788,231.48264579999886,231.49290389999805,232.40151719999994,231.49290389999805,231.49290389999805,234.75174340000012,f,1,3.2497941000001447,None,right,20,[],0,gaze_R_20.png,f,1,2,results9,001,2026-04-13_14h31.59.921,mogelijke versie adaptive staircase builder,,2026.1.3,59.927930671640574,2026-04-13 14h32.00.255294 +0200,
12.5,ecc0,mid,1,0,1,f,1,1.81072420000055,None,0,1,1,1,1,0,1,0,234.85988449999786,,,,,,,,,,,,,,,234.84810369999832,234.85988449999786,235.75135519999822,234.85988449999786,234.85988449999786,236.68501130000004,f,1,1.81072420000055,None,right,19,[],0,gaze_R_19.png,f,1,2,results9,001,2026-04-13_14h31.59.921,mogelijke versie adaptive staircase builder,,2026.1.3,59.927930671640574,2026-04-13 14h32.00.255294 +0200,
12.5,ecc0,mid,2,0,2,f,0,1.535087599997496,None,0,1,1,1,2,0,2,0,236.78347059999942,,,,,,,,,,,,,,,236.7728184999978,236.78347059999942,237.68476269999883,236.78347059999942,236.78347059999942,238.3349554999986,f,0,1.535087599997496,None,direct,18,[18],1,direct_gaze.png,f,0,2,results9,001,2026-04-13_14h31.59.921,mogelijke versie adaptive staircase builder,,2026.1.3,59.927930671640574,2026-04-13 14h32.00.255294 +0200,
12.5,ecc0,mid,3,0,3,f,1,1.4465918999994756,None,0,1,1,1,3,0,3,0,238.43217309999818,,,,,,,,,,,,,,,238.42260189999797,238.43217309999818,239.33469640000112,238.43217309999818,238.43217309999818,239.88484270000117,f,1,1.4465918999994756,None,right,19,"[18, 19]",2,gaze_R_19.png,f,1,2,results9,001,2026-04-13_14h31.59.921,mogelijke versie adaptive staircase builder,,2026.1.3,59.927930671640574,2026-04-13 14h32.00.255294 +0200,
12.5,ecc0,mid,4,0,4,f,0,1.6226424000014958,None,0,1,1,1,4,0,4,0,239.9839847000003,,,,,,,,,,,,,,,239.97281450000082,239.9839847000003,240.88456519999818,239.9839847000003,239.9839847000003,241.61837730000116,f,0,1.6226424000014958,None,direct,18,"[18, 19, 18]",3,direct_gaze.png,f,0,2,results9,001,2026-04-13_14h31.59.921,mogelijke versie adaptive staircase builder,,2026.1.3,59.927930671640574,2026-04-13 14h32.00.255294 +0200,
12.5,ecc0,mid,5,0,5,j,0,1.6006549000012456,None,0,1,1,1,5,0,5,0,241.7180401000005,,,,,,,,,,,,,,,241.70756550000078,241.7180401000005,242.61801679999917,241.7180401000005,241.7180401000005,243.33475969999927,j,0,1.6006549000012456,None,right,19,"[18, 19, 18]",3,gaze_R_19.png,j,0,2,results9,001,2026-04-13_14h31.59.921,mogelijke versie adaptive staircase builder,,2026.1.3,59.927930671640574,2026-04-13 14h32.00.255294 +0200,
12.5,ecc0,mid,6,0,6,f,1,1.368991700001061,None,0,1,1,1,6,0,6,0,243.4296957000006,,,,,,,,,,,,,,,243.41946969999844,243.4296957000006,244.3345855999978,243.4296957000006,243.4296957000006,244.80163299999913,f,1,1.368991700001061,None,right,20,"[18, 19, 18, 20]",4,gaze_R_20.png,f,1,2,results9,001,2026-04-13_14h31.59.921,mogelijke versie adaptive staircase builder,,2026.1.3,59.927930671640574,2026-04-13 14h32.00.255294 +0200,
12.5,ecc0,mid,7,0,7,j,0,1.568194499999663,None,0,1,1,1,7,0,7,0,244.91060659999857,,,,,,,,,,,,,,,244.8991977000005,244.91060659999857,245.80141019999792,244.91060659999857,244.91060659999857,246.48500910000075,j,0,1.568194499999663,None,left,19,"[18, 19, 18, 20, 19]",5,gaze_L_19.png,j,0,2,results9,001,2026-04-13_14h31.59.921,mogelijke versie adaptive staircase builder,,2026.1.3,59.927930671640574,2026-04-13 14h32.00.255294 +0200,
12.5,ecc0,mid,8,0,8,f,0,2.2145648000005167,None,0,1,1,1,8,0,8,0,246.58417399999962,,,,,,,,,,,,,,,246.5742343999991,246.58417399999962,247.48458029999892,246.58417399999962,246.58417399999962,248.8014876999987,f,0,2.2145648000005167,None,direct,20,"[18, 19, 18, 20, 19]",5,direct_gaze.png,f,0,2,results9,001,2026-04-13_14h31.59.921,mogelijke versie adaptive staircase builder,,2026.1.3,59.927930671640574,2026-04-13 14h32.00.255294 +0200,
12.5,ecc0,mid,9,0,9,f,1,2.732922700000927,None,0,1,1,1,9,0,9,0,248.89767030000075,,,,,,,,,,,,,,,248.88722029999917,248.89767030000075,249.80130350000036,248.89767030000075,248.89767030000075,251.63477499999863,f,1,2.732922700000927,None,right,20,"[18, 19, 18, 20, 19, 20]",6,gaze_R_20.png,f,1,2,results9,001,2026-04-13_14h31.59.921,mogelijke versie adaptive staircase builder,,2026.1.3,59.927930671640574,2026-04-13 14h32.00.255294 +0200,
12.5,ecc0,mid,10,0,10,j,0,1.8735692999980529,None,0,1,1,1,10,0,10,0,251.73298280000017,,,,,,,,,,,,,,,251.72209839999778,251.73298280000017,252.63462069999878,251.73298280000017,251.73298280000017,253.61814199999935,j,0,1.8735692999980529,None,left,19,"[18, 19, 18, 20, 19, 20, 19]",7,gaze_L_19.png,j,0,2,results9,001,2026-04-13_14h31.59.921,mogelijke versie adaptive staircase builder,,2026.1.3,59.927930671640574,2026-04-13 14h32.00.255294 +0200,
12.5,ecc0,mid,11,0,11,f,0,1.5445098999989568,None,0,1,1,1,11,0,11,0,253.71808360000068,,,,,,,,,,,,,,,253.70818829999916,253.71808360000068,254.61783360000118,253.71808360000068,253.71808360000068,255.2682528999976,f,0,1.5445098999989568,None,direct,20,"[18, 19, 18, 20, 19, 20, 19]",7,direct_gaze.png,f,0,2,results9,001,2026-04-13_14h31.59.921,mogelijke versie adaptive staircase builder,,2026.1.3,59.927930671640574,2026-04-13 14h32.00.255294 +0200,
12.5,ecc0,mid,12,0,12,f,1,1.5352830999981961,None,0,1,1,1,12,0,12,0,255.36734050000086,,,,,,,,,,,,,,,255.35607979999986,255.36734050000086,256.26794919999884,255.36734050000086,255.36734050000086,256.9180703999991,f,1,1.5352830999981961,None,right,20,"[18, 19, 18, 20, 19, 20, 19, 20]",8,gaze_R_20.png,f,1,2,results9,001,2026-04-13_14h31.59.921,mogelijke versie adaptive staircase builder,,2026.1.3,59.927930671640574,2026-04-13 14h32.00.255294 +0200,
12.5,ecc0,mid,13,0,13,f,0,1.2947319000013522,None,0,1,1,1,13,0,13,0,257.0158771999995,,,,,,,,,,,,,,,257.00539039999785,257.0158771999995,257.91778449999765,257.0158771999995,257.0158771999995,258.3180480999981,f,0,1.2947319000013522,None,direct,19,"[18, 19, 18, 20, 19, 20, 19, 20, 19]",9,direct_gaze.png,f,0,2,results9,001,2026-04-13_14h31.59.921,mogelijke versie adaptive staircase builder,,2026.1.3,59.927930671640574,2026-04-13 14h32.00.255294 +0200,
12.5,ecc0,mid,14,0,14,f,1,1.3010935999991489,None,0,1,1,1,14,0,14,0,258.4174865999994,,,,,,,,,,,,,,,258.40758070000084,258.4174865999994,259.3177566999984,258.4174865999994,258.4174865999994,259.7346445000003,f,1,1.3010935999991489,None,right,20,"[18, 19, 18, 20, 19, 20, 19, 20, 19, 20]",10,gaze_R_20.png,f,1,2,results9,001,2026-04-13_14h31.59.921,mogelijke versie adaptive staircase builder,,2026.1.3,59.927930671640574,2026-04-13 14h32.00.255294 +0200,
12.5,ecc0,mid,15,0,15,f,1,1.6281208000000333,None,0,1,1,1,15,0,15,0,259.8345124000007,,,,,,,,,,,,,,,259.8242883999992,259.8345124000007,260.73442799999975,259.8345124000007,259.8345124000007,261.4680984999977,f,1,1.6281208000000333,None,left,19,"[18, 19, 18, 20, 19, 20, 19, 20, 19, 20]",10,gaze_L_19.png,f,1,2,results9,001,2026-04-13_14h31.59.921,mogelijke versie adaptive staircase builder,,2026.1.3,59.927930671640574,2026-04-13 14h32.00.255294 +0200,
12.5,ecc0,mid,16,0,16,f,1,1.3698422000015853,None,0,1,1,1,16,0,16,0,261.5728190000009,,,,,,,,,,,,,,,261.5618295999993,261.5728190000009,262.46774039999946,261.5728190000009,261.5728190000009,262.9513565999987,f,1,1.3698422000015853,None,right,18,"[18, 19, 18, 20, 19, 20, 19, 20, 19, 20]",10,gaze_R_18.png,f,1,2,results9,001,2026-04-13_14h31.59.921,mogelijke versie adaptive staircase builder,,2026.1.3,59.927930671640574,2026-04-13 14h32.00.255294 +0200,
12.5,ecc0,mid,17,0,17,f,1,1.507413600000291,None,0,1,1,1,17,0,17,0,263.0593274999992,,,,,,,,,,,,,,,263.0486751999997,263.0593274999992,263.9511703999997,263.0593274999992,263.0593274999992,264.5679295000009,f,1,1.507413600000291,None,left,17,"[18, 19, 18, 20, 19, 20, 19, 20, 19, 20]",10,gaze_L_17.png,f,1,2,results9,001,2026-04-13_14h31.59.921,mogelijke versie adaptive staircase builder,,2026.1.3,59.927930671640574,2026-04-13 14h32.00.255294 +0200,
12.5,ecc0,mid,18,0,18,f,0,2.1367411999999604,None,0,1,1,1,18,0,18,0,264.66992480000044,,,,,,,,,,,,,,,264.65817179999794,264.66992480000044,265.5677159000006,264.66992480000044,264.66992480000044,266.8180042999993,f,0,2.1367411999999604,None,direct,16,"[18, 19, 18, 20, 19, 20, 19, 20, 19, 20, 16]",11,direct_gaze.png,f,0,2,results9,001,2026-04-13_14h31.59.921,mogelijke versie adaptive staircase builder,,2026.1.3,59.927930671640574,2026-04-13 14h32.00.255294 +0200,
12.5,ecc0,mid,19,0,19,f,1,1.5069925999996485,None,0,1,1,1,19,0,19,0,266.9159871999982,,,,,,,,,,,,,,,266.9054791999988,266.9159871999982,267.81776230000105,266.9159871999982,266.9159871999982,268.43463119999797,f,1,1.5069925999996485,None,right,17,"[18, 19, 18, 20, 19, 20, 19, 20, 19, 20, 16, 17]",12,gaze_R_17.png,f,1,2,results9,001,2026-04-13_14h31.59.921,mogelijke versie adaptive staircase builder,,2026.1.3,59.927930671640574,2026-04-13 14h32.00.255294 +0200,
12.5,ecc0,mid,20,0,20,f,1,1.3922744000010425,None,0,1,1,1,20,0,20,0,268.5344211999982,,,,,,,,,,,,,,,268.52398529999846,268.5344211999982,269.434397099998,268.5344211999982,268.5344211999982,269.9346082000011,f,1,1.3922744000010425,None,right,16,"[18, 19, 18, 20, 19, 20, 19, 20, 19, 20, 16, 17]",12,gaze_R_16.png,f,1,2,results9,001,2026-04-13_14h31.59.921,mogelijke versie adaptive staircase builder,,2026.1.3,59.927930671640574,2026-04-13 14h32.00.255294 +0200,
12.5,ecc0,mid,21,0,21,f,0,1.5696293000000878,None,0,1,1,1,21,0,21,0,270.0290520999988,,,,,,,,,,,,,,,270.01804059999995,270.0290520999988,270.9342973999992,270.0290520999988,270.0290520999988,271.6012755999982,f,0,1.5696293000000878,None,direct,15,"[18, 19, 18, 20, 19, 20, 19, 20, 19, 20, 16, 17, 15]",13,direct_gaze.png,f,0,2,results9,001,2026-04-13_14h31.59.921,mogelijke versie adaptive staircase builder,,2026.1.3,59.927930671640574,2026-04-13 14h32.00.255294 +0200,
12.5,ecc0,mid,22,0,22,f,1,1.8194866000012553,None,0,1,1,1,22,0,22,0,271.69121090000044,,,,,,,,,,,,,,,271.68067840000003,271.69121090000044,272.60087719999865,271.69121090000044,271.69121090000044,273.51791989999765,f,1,1.8194866000012553,None,right,16,"[18, 19, 18, 20, 19, 20, 19, 20, 19, 20, 16, 17, 15, 16]",14,gaze_R_16.png,f,1,2,results9,001,2026-04-13_14h31.59.921,mogelijke versie adaptive staircase builder,,2026.1.3,59.927930671640574,2026-04-13 14h32.00.255294 +0200,
12.5,ecc0,mid,23,0,23,f,0,1.8299893000003067,None,0,1,1,1,23,0,23,0,273.60871810000026,,,,,,,,,,,,,,,273.59764599999835,273.60871810000026,274.51769449999847,273.60871810000026,273.60871810000026,275.45110560000103,f,0,1.8299893000003067,None,direct,15,"[18, 19, 18, 20, 19, 20, 19, 20, 19, 20, 16, 17, 15, 16, 15]",15,direct_gaze.png,f,0,2,results9,001,2026-04-13_14h31.59.921,mogelijke versie adaptive staircase builder,,2026.1.3,59.927930671640574,2026-04-13 14h32.00.255294 +0200,
12.5,ecc0,mid,24,0,24,f,1,1.3733769000027678,None,0,1,1,1,24,0,24,0,275.5453047999981,,,,,,,,,,,,,,,275.5343112999981,275.5453047999981,276.45084679999854,275.5453047999981,275.5453047999981,276.93452780000007,f,1,1.3733769000027678,None,right,16,"[18, 19, 18, 20, 19, 20, 19, 20, 19, 20, 16, 17, 15, 16, 15, 16]",16,gaze_R_16.png,f,1,2,results9,001,2026-04-13_14h31.59.921,mogelijke versie adaptive staircase builder,,2026.1.3,59.927930671640574,2026-04-13 14h32.00.255294 +0200,
12.5,ecc0,mid,25,0,25,f,1,1.781386199996632,None,0,1,1,1,25,0,25,0,277.027036200001,,,,,,,,,,,,,,,277.01606660000107,277.027036200001,277.9342771999982,277.027036200001,277.027036200001,278.8178111999987,f,1,1.781386199996632,None,right,15,"[18, 19, 18, 20, 19, 20, 19, 20, 19, 20, 16, 17, 15, 16, 15, 16]",16,gaze_R_15.png,f,1,2,results9,001,2026-04-13_14h31.59.921,mogelijke versie adaptive staircase builder,,2026.1.3,59.927930671640574,2026-04-13 14h32.00.255294 +0200,
12.5,ecc0,mid,26,0,26,f,1,1.7066569000016898,None,0,1,1,1,26,0,26,0,278.9161442000004,,,,,,,,,,,,,,,278.90490959999806,278.9161442000004,279.8175931000005,278.9161442000004,278.9161442000004,280.63436619999993,f,1,1.7066569000016898,None,left,14,"[18, 19, 18, 20, 19, 20, 19, 20, 19, 20, 16, 17, 15, 16, 15, 16]",16,gaze_L_14.png,f,1,2,results9,001,2026-04-13_14h31.59.921,mogelijke versie adaptive staircase builder,,2026.1.3,59.927930671640574,2026-04-13 14h32.00.255294 +0200,
12.5,ecc0,mid,27,0,27,f,1,1.3014093999991019,None,0,1,1,1,27,0,27,0,280.7292396999983,,,,,,,,,,,,,,,280.71893519999867,280.7292396999983,281.63422920000085,280.7292396999983,280.7292396999983,282.0344323999998,f,1,1.3014093999991019,None,right,13,"[18, 19, 18, 20, 19, 20, 19, 20, 19, 20, 16, 17, 15, 16, 15, 16]",16,gaze_R_13.png,f,1,2,results9,001,2026-04-13_14h31.59.921,mogelijke versie adaptive staircase builder,,2026.1.3,59.927930671640574,2026-04-13 14h32.00.255294 +0200,
12.5,ecc0,mid,28,0,28,f,0,1.2771819999979925,None,0,1,1,1,28,0,28,0,282.1294749000008,,,,,,,,,,,,,,,282.1181923000004,282.1294749000008,283.0340649999998,282.1294749000008,282.1294749000008,283.41776709999976,f,0,1.2771819999979925,None,direct,12,"[18, 19, 18, 20, 19, 20, 19, 20, 19, 20, 16, 17, 15, 16, 15, 16, 12]",17,direct_gaze.png,f,0,2,results9,001,2026-04-13_14h31.59.921,mogelijke versie adaptive staircase builder,,2026.1.3,59.927930671640574,2026-04-13 14h32.00.255294 +0200,
12.5,ecc0,mid,29,0,29,f,1,2.136275199998636,None,0,1,1,1,29,0,29,0,283.5105094999999,,,,,,,,,,,,,,,283.49947450000036,283.5105094999999,284.4175298000009,283.5105094999999,283.5105094999999,285.651251700001,f,1,2.136275199998636,None,right,13,"[18, 19, 18, 20, 19, 20, 19, 20, 19, 20, 16, 17, 15, 16, 15, 16, 12, 13]",18,gaze_R_13.png,f,1,2,results9,001,2026-04-13_14h31.59.921,mogelijke versie adaptive staircase builder,,2026.1.3,59.927930671640574,2026-04-13 14h32.00.255294 +0200,
12.5,ecc0,mid,30,0,30,f,1,1.3335413999993762,None,0,1,1,1,30,0,30,0,285.7451958999991,,,,,,,,,,,,,,,285.734556899999,285.7451958999991,286.65082189999885,285.7451958999991,285.7451958999991,287.08438390000083,f,1,1.3335413999993762,None,right,12,"[18, 19, 18, 20, 19, 20, 19, 20, 19, 20, 16, 17, 15, 16, 15, 16, 12, 13]",18,gaze_R_12.png,f,1,2,results9,001,2026-04-13_14h31.59.921,mogelijke versie adaptive staircase builder,,2026.1.3,59.927930671640574,2026-04-13 14h32.00.255294 +0200,
12.5,ecc0,mid,31,0,31,f,1,1.3839828000018315,None,0,1,1,1,31,0,31,0,287.1827008,,,,,,,,,,,,,,,287.171422899999,287.1827008,288.0842014000009,287.1827008,287.1827008,288.5677147999995,f,1,1.3839828000018315,None,right,11,"[18, 19, 18, 20, 19, 20, 19, 20, 19, 20, 16, 17, 15, 16, 15, 16, 12, 13]",18,gaze_R_11.png,f,1,2,results9,001,2026-04-13_14h31.59.921,mogelijke versie adaptive staircase builder,,2026.1.3,59.927930671640574,2026-04-13 14h32.00.255294 +0200,
12.5,ecc0,mid,32,0,32,f,0,1.2393238000004203,None,0,1,1,1,32,0,32,0,288.6632796999984,,,,,,,,,,,,,,,288.65287850000095,288.6632796999984,289.56743899999856,288.6632796999984,288.6632796999984,289.9176731999978,f,0,1.2393238000004203,None,direct,10,"[18, 19, 18, 20, 19, 20, 19, 20, 19, 20, 16, 17, 15, 16, 15, 16, 12, 13, 10]",19,direct_gaze.png,f,0,2,results9,001,2026-04-13_14h31.59.921,mogelijke versie adaptive staircase builder,,2026.1.3,59.927930671640574,2026-04-13 14h32.00.255294 +0200,
12.5,ecc0,mid,33,0,33,f,1,1.6414740000000165,None,0,1,1,1,33,0,33,0,290.01334289999795,,,,,,,,,,,,,,,290.00310289999834,290.01334289999795,290.91743959999803,290.01334289999795,290.01334289999795,291.667680999999,f,1,1.6414740000000165,None,left,11,"[18, 19, 18, 20, 19, 20, 19, 20, 19, 20, 16, 17, 15, 16, 15, 16, 12, 13, 10, 11]",20,gaze_L_11.png,f,1,2,results9,001,2026-04-13_14h31.59.921,mogelijke versie adaptive staircase builder,,2026.1.3,59.927930671640574,2026-04-13 14h32.00.255294 +0200,
12.5,ecc0,mid,34,0,34,f,0,1.2495631000019785,None,0,1,1,1,34,0,34,0,291.76511709999977,,,,,,,,,,,,,,,291.75412439999855,291.76511709999977,292.6674086999992,291.76511709999977,291.76511709999977,293.01768699999957,f,0,1.2495631000019785,None,direct,10,"[18, 19, 18, 20, 19, 20, 19, 20, 19, 20, 16, 17, 15, 16, 15, 16, 12, 13, 10, 11, 10]",21,direct_gaze.png,f,0,2,results9,001,2026-04-13_14h31.59.921,mogelijke versie adaptive staircase builder,,2026.1.3,59.927930671640574,2026-04-13 14h32.00.255294 +0200,
12.5,ecc0,mid,35,0,35,f,1,1.9896493999985978,None,0,1,1,1,35,0,35,0,293.1129363,,,,,,,,,,,,,,,293.10292339999796,293.1129363,294.0174005000008,293.1129363,293.1129363,295.1176732999993,f,1,1.9896493999985978,None,left,11,"[18, 19, 18, 20, 19, 20, 19, 20, 19, 20, 16, 17, 15, 16, 15, 16, 12, 13, 10, 11, 10, 11]",22,gaze_L_11.png,f,1,2,results9,001,2026-04-13_14h31.59.921,mogelijke versie adaptive staircase builder,,2026.1.3,59.927930671640574,2026-04-13 14h32.00.255294 +0200,
12.5,ecc0,mid,36,0,36,f,1,1.3587138000002597,None,0,1,1,1,36,0,36,0,295.2241232999986,,,,,,,,,,,,,,,295.2130677999994,295.2241232999986,296.11749659999987,295.2241232999986,295.2241232999986,296.5841548999997,f,1,1.3587138000002597,None,left,10,"[18, 19, 18, 20, 19, 20, 19, 20, 19, 20, 16, 17, 15, 16, 15, 16, 12, 13, 10, 11, 10, 11]",22,gaze_L_10.png,f,1,2,results9,001,2026-04-13_14h31.59.921,mogelijke versie adaptive staircase builder,,2026.1.3,59.927930671640574,2026-04-13 14h32.00.255294 +0200,
12.5,ecc0,mid,37,0,37,f,0,1.7810030000000552,None,0,1,1,1,37,0,37,0,296.68161540000074,,,,,,,,,,,,,,,296.6709673000005,296.68161540000074,297.5838843999991,296.68161540000074,296.68161540000074,298.46746429999985,f,0,1.7810030000000552,None,direct,9,"[18, 19, 18, 20, 19, 20, 19, 20, 19, 20, 16, 17, 15, 16, 15, 16, 12, 13, 10, 11, 10, 11, 9]",23,direct_gaze.png,f,0,2,results9,001,2026-04-13_14h31.59.921,mogelijke versie adaptive staircase builder,,2026.1.3,59.927930671640574,2026-04-13 14h32.00.255294 +0200,
12.5,ecc0,mid,38,0,38,f,0,1.4325387999997474,None,0,1,1,1,38,0,38,0,298.56604569999763,,,,,,,,,,,,,,,298.5557173999987,298.56604569999763,299.46739779999916,298.56604569999763,298.56604569999763,300.00093840000045,f,0,1.4325387999997474,None,direct,10,"[18, 19, 18, 20, 19, 20, 19, 20, 19, 20, 16, 17, 15, 16, 15, 16, 12, 13, 10, 11, 10, 11, 9]",23,direct_gaze.png,f,0,2,results9,001,2026-04-13_14h31.59.921,mogelijke versie adaptive staircase builder,,2026.1.3,59.927930671640574,2026-04-13 14h32.00.255294 +0200,
12.5,ecc0,mid,39,0,39,f,1,1.4609748999973817,None,0,1,1,1,39,0,39,0,300.09765459999835,,,,,,,,,,,,,,,300.0865397999987,300.09765459999835,301.00062740000067,300.09765459999835,300.09765459999835,301.56736399999863,f,1,1.4609748999973817,None,left,11,"[18, 19, 18, 20, 19, 20, 19, 20, 19, 20, 16, 17, 15, 16, 15, 16, 12, 13, 10, 11, 10, 11, 9, 11]",24,gaze_L_11.png,f,1,2,results9,001,2026-04-13_14h31.59.921,mogelijke versie adaptive staircase builder,,2026.1.3,59.927930671640574,2026-04-13 14h32.00.255294 +0200,
12.5,ecc0,mid,40,0,40,f,0,1.4795666999998502,None,0,1,1,1,40,0,40,0,301.66302599999835,,,,,,,,,,,,,,,301.65282450000086,301.66302599999835,302.5670647000006,301.66302599999835,301.66302599999835,303.15102679999836,f,0,1.4795666999998502,None,direct,10,"[18, 19, 18, 20, 19, 20, 19, 20, 19, 20, 16, 17, 15, 16, 15, 16, 12, 13, 10, 11, 10, 11, 9, 11, 10]",25,direct_gaze.png,f,0,2,results9,001,2026-04-13_14h31.59.921,mogelijke versie adaptive staircase builder,,2026.1.3,59.927930671640574,2026-04-13 14h32.00.255294 +0200,
12.5,ecc0,mid,41,0,41,j,0,1.7825712000012572,None,0,1,1,1,41,0,41,0,303.24804609999774,,,,,,,,,,,,,,,303.2374297999995,303.24804609999774,304.1505838000012,303.24804609999774,303.24804609999774,305.0340991000012,j,0,1.7825712000012572,None,left,11,"[18, 19, 18, 20, 19, 20, 19, 20, 19, 20, 16, 17, 15, 16, 15, 16, 12, 13, 10, 11, 10, 11, 9, 11, 10]",25,gaze_L_11.png,j,0,2,results9,001,2026-04-13_14h31.59.921,mogelijke versie adaptive staircase builder,,2026.1.3,59.927930671640574,2026-04-13 14h32.00.255294 +0200,
12.5,ecc0,mid,42,0,42,f,0,1.7635107999994943,None,0,1,1,1,42,0,42,0,305.1310909999993,,,,,,,,,,,,,,,305.12067879999813,305.1310909999993,306.03366169999936,305.1310909999993,305.1310909999993,306.9008099999992,f,0,1.7635107999994943,None,direct,12,"[18, 19, 18, 20, 19, 20, 19, 20, 19, 20, 16, 17, 15, 16, 15, 16, 12, 13, 10, 11, 10, 11, 9, 11, 10]",25,direct_gaze.png,f,0,2,results9,001,2026-04-13_14h31.59.921,mogelijke versie adaptive staircase builder,,2026.1.3,59.927930671640574,2026-04-13 14h32.00.255294 +0200,
12.5,ecc0,mid,43,0,43,j,0,1.594317899998714,None,0,1,1,1,43,0,43,0,306.9973671999978,,,,,,,,,,,,,,,306.9872054000007,306.9973671999978,307.9006593999984,306.9973671999978,306.9973671999978,308.60059550000005,j,0,1.594317899998714,None,left,13,"[18, 19, 18, 20, 19, 20, 19, 20, 19, 20, 16, 17, 15, 16, 15, 16, 12, 13, 10, 11, 10, 11, 9, 11, 10]",25,gaze_L_13.png,j,0,2,results9,001,2026-04-13_14h31.59.921,mogelijke versie adaptive staircase builder,,2026.1.3,59.927930671640574,2026-04-13 14h32.00.255294 +0200,
12.5,ecc0,mid,44,0,44,f,1,1.5552935000014259,None,0,1,1,1,44,0,44,0,308.69930589999785,,,,,,,,,,,,,,,308.6884700999981,308.69930589999785,309.60040949999893,308.69930589999785,308.69930589999785,310.26743050000005,f,1,1.5552935000014259,None,left,14,"[18, 19, 18, 20, 19, 20, 19, 20, 19, 20, 16, 17, 15, 16, 15, 16, 12, 13, 10, 11, 10, 11, 9, 11, 10, 14]",26,gaze_L_14.png,f,1,2,results9,001,2026-04-13_14h31.59.921,mogelijke versie adaptive staircase builder,,2026.1.3,59.927930671640574,2026-04-13 14h32.00.255294 +0200,
12.5,ecc0,mid,45,0,45,f,0,2.6890027999979793,None,0,1,1,1,45,0,45,0,310.36558049999803,,,,,,,,,,,,,,,310.3550327999983,310.36558049999803,311.26702459999797,310.36558049999803,310.36558049999803,313.0674932000002,f,0,2.6890027999979793,None,direct,13,"[18, 19, 18, 20, 19, 20, 19, 20, 19, 20, 16, 17, 15, 16, 15, 16, 12, 13, 10, 11, 10, 11, 9, 11, 10, 14, 13]",27,direct_gaze.png,f,0,2,results9,001,2026-04-13_14h31.59.921,mogelijke versie adaptive staircase builder,,2026.1.3,59.927930671640574,2026-04-13 14h32.00.255294 +0200,
12.5,ecc0,mid,46,0,46,f,1,1.8976044000010006,None,0,1,1,1,46,0,46,0,313.1650038999978,,,,,,,,,,,,,,,313.1545241999993,313.1650038999978,314.0669769999986,313.1650038999978,313.1650038999978,315.0672515999977,f,1,1.8976044000010006,None,right,14,"[18, 19, 18, 20, 19, 20, 19, 20, 19, 20, 16, 17, 15, 16, 15, 16, 12, 13, 10, 11, 10, 11, 9, 11, 10, 14, 13, 14]",28,gaze_R_14.png,f,1,2,results9,001,2026-04-13_14h31.59.921,mogelijke versie adaptive staircase builder,,2026.1.3,59.927930671640574,2026-04-13 14h32.00.255294 +0200,
12.5,ecc0,mid,47,0,47,f,0,1.6876488000016252,None,0,1,1,1,47,0,47,0,315.16689100000076,,,,,,,,,,,,,,,315.15511440000046,315.16689100000076,316.0672338000004,315.16689100000076,315.16689100000076,316.86744030000045,f,0,1.6876488000016252,None,direct,13,"[18, 19, 18, 20, 19, 20, 19, 20, 19, 20, 16, 17, 15, 16, 15, 16, 12, 13, 10, 11, 10, 11, 9, 11, 10, 14, 13, 14, 13]",29,direct_gaze.png,f,0,2,results9,001,2026-04-13_14h31.59.921,mogelijke versie adaptive staircase builder,,2026.1.3,59.927930671640574,2026-04-13 14h32.00.255294 +0200,
12.5,ecc0,mid,48,0,48,f,0,1.6327134999992268,None,0,1,1,1,48,0,48,0,316.96589799999856,,,,,,,,,,,,,,,316.95575299999837,316.96589799999856,317.86689639999895,316.96589799999856,316.96589799999856,318.60064520000014,f,0,1.6327134999992268,None,direct,14,"[18, 19, 18, 20, 19, 20, 19, 20, 19, 20, 16, 17, 15, 16, 15, 16, 12, 13, 10, 11, 10, 11, 9, 11, 10, 14, 13, 14, 13]",29,direct_gaze.png,f,0,2,results9,001,2026-04-13_14h31.59.921,mogelijke versie adaptive staircase builder,,2026.1.3,59.927930671640574,2026-04-13 14h32.00.255294 +0200,
12.5,ecc0,mid,49,0,49,f,0,1.5250916000004509,None,0,1,1,1,49,0,49,0,318.6976456000011,,,,,,,,,,,,,,,318.68696790000104,318.6976456000011,319.6003677000008,318.6976456000011,318.6976456000011,320.2338517999997,f,0,1.5250916000004509,None,direct,15,"[18, 19, 18, 20, 19, 20, 19, 20, 19, 20, 16, 17, 15, 16, 15, 16, 12, 13, 10, 11, 10, 11, 9, 11, 10, 14, 13, 14, 13]",29,direct_gaze.png,f,0,2,results9,001,2026-04-13_14h31.59.921,mogelijke versie adaptive staircase builder,,2026.1.3,59.927930671640574,2026-04-13 14h32.00.255294 +0200,
12.5,ecc0,mid,50,0,50,j,0,1.4263571000010415,None,0,1,1,1,50,0,50,0,320.3402724999978,,,,,,,,,,,,,,,320.3277921000008,320.3402724999978,321.23357739999847,320.3402724999978,320.3402724999978,321.76710829999865,j,0,1.4263571000010415,None,left,16,"[18, 19, 18, 20, 19, 20, 19, 20, 19, 20, 16, 17, 15, 16, 15, 16, 12, 13, 10, 11, 10, 11, 9, 11, 10, 14, 13, 14, 13]",29,gaze_L_16.png,j,0,2,results9,001,2026-04-13_14h31.59.921,mogelijke versie adaptive staircase builder,,2026.1.3,59.927930671640574,2026-04-13 14h32.00.255294 +0200,
12.5,ecc0,mid,51,0,51,f,1,1.2282991000029142,None,0,1,1,1,51,0,51,0,321.8662781999992,,,,,,,,,,,,,,,321.854877400001,321.8662781999992,322.7669203000005,321.8662781999992,321.8662781999992,323.10044859999834,f,1,1.2282991000029142,None,left,17,"[18, 19, 18, 20, 19, 20, 19, 20, 19, 20, 16, 17, 15, 16, 15, 16, 12, 13, 10, 11, 10, 11, 9, 11, 10, 14, 13, 14, 13, 17]",30,gaze_L_17.png,f,1,2,results9,001,2026-04-13_14h31.59.921,mogelijke versie adaptive staircase builder,,2026.1.3,59.927930671640574,2026-04-13 14h32.00.255294 +0200,
12.5,ecc0,mid,52,0,52,f,0,1.7218773000022338,None,0,1,1,1,52,0,52,0,323.1967135999985,,,,,,,,,,,,,,,323.1857482999985,323.1967135999985,324.10021530000085,323.1967135999985,323.1967135999985,324.9337806000003,f,0,1.7218773000022338,None,direct,16,"[18, 19, 18, 20, 19, 20, 19, 20, 19, 20, 16, 17, 15, 16, 15, 16, 12, 13, 10, 11, 10, 11, 9, 11, 10, 14, 13, 14, 13, 17, 16]",31,direct_gaze.png,f,0,2,results9,001,2026-04-13_14h31.59.921,mogelijke versie adaptive staircase builder,,2026.1.3,59.927930671640574,2026-04-13 14h32.00.255294 +0200,
12.5,ecc0,mid,53,0,53,f,1,1.6306068000012601,None,0,1,1,1,53,0,53,0,325.03203790000043,,,,,,,,,,,,,,,325.020627599999,325.03203790000043,325.9336070999998,325.03203790000043,325.03203790000043,326.6671181999991,f,1,1.6306068000012601,None,left,17,"[18, 19, 18, 20, 19, 20, 19, 20, 19, 20, 16, 17, 15, 16, 15, 16, 12, 13, 10, 11, 10, 11, 9, 11, 10, 14, 13, 14, 13, 17, 16, 17]",32,gaze_L_17.png,f,1,2,results9,001,2026-04-13_14h31.59.921,mogelijke versie adaptive staircase builder,,2026.1.3,59.927930671640574,2026-04-13 14h32.00.255294 +0200,
12.5,ecc0,mid,54,0,54,f,0,1.6613242999992508,None,0,1,1,1,54,0,54,0,326.76415070000076,,,,,,,,,,,,,,,326.7540468999978,326.76415070000076,327.66671810000116,326.76415070000076,326.76415070000076,328.4336927000004,f,0,1.6613242999992508,None,direct,16,"[18, 19, 18, 20, 19, 20, 19, 20, 19, 20, 16, 17, 15, 16, 15, 16, 12, 13, 10, 11, 10, 11, 9, 11, 10, 14, 13, 14, 13, 17, 16, 17, 16]",33,direct_gaze.png,f,0,2,results9,001,2026-04-13_14h31.59.921,mogelijke versie adaptive staircase builder,,2026.1.3,59.927930671640574,2026-04-13 14h32.00.255294 +0200,
12.5,ecc0,mid,55,0,55,j,0,1.4817672000026505,None,0,1,1,1,55,0,55,0,328.53294129999995,,,,,,,,,,,,,,,328.522071899999,328.53294129999995,329.4333430999977,328.53294129999995,328.53294129999995,330.01703799999814,j,0,1.4817672000026505,None,left,17,"[18, 19, 18, 20, 19, 20, 19, 20, 19, 20, 16, 17, 15, 16, 15, 16, 12, 13, 10, 11, 10, 11, 9, 11, 10, 14, 13, 14, 13, 17, 16, 17, 16]",33,gaze_L_17.png,j,0,2,results9,001,2026-04-13_14h31.59.921,mogelijke versie adaptive staircase builder,,2026.1.3,59.927930671640574,2026-04-13 14h32.00.255294 +0200,
12.5,ecc0,mid,56,0,56,f,0,1.4845974999989267,None,0,1,1,1,56,0,56,0,330.11409229999845,,,,,,,,,,,,,,,330.1037216000004,330.11409229999845,331.0166594000002,330.11409229999845,330.11409229999845,331.6003739999978,f,0,1.4845974999989267,None,direct,18,"[18, 19, 18, 20, 19, 20, 19, 20, 19, 20, 16, 17, 15, 16, 15, 16, 12, 13, 10, 11, 10, 11, 9, 11, 10, 14, 13, 14, 13, 17, 16, 17, 16]",33,direct_gaze.png,f,0,2,results9,001,2026-04-13_14h31.59.921,mogelijke versie adaptive staircase builder,,2026.1.3,59.927930671640574,2026-04-13 14h32.00.255294 +0200,
12.5,ecc0,mid,57,0,57,f,0,1.571999699997832,None,0,1,1,1,57,0,57,0,331.69869240000116,,,,,,,,,,,,,,,331.6878386999997,331.69869240000116,332.5999989000011,331.69869240000116,331.69869240000116,333.28373029999784,f,0,1.571999699997832,None,direct,19,"[18, 19, 18, 20, 19, 20, 19, 20, 19, 20, 16, 17, 15, 16, 15, 16, 12, 13, 10, 11, 10, 11, 9, 11, 10, 14, 13, 14, 13, 17, 16, 17, 16]",33,direct_gaze.png,f,0,2,results9,001,2026-04-13_14h31.59.921,mogelijke versie adaptive staircase builder,,2026.1.3,59.927930671640574,2026-04-13 14h32.00.255294 +0200,
12.5,ecc0,mid,58,0,58,j,0,1.559545900003286,None,0,1,1,1,58,0,58,0,333.3910199999991,,,,,,,,,,,,,,,333.3798827999999,333.3910199999991,334.2835066000007,333.3910199999991,333.3910199999991,334.96700820000115,j,0,1.559545900003286,None,left,20,"[18, 19, 18, 20, 19, 20, 19, 20, 19, 20, 16, 17, 15, 16, 15, 16, 12, 13, 10, 11, 10, 11, 9, 11, 10, 14, 13, 14, 13, 17, 16, 17, 16]",33,gaze_L_20.png,j,0,2,results9,001,2026-04-13_14h31.59.921,mogelijke versie adaptive staircase builder,,2026.1.3,59.927930671640574,2026-04-13 14h32.00.255294 +0200,
12.5,ecc0,mid,59,0,59,f,1,1.1515390999993542,None,0,1,1,1,59,0,59,0,335.06307789999846,,,,,,,,,,,,,,,335.05289189999894,335.06307789999846,335.96665199999916,335.06307789999846,335.06307789999846,336.21686860000045,f,1,1.1515390999993542,None,left,20,"[18, 19, 18, 20, 19, 20, 19, 20, 19, 20, 16, 17, 15, 16, 15, 16, 12, 13, 10, 11, 10, 11, 9, 11, 10, 14, 13, 14, 13, 17, 16, 17, 16, 20]",34,gaze_L_20.png,f,1,2,results9,001,2026-04-13_14h31.59.921,mogelijke versie adaptive staircase builder,,2026.1.3,59.927930671640574,2026-04-13 14h32.00.255294 +0200,
12.5,ecc0,mid,1,1,0,,,,,0,1,1,1,,,,,,,,,,,,,,,,,,,,,,,,,,,,,,,,,,,,,,results9,001,2026-04-13_14h31.59.921,mogelijke versie adaptive staircase builder,,2026.1.3,59.927930671640574,2026-04-13 14h32.00.255294 +0200,
20.5,ecc10neg,right,0,0,0,f,1,3.513034900002822,None,0,2,2,2,0,0,0,0,336.341666100001,,,,,,,,,,,,,336.2193025999986,336.2193355999989,336.3296098999999,336.341666100001,336.341666100001,337.233186999998,336.341666100001,339.8669626999981,f,1,3.513034900002822,None,right,20,[],0,shiftedgaze_R_20.png,f,1,3,results9,001,2026-04-13_14h31.59.921,mogelijke versie adaptive staircase builder,,2026.1.3,59.927930671640574,2026-04-13 14h32.00.255294 +0200,
20.5,ecc10neg,right,1,0,1,f,1,1.8282581999992544,None,0,2,2,2,1,0,1,0,339.9864716000011,,,,,,,,,,,,,,,339.97509549999813,339.9864716000011,339.9864716000011,340.8665460000011,339.9864716000011,341.8169263999989,f,1,1.8282581999992544,None,left,19,[],0,shiftedgaze_L_19.png,f,1,3,results9,001,2026-04-13_14h31.59.921,mogelijke versie adaptive staircase builder,,2026.1.3,59.927930671640574,2026-04-13 14h32.00.255294 +0200,
20.5,ecc10neg,right,2,0,2,f,0,1.4954274000010628,None,0,2,2,2,2,0,2,0,341.9135224999991,,,,,,,,,,,,,,,341.90321539999786,341.9135224999991,341.9135224999991,342.81653839999854,341.9135224999991,343.4169421999977,f,0,1.4954274000010628,None,direct,18,[18],1,shifteddirectgaze.png,f,0,3,results9,001,2026-04-13_14h31.59.921,mogelijke versie adaptive staircase builder,,2026.1.3,59.927930671640574,2026-04-13 14h32.00.255294 +0200,
20.5,ecc10neg,right,3,0,3,f,0,1.4432851000019582,None,0,2,2,2,3,0,3,0,343.5155917000011,,,,,,,,,,,,,,,343.5050009999977,343.5155917000011,343.5155917000011,344.41668690000006,343.5155917000011,344.9668296999989,f,0,1.4432851000019582,None,direct,19,[18],1,shifteddirectgaze.png,f,0,3,results9,001,2026-04-13_14h31.59.921,mogelijke versie adaptive staircase builder,,2026.1.3,59.927930671640574,2026-04-13 14h32.00.255294 +0200,
20.5,ecc10neg,right,4,0,4,f,1,1.3503134999991744,None,0,2,2,2,4,0,4,0,345.0642941999977,,,,,,,,,,,,,,,345.05299639999794,345.0642941999977,345.0642941999977,345.96653159999914,345.0642941999977,346.4166684999982,f,1,1.3503134999991744,None,left,20,"[18, 20]",2,shiftedgaze_L_20.png,f,1,3,results9,001,2026-04-13_14h31.59.921,mogelijke versie adaptive staircase builder,,2026.1.3,59.927930671640574,2026-04-13 14h32.00.255294 +0200,
20.5,ecc10neg,right,5,0,5,f,1,1.354297799996857,None,0,2,2,2,5,0,5,0,346.54038899999796,,,,,,,,,,,,,,,346.52865139999994,346.54038899999796,346.54038899999796,347.41657049999776,346.54038899999796,347.9002905999987,f,1,1.354297799996857,None,right,19,"[18, 20]",2,shiftedgaze_R_19.png,f,1,3,results9,001,2026-04-13_14h31.59.921,mogelijke versie adaptive staircase builder,,2026.1.3,59.927930671640574,2026-04-13 14h32.00.255294 +0200,
20.5,ecc10neg,right,6,0,6,f,1,1.323103099999571,None,0,2,2,2,6,0,6,0,348.00365930000044,,,,,,,,,,,,,,,347.9929759999977,348.00365930000044,348.00365930000044,348.9001282999998,348.00365930000044,349.3336505999978,f,1,1.323103099999571,None,right,18,"[18, 20]",2,shiftedgaze_R_18.png,f,1,3,results9,001,2026-04-13_14h31.59.921,mogelijke versie adaptive staircase builder,,2026.1.3,59.927930671640574,2026-04-13 14h32.00.255294 +0200,
20.5,ecc10neg,right,7,0,7,f,1,1.7474943000015628,None,0,2,2,2,7,0,7,0,349.45139689999996,,,,,,,,,,,,,,,349.44034819999797,349.45139689999996,349.45139689999996,350.33322659999976,349.45139689999996,351.2002528000012,f,1,1.7474943000015628,None,left,17,"[18, 20]",2,shiftedgaze_L_17.png,f,1,3,results9,001,2026-04-13_14h31.59.921,mogelijke versie adaptive staircase builder,,2026.1.3,59.927930671640574,2026-04-13 14h32.00.255294 +0200,
20.5,ecc10neg,right,8,0,8,f,0,1.526391199997306,None,0,2,2,2,8,0,8,0,351.2988402999981,,,,,,,,,,,,,,,351.2882122999981,351.2988402999981,351.2988402999981,352.19989219999843,351.2988402999981,352.8333277999991,f,0,1.526391199997306,None,direct,16,"[18, 20, 16]",3,shifteddirectgaze.png,f,0,3,results9,001,2026-04-13_14h31.59.921,mogelijke versie adaptive staircase builder,,2026.1.3,59.927930671640574,2026-04-13 14h32.00.255294 +0200,
20.5,ecc10neg,right,9,0,9,f,0,1.4757005000028585,None,0,2,2,2,9,0,9,0,352.9329328999993,,,,,,,,,,,,,,,352.9217628999977,352.9329328999993,352.9329328999993,353.8329666999998,352.9329328999993,354.4166562999999,f,0,1.4757005000028585,None,direct,17,"[18, 20, 16]",3,shifteddirectgaze.png,f,0,3,results9,001,2026-04-13_14h31.59.921,mogelijke versie adaptive staircase builder,,2026.1.3,59.927930671640574,2026-04-13 14h32.00.255294 +0200,
20.5,ecc10neg,right,10,0,10,f,1,1.2337797000000137,None,0,2,2,2,10,0,10,0,354.54134630000044,,,,,,,,,,,,,,,354.5295331999987,354.54134630000044,354.54134630000044,355.4164611999986,354.54134630000044,355.7834339000001,f,1,1.2337797000000137,None,right,18,"[18, 20, 16, 18]",4,shiftedgaze_R_18.png,f,1,3,results9,001,2026-04-13_14h31.59.921,mogelijke versie adaptive staircase builder,,2026.1.3,59.927930671640574,2026-04-13 14h32.00.255294 +0200,
20.5,ecc10neg,right,11,0,11,f,0,1.3594198000027973,None,0,2,2,2,11,0,11,0,355.9032269999989,,,,,,,,,,,,,,,355.8919347999981,355.9032269999989,355.9032269999989,356.78320449999956,355.9032269999989,357.26676750000115,f,0,1.3594198000027973,None,direct,17,"[18, 20, 16, 18, 17]",5,shifteddirectgaze.png,f,0,3,results9,001,2026-04-13_14h31.59.921,mogelijke versie adaptive staircase builder,,2026.1.3,59.927930671640574,2026-04-13 14h32.00.255294 +0200,
20.5,ecc10neg,right,12,0,12,f,0,1.2969081000010192,None,0,2,2,2,12,0,12,0,357.36577269999907,,,,,,,,,,,,,,,357.35414630000014,357.36577269999907,357.36577269999907,358.26656730000104,357.36577269999907,358.6666531999981,f,0,1.2969081000010192,None,direct,18,"[18, 20, 16, 18, 17]",5,shifteddirectgaze.png,f,0,3,results9,001,2026-04-13_14h31.59.921,mogelijke versie adaptive staircase builder,,2026.1.3,59.927930671640574,2026-04-13 14h32.00.255294 +0200,
20.5,ecc10neg,right,13,0,13,f,1,1.247297999998409,None,0,2,2,2,13,0,13,0,358.7913062000007,,,,,,,,,,,,,,,358.7799214000006,358.7913062000007,358.7913062000007,359.66642149999825,358.7913062000007,360.04999469999893,f,1,1.247297999998409,None,right,19,"[18, 20, 16, 18, 17, 19]",6,shiftedgaze_R_19.png,f,1,3,results9,001,2026-04-13_14h31.59.921,mogelijke versie adaptive staircase builder,,2026.1.3,59.927930671640574,2026-04-13 14h32.00.255294 +0200,
20.5,ecc10neg,right,14,0,14,j,0,1.4045102999989467,None,0,2,2,2,14,0,14,0,360.1707427000001,,,,,,,,,,,,,,,360.15962450000006,360.1707427000001,360.1707427000001,361.0495869999977,360.1707427000001,361.5832077999985,j,0,1.4045102999989467,None,left,18,"[18, 20, 16, 18, 17, 19, 18]",7,shiftedgaze_L_18.png,j,0,3,results9,001,2026-04-13_14h31.59.921,mogelijke versie adaptive staircase builder,,2026.1.3,59.927930671640574,2026-04-13 14h32.00.255294 +0200,
20.5,ecc10neg,right,15,0,15,f,1,1.5019011999975191,None,0,2,2,2,15,0,15,0,361.7065956000006,,,,,,,,,,,,,,,361.6950708000004,361.7065956000006,361.7065956000006,362.58284880000065,361.7065956000006,363.2164135999992,f,1,1.5019011999975191,None,right,19,"[18, 20, 16, 18, 17, 19, 18, 19]",8,shiftedgaze_R_19.png,f,1,3,results9,001,2026-04-13_14h31.59.921,mogelijke versie adaptive staircase builder,,2026.1.3,59.927930671640574,2026-04-13 14h32.00.255294 +0200,
20.5,ecc10neg,right,16,0,16,f,1,1.4586216999996395,None,0,2,2,2,16,0,16,0,363.3240712000006,,,,,,,,,,,,,,,363.31267939999816,363.3240712000006,363.3240712000006,364.216190799998,363.3240712000006,364.7834839999996,f,1,1.4586216999996395,None,right,18,"[18, 20, 16, 18, 17, 19, 18, 19]",8,shiftedgaze_R_18.png,f,1,3,results9,001,2026-04-13_14h31.59.921,mogelijke versie adaptive staircase builder,,2026.1.3,59.927930671640574,2026-04-13 14h32.00.255294 +0200,
20.5,ecc10neg,right,17,0,17,f,1,1.195791800000734,None,0,2,2,2,17,0,17,0,364.9067928000004,,,,,,,,,,,,,,,364.89644709999993,364.9067928000004,364.9067928000004,365.7830556000008,364.9067928000004,366.1164420999994,f,1,1.195791800000734,None,left,17,"[18, 20, 16, 18, 17, 19, 18, 19]",8,shiftedgaze_L_17.png,f,1,3,results9,001,2026-04-13_14h31.59.921,mogelijke versie adaptive staircase builder,,2026.1.3,59.927930671640574,2026-04-13 14h32.00.255294 +0200,
20.5,ecc10neg,right,18,0,18,j,0,1.4297809000017878,None,0,2,2,2,18,0,18,0,366.2168390000006,,,,,,,,,,,,,,,366.20558529999835,366.2168390000006,366.2168390000006,367.1162414999999,366.2168390000006,367.6498193000007,j,0,1.4297809000017878,None,left,16,"[18, 20, 16, 18, 17, 19, 18, 19, 16]",9,shiftedgaze_L_16.png,j,0,3,results9,001,2026-04-13_14h31.59.921,mogelijke versie adaptive staircase builder,,2026.1.3,59.927930671640574,2026-04-13 14h32.00.255294 +0200,
20.5,ecc10neg,right,19,0,19,j,0,1.235042300002533,None,0,2,2,2,19,0,19,0,367.74763259999963,,,,,,,,,,,,,,,367.7376586999999,367.74763259999963,367.74763259999963,368.64943330000096,367.74763259999963,368.9833620999998,j,0,1.235042300002533,None,left,17,"[18, 20, 16, 18, 17, 19, 18, 19, 16]",9,shiftedgaze_L_17.png,j,0,3,results9,001,2026-04-13_14h31.59.921,mogelijke versie adaptive staircase builder,,2026.1.3,59.927930671640574,2026-04-13 14h32.00.255294 +0200,
20.5,ecc10neg,right,20,0,20,j,1,1.5812511000003724,None,0,2,2,2,20,0,20,0,369.08132320000004,,,,,,,,,,,,,,,369.07081670000116,369.08132320000004,369.08132320000004,369.98276260000057,369.08132320000004,370.6665200999996,j,1,1.5812511000003724,None,direct,18,"[18, 20, 16, 18, 17, 19, 18, 19, 16, 18]",10,shifteddirectgaze.png,j,1,3,results9,001,2026-04-13_14h31.59.921,mogelijke versie adaptive staircase builder,,2026.1.3,59.927930671640574,2026-04-13 14h32.00.255294 +0200,
20.5,ecc10neg,right,21,0,21,f,1,1.314418799996929,None,0,2,2,2,21,0,21,0,371.58023219999814,,,,,,,,,,,,,,,371.5687195999999,371.58023219999814,371.58023219999814,371.66627230000086,371.58023219999814,372.89974549999897,f,1,1.314418799996929,None,right,17,"[18, 20, 16, 18, 17, 19, 18, 19, 16, 18]",10,shiftedgaze_R_17.png,f,1,3,results9,001,2026-04-13_14h31.59.921,mogelijke versie adaptive staircase builder,,2026.1.3,59.927930671640574,2026-04-13 14h32.00.255294 +0200,
20.5,ecc10neg,right,22,0,22,f,0,1.6047356999988551,None,0,2,2,2,22,0,22,0,373.0189215999999,,,,,,,,,,,,,,,373.00797969999985,373.0189215999999,373.0189215999999,373.89950119999776,373.0189215999999,374.6331528999981,f,0,1.6047356999988551,None,direct,16,"[18, 20, 16, 18, 17, 19, 18, 19, 16, 18, 16]",11,shifteddirectgaze.png,f,0,3,results9,001,2026-04-13_14h31.59.921,mogelijke versie adaptive staircase builder,,2026.1.3,59.927930671640574,2026-04-13 14h32.00.255294 +0200,
20.5,ecc10neg,right,23,0,23,f,0,1.426763999999821,None,0,2,2,2,23,0,23,0,374.73189099999945,,,,,,,,,,,,,,,374.7213085000003,374.73189099999945,374.73189099999945,375.6329373000008,374.73189099999945,376.1663757999995,f,0,1.426763999999821,None,direct,17,"[18, 20, 16, 18, 17, 19, 18, 19, 16, 18, 16]",11,shifteddirectgaze.png,f,0,3,results9,001,2026-04-13_14h31.59.921,mogelijke versie adaptive staircase builder,,2026.1.3,59.927930671640574,2026-04-13 14h32.00.255294 +0200,
20.5,ecc10neg,right,24,0,24,f,1,1.233726900001784,None,0,2,2,2,24,0,24,0,376.2928439999996,,,,,,,,,,,,,,,376.2813834000008,376.2928439999996,376.2928439999996,377.16627829999925,376.2928439999996,377.53308209999886,f,1,1.233726900001784,None,right,18,"[18, 20, 16, 18, 17, 19, 18, 19, 16, 18, 16, 18]",12,shiftedgaze_R_18.png,f,1,3,results9,001,2026-04-13_14h31.59.921,mogelijke versie adaptive staircase builder,,2026.1.3,59.927930671640574,2026-04-13 14h32.00.255294 +0200,
20.5,ecc10neg,right,25,0,25,f,1,1.2870075999999244,None,0,2,2,2,25,0,25,0,377.63956979999784,,,,,,,,,,,,,,,377.62784889999966,377.63956979999784,377.63956979999784,378.5326012000005,377.63956979999784,378.9331194999977,f,1,1.2870075999999244,None,right,17,"[18, 20, 16, 18, 17, 19, 18, 19, 16, 18, 16, 18]",12,shiftedgaze_R_17.png,f,1,3,results9,001,2026-04-13_14h31.59.921,mogelijke versie adaptive staircase builder,,2026.1.3,59.927930671640574,2026-04-13 14h32.00.255294 +0200,
20.5,ecc10neg,right,26,0,26,f,1,1.521153099998628,None,0,2,2,2,26,0,26,0,379.0374106999989,,,,,,,,,,,,,,,379.02586099999826,379.0374106999989,379.0374106999989,379.93284819999826,379.0374106999989,380.56627389999994,f,1,1.521153099998628,None,right,16,"[18, 20, 16, 18, 17, 19, 18, 19, 16, 18, 16, 18]",12,shiftedgaze_R_16.png,f,1,3,results9,001,2026-04-13_14h31.59.921,mogelijke versie adaptive staircase builder,,2026.1.3,59.927930671640574,2026-04-13 14h32.00.255294 +0200,
20.5,ecc10neg,right,27,0,27,f,1,1.215444400000706,None,0,2,2,2,27,0,27,0,380.68713489999936,,,,,,,,,,,,,,,380.6766740999992,380.68713489999936,380.68713489999936,381.5661865000002,380.68713489999936,381.91638840000087,f,1,1.215444400000706,None,left,15,"[18, 20, 16, 18, 17, 19, 18, 19, 16, 18, 16, 18]",12,shiftedgaze_L_15.png,f,1,3,results9,001,2026-04-13_14h31.59.921,mogelijke versie adaptive staircase builder,,2026.1.3,59.927930671640574,2026-04-13 14h32.00.255294 +0200,
20.5,ecc10neg,right,28,0,28,f,0,1.5356159000002663,None,0,2,2,2,28,0,28,0,382.0150044000002,,,,,,,,,,,,,,,382.0036618999984,382.0150044000002,382.0150044000002,382.9161846999996,382.0150044000002,383.56642419999844,f,0,1.5356159000002663,None,direct,14,"[18, 20, 16, 18, 17, 19, 18, 19, 16, 18, 16, 18, 14]",13,shifteddirectgaze.png,f,0,3,results9,001,2026-04-13_14h31.59.921,mogelijke versie adaptive staircase builder,,2026.1.3,59.927930671640574,2026-04-13 14h32.00.255294 +0200,
20.5,ecc10neg,right,29,0,29,f,1,1.3084603999996034,None,0,2,2,2,29,0,29,0,383.66614499999923,,,,,,,,,,,,,,,383.6561030999983,383.66614499999923,383.66614499999923,384.56582309999794,383.66614499999923,384.98294890000034,f,1,1.3084603999996034,None,right,15,"[18, 20, 16, 18, 17, 19, 18, 19, 16, 18, 16, 18, 14, 15]",14,shiftedgaze_R_15.png,f,1,3,results9,001,2026-04-13_14h31.59.921,mogelijke versie adaptive staircase builder,,2026.1.3,59.927930671640574,2026-04-13 14h32.00.255294 +0200,
20.5,ecc10neg,right,30,0,30,f,1,1.4122227000007115,None,0,2,2,2,30,0,30,0,385.09034079999765,,,,,,,,,,,,,,,385.079275600001,385.09034079999765,385.09034079999765,385.9827401000002,385.09034079999765,386.5162158999992,f,1,1.4122227000007115,None,right,14,"[18, 20, 16, 18, 17, 19, 18, 19, 16, 18, 16, 18, 14, 15]",14,shiftedgaze_R_14.png,f,1,3,results9,001,2026-04-13_14h31.59.921,mogelijke versie adaptive staircase builder,,2026.1.3,59.927930671640574,2026-04-13 14h32.00.255294 +0200,
20.5,ecc10neg,right,31,0,31,j,0,1.3510725000014645,None,0,2,2,2,31,0,31,0,386.6235467999977,,,,,,,,,,,,,,,386.61128499999904,386.6235467999977,386.6235467999977,387.5159258999993,386.6235467999977,387.9829546000001,j,0,1.3510725000014645,None,left,13,"[18, 20, 16, 18, 17, 19, 18, 19, 16, 18, 16, 18, 14, 15, 13]",15,shiftedgaze_L_13.png,j,0,3,results9,001,2026-04-13_14h31.59.921,mogelijke versie adaptive staircase builder,,2026.1.3,59.927930671640574,2026-04-13 14h32.00.255294 +0200,
20.5,ecc10neg,right,32,0,32,f,0,1.5109311000014713,None,0,2,2,2,32,0,32,0,388.08090639999864,,,,,,,,,,,,,,,388.0709261000011,388.08090639999864,388.08090639999864,388.98270499999853,388.08090639999864,389.59957249999934,f,0,1.5109311000014713,None,direct,14,"[18, 20, 16, 18, 17, 19, 18, 19, 16, 18, 16, 18, 14, 15, 13]",15,shifteddirectgaze.png,f,0,3,results9,001,2026-04-13_14h31.59.921,mogelijke versie adaptive staircase builder,,2026.1.3,59.927930671640574,2026-04-13 14h32.00.255294 +0200,
20.5,ecc10neg,right,33,0,33,f,1,1.5379369000002043,None,0,2,2,2,33,0,33,0,389.70091089999914,,,,,,,,,,,,,,,389.69042360000094,389.70091089999914,389.70091089999914,390.599199100001,389.70091089999914,391.24967449999895,f,1,1.5379369000002043,None,right,15,"[18, 20, 16, 18, 17, 19, 18, 19, 16, 18, 16, 18, 14, 15, 13, 15]",16,shiftedgaze_R_15.png,f,1,3,results9,001,2026-04-13_14h31.59.921,mogelijke versie adaptive staircase builder,,2026.1.3,59.927930671640574,2026-04-13 14h32.00.255294 +0200,
20.5,ecc10neg,right,34,0,34,f,0,1.4761756000007153,None,0,2,2,2,34,0,34,0,391.34875739999916,,,,,,,,,,,,,,,391.3383634999991,391.34875739999916,391.34875739999916,392.24932740000077,391.34875739999916,392.8329979000009,f,0,1.4761756000007153,None,direct,14,"[18, 20, 16, 18, 17, 19, 18, 19, 16, 18, 16, 18, 14, 15, 13, 15, 14]",17,shifteddirectgaze.png,f,0,3,results9,001,2026-04-13_14h31.59.921,mogelijke versie adaptive staircase builder,,2026.1.3,59.927930671640574,2026-04-13 14h32.00.255294 +0200,
20.5,ecc10neg,right,35,0,35,f,0,1.3477029999994556,None,0,2,2,2,35,0,35,0,392.93105339999966,,,,,,,,,,,,,,,392.9207129999995,392.93105339999966,392.93105339999966,393.83264549999876,392.93105339999966,394.28286339999977,f,0,1.3477029999994556,None,direct,15,"[18, 20, 16, 18, 17, 19, 18, 19, 16, 18, 16, 18, 14, 15, 13, 15, 14]",17,shifteddirectgaze.png,f,0,3,results9,001,2026-04-13_14h31.59.921,mogelijke versie adaptive staircase builder,,2026.1.3,59.927930671640574,2026-04-13 14h32.00.255294 +0200,
20.5,ecc10neg,right,36,0,36,f,0,1.3834977000005892,None,0,2,2,2,36,0,36,0,394.3831886000007,,,,,,,,,,,,,,,394.37240810000003,394.3831886000007,394.3831886000007,395.2825761999993,394.3831886000007,395.782841799999,f,0,1.3834977000005892,None,direct,16,"[18, 20, 16, 18, 17, 19, 18, 19, 16, 18, 16, 18, 14, 15, 13, 15, 14]",17,shifteddirectgaze.png,f,0,3,results9,001,2026-04-13_14h31.59.921,mogelijke versie adaptive staircase builder,,2026.1.3,59.927930671640574,2026-04-13 14h32.00.255294 +0200,
20.5,ecc10neg,right,37,0,37,j,0,1.3656216999988828,None,0,2,2,2,37,0,37,0,395.8810916000002,,,,,,,,,,,,,,,395.87059450000015,395.8810916000002,395.8810916000002,396.7826380000006,395.8810916000002,397.24947149999934,j,0,1.3656216999988828,None,left,17,"[18, 20, 16, 18, 17, 19, 18, 19, 16, 18, 16, 18, 14, 15, 13, 15, 14]",17,shiftedgaze_L_17.png,j,0,3,results9,001,2026-04-13_14h31.59.921,mogelijke versie adaptive staircase builder,,2026.1.3,59.927930671640574,2026-04-13 14h32.00.255294 +0200,
20.5,ecc10neg,right,38,0,38,f,0,1.6991902999980084,None,0,2,2,2,38,0,38,0,397.3475542999986,,,,,,,,,,,,,,,397.3365398999995,397.3475542999986,397.3475542999986,398.24925249999797,397.3475542999986,399.0495339000008,f,0,1.6991902999980084,None,direct,18,"[18, 20, 16, 18, 17, 19, 18, 19, 16, 18, 16, 18, 14, 15, 13, 15, 14]",17,shifteddirectgaze.png,f,0,3,results9,001,2026-04-13_14h31.59.921,mogelijke versie adaptive staircase builder,,2026.1.3,59.927930671640574,2026-04-13 14h32.00.255294 +0200,
20.5,ecc10neg,right,39,0,39,f,1,1.27758669999821,None,0,2,2,2,39,0,39,0,399.1770876999981,,,,,,,,,,,,,,,399.1658810000008,399.1770876999981,399.1770876999981,400.0492567000001,399.1770876999981,400.46603289999985,f,1,1.27758669999821,None,right,19,"[18, 20, 16, 18, 17, 19, 18, 19, 16, 18, 16, 18, 14, 15, 13, 15, 14, 19]",18,shiftedgaze_R_19.png,f,1,3,results9,001,2026-04-13_14h31.59.921,mogelijke versie adaptive staircase builder,,2026.1.3,59.927930671640574,2026-04-13 14h32.00.255294 +0200,
20.5,ecc10neg,right,40,0,40,f,1,1.2098671999992803,None,0,2,2,2,40,0,40,0,400.57289949999904,,,,,,,,,,,,,,,400.5623983000005,400.57289949999904,400.57289949999904,401.4658737999998,400.57289949999904,401.7994168000005,f,1,1.2098671999992803,None,right,18,"[18, 20, 16, 18, 17, 19, 18, 19, 16, 18, 16, 18, 14, 15, 13, 15, 14, 19]",18,shiftedgaze_R_18.png,f,1,3,results9,001,2026-04-13_14h31.59.921,mogelijke versie adaptive staircase builder,,2026.1.3,59.927930671640574,2026-04-13 14h32.00.255294 +0200,
20.5,ecc10neg,right,41,0,41,f,1,1.7493377999999211,None,0,2,2,2,41,0,41,0,401.9053512999999,,,,,,,,,,,,,,,401.8932719000004,401.9053512999999,401.9053512999999,402.7991860000002,401.9053512999999,403.6660364999989,f,1,1.7493377999999211,None,right,17,"[18, 20, 16, 18, 17, 19, 18, 19, 16, 18, 16, 18, 14, 15, 13, 15, 14, 19]",18,shiftedgaze_R_17.png,f,1,3,results9,001,2026-04-13_14h31.59.921,mogelijke versie adaptive staircase builder,,2026.1.3,59.927930671640574,2026-04-13 14h32.00.255294 +0200,
20.5,ecc10neg,right,42,0,42,f,1,1.237375600001542,None,0,2,2,2,42,0,42,0,403.7708777000007,,,,,,,,,,,,,,,403.7594160000008,403.7708777000007,403.7708777000007,404.6658037999987,403.7708777000007,405.01596190000055,f,1,1.237375600001542,None,right,16,"[18, 20, 16, 18, 17, 19, 18, 19, 16, 18, 16, 18, 14, 15, 13, 15, 14, 19]",18,shiftedgaze_R_16.png,f,1,3,results9,001,2026-04-13_14h31.59.921,mogelijke versie adaptive staircase builder,,2026.1.3,59.927930671640574,2026-04-13 14h32.00.255294 +0200,
20.5,ecc10neg,right,43,0,43,f,0,1.4015013999996881,None,0,2,2,2,43,0,43,0,405.1732712999983,,,,,,,,,,,,,,,405.12286210000093,405.1732712999983,405.1732712999983,406.0156483999999,405.1732712999983,406.5827662999982,f,0,1.4015013999996881,None,direct,15,"[18, 20, 16, 18, 17, 19, 18, 19, 16, 18, 16, 18, 14, 15, 13, 15, 14, 19, 15]",19,shifteddirectgaze.png,f,0,3,results9,001,2026-04-13_14h31.59.921,mogelijke versie adaptive staircase builder,,2026.1.3,59.927930671640574,2026-04-13 14h32.00.255294 +0200,
20.5,ecc10neg,right,44,0,44,f,1,1.266536699997232,None,0,2,2,2,44,0,44,0,406.6841499000002,,,,,,,,,,,,,,,406.67290420000063,406.6841499000002,406.6841499000002,407.58245109999916,406.6841499000002,407.9660268999978,f,1,1.266536699997232,None,left,16,"[18, 20, 16, 18, 17, 19, 18, 19, 16, 18, 16, 18, 14, 15, 13, 15, 14, 19, 15, 16]",20,shiftedgaze_L_16.png,f,1,3,results9,001,2026-04-13_14h31.59.921,mogelijke versie adaptive staircase builder,,2026.1.3,59.927930671640574,2026-04-13 14h32.00.255294 +0200,
20.5,ecc10neg,right,45,0,45,f,0,1.2648286000003282,None,0,2,2,2,45,0,45,0,408.0698174999998,,,,,,,,,,,,,,,408.0579777999992,408.0698174999998,408.0698174999998,408.96561219999785,408.0698174999998,409.3492985999983,f,0,1.2648286000003282,None,direct,15,"[18, 20, 16, 18, 17, 19, 18, 19, 16, 18, 16, 18, 14, 15, 13, 15, 14, 19, 15, 16, 15]",21,shifteddirectgaze.png,f,0,3,results9,001,2026-04-13_14h31.59.921,mogelijke versie adaptive staircase builder,,2026.1.3,59.927930671640574,2026-04-13 14h32.00.255294 +0200,
20.5,ecc10neg,right,46,0,46,f,1,1.3087649999979476,None,0,2,2,2,46,0,46,0,409.4740310999987,,,,,,,,,,,,,,,409.4619879999991,409.4740310999987,409.4740310999987,410.348976199999,409.4740310999987,410.7992912000009,f,1,1.3087649999979476,None,right,16,"[18, 20, 16, 18, 17, 19, 18, 19, 16, 18, 16, 18, 14, 15, 13, 15, 14, 19, 15, 16, 15, 16]",22,shiftedgaze_R_16.png,f,1,3,results9,001,2026-04-13_14h31.59.921,mogelijke versie adaptive staircase builder,,2026.1.3,59.927930671640574,2026-04-13 14h32.00.255294 +0200,
20.5,ecc10neg,right,47,0,47,f,0,1.3361681999995199,None,0,2,2,2,47,0,47,0,410.9185885000006,,,,,,,,,,,,,,,410.90807739999946,410.9185885000006,410.9185885000006,411.7988492000004,410.9185885000006,412.2659418000003,f,0,1.3361681999995199,None,direct,15,"[18, 20, 16, 18, 17, 19, 18, 19, 16, 18, 16, 18, 14, 15, 13, 15, 14, 19, 15, 16, 15, 16, 15]",23,shifteddirectgaze.png,f,0,3,results9,001,2026-04-13_14h31.59.921,mogelijke versie adaptive staircase builder,,2026.1.3,59.927930671640574,2026-04-13 14h32.00.255294 +0200,
20.5,ecc10neg,right,48,0,48,f,1,1.4252023999979428,None,0,2,2,2,48,0,48,0,412.38963579999836,,,,,,,,,,,,,,,412.3774854000003,412.38963579999836,412.38963579999836,413.26558619999923,412.38963579999836,413.8159554999984,f,1,1.4252023999979428,None,right,16,"[18, 20, 16, 18, 17, 19, 18, 19, 16, 18, 16, 18, 14, 15, 13, 15, 14, 19, 15, 16, 15, 16, 15, 16]",24,shiftedgaze_R_16.png,f,1,3,results9,001,2026-04-13_14h31.59.921,mogelijke versie adaptive staircase builder,,2026.1.3,59.927930671640574,2026-04-13 14h32.00.255294 +0200,
20.5,ecc10neg,right,49,0,49,f,0,1.280278599999292,None,0,2,2,2,49,0,49,0,413.9343415000003,,,,,,,,,,,,,,,413.92342199999985,413.9343415000003,413.9343415000003,414.81560080000054,413.9343415000003,415.2159084999985,f,0,1.280278599999292,None,direct,15,"[18, 20, 16, 18, 17, 19, 18, 19, 16, 18, 16, 18, 14, 15, 13, 15, 14, 19, 15, 16, 15, 16, 15, 16, 15]",25,shifteddirectgaze.png,f,0,3,results9,001,2026-04-13_14h31.59.921,mogelijke versie adaptive staircase builder,,2026.1.3,59.927930671640574,2026-04-13 14h32.00.255294 +0200,
20.5,ecc10neg,right,50,0,50,f,0,1.4112896000006003,None,0,2,2,2,50,0,50,0,415.31538759999967,,,,,,,,,,,,,,,415.3050411000004,415.31538759999967,415.31538759999967,416.2156912999999,415.31538759999967,416.7324387999979,f,0,1.4112896000006003,None,direct,16,"[18, 20, 16, 18, 17, 19, 18, 19, 16, 18, 16, 18, 14, 15, 13, 15, 14, 19, 15, 16, 15, 16, 15, 16, 15]",25,shifteddirectgaze.png,f,0,3,results9,001,2026-04-13_14h31.59.921,mogelijke versie adaptive staircase builder,,2026.1.3,59.927930671640574,2026-04-13 14h32.00.255294 +0200,
20.5,ecc10neg,right,51,0,51,f,1,1.3253672999999253,None,0,2,2,2,51,0,51,0,416.85724879999907,,,,,,,,,,,,,,,416.84592839999823,416.85724879999907,416.85724879999907,417.7320762999989,416.85724879999907,418.1991046000003,f,1,1.3253672999999253,None,right,17,"[18, 20, 16, 18, 17, 19, 18, 19, 16, 18, 16, 18, 14, 15, 13, 15, 14, 19, 15, 16, 15, 16, 15, 16, 15, 17]",26,shiftedgaze_R_17.png,f,1,3,results9,001,2026-04-13_14h31.59.921,mogelijke versie adaptive staircase builder,,2026.1.3,59.927930671640574,2026-04-13 14h32.00.255294 +0200,
20.5,ecc10neg,right,52,0,52,f,1,1.2876763999993273,None,0,2,2,2,52,0,52,0,418.30304129999786,,,,,,,,,,,,,,,418.2925131999982,418.30304129999786,418.30304129999786,419.1988523,418.30304129999786,419.59934689999864,f,1,1.2876763999993273,None,right,16,"[18, 20, 16, 18, 17, 19, 18, 19, 16, 18, 16, 18, 14, 15, 13, 15, 14, 19, 15, 16, 15, 16, 15, 16, 15, 17]",26,shiftedgaze_R_16.png,f,1,3,results9,001,2026-04-13_14h31.59.921,mogelijke versie adaptive staircase builder,,2026.1.3,59.927930671640574,2026-04-13 14h32.00.255294 +0200,
20.5,ecc10neg,right,53,0,53,f,1,1.4051546000009694,None,0,2,2,2,53,0,53,0,419.7214832999998,,,,,,,,,,,,,,,419.7102434999979,419.7214832999998,419.7214832999998,420.5987658999984,419.7214832999998,421.1325316000002,f,1,1.4051546000009694,None,right,15,"[18, 20, 16, 18, 17, 19, 18, 19, 16, 18, 16, 18, 14, 15, 13, 15, 14, 19, 15, 16, 15, 16, 15, 16, 15, 17]",26,shiftedgaze_R_15.png,f,1,3,results9,001,2026-04-13_14h31.59.921,mogelijke versie adaptive staircase builder,,2026.1.3,59.927930671640574,2026-04-13 14h32.00.255294 +0200,
20.5,ecc10neg,right,54,0,54,f,1,1.167052299999341,None,0,2,2,2,54,0,54,0,421.231603799999,,,,,,,,,,,,,,,421.22017069999856,421.231603799999,421.231603799999,422.1320061000006,421.231603799999,422.3991363999994,f,1,1.167052299999341,None,right,14,"[18, 20, 16, 18, 17, 19, 18, 19, 16, 18, 16, 18, 14, 15, 13, 15, 14, 19, 15, 16, 15, 16, 15, 16, 15, 17]",26,shiftedgaze_R_14.png,f,1,3,results9,001,2026-04-13_14h31.59.921,mogelijke versie adaptive staircase builder,,2026.1.3,59.927930671640574,2026-04-13 14h32.00.255294 +0200,
20.5,ecc10neg,right,55,0,55,f,1,1.180085500000132,None,0,2,2,2,55,0,55,0,422.50640679999924,,,,,,,,,,,,,,,422.49619679999887,422.50640679999924,422.50640679999924,423.3986468000003,422.50640679999924,423.6988760999993,f,1,1.180085500000132,None,right,13,"[18, 20, 16, 18, 17, 19, 18, 19, 16, 18, 16, 18, 14, 15, 13, 15, 14, 19, 15, 16, 15, 16, 15, 16, 15, 17]",26,shiftedgaze_R_13.png,f,1,3,results9,001,2026-04-13_14h31.59.921,mogelijke versie adaptive staircase builder,,2026.1.3,59.927930671640574,2026-04-13 14h32.00.255294 +0200,
20.5,ecc10neg,right,56,0,56,f,1,1.2645765000015672,None,0,2,2,2,56,0,56,0,423.80598649999956,,,,,,,,,,,,,,,423.79514389999895,423.80598649999956,423.80598649999956,424.6987129000008,423.80598649999956,425.08239409999806,f,1,1.2645765000015672,None,left,12,"[18, 20, 16, 18, 17, 19, 18, 19, 16, 18, 16, 18, 14, 15, 13, 15, 14, 19, 15, 16, 15, 16, 15, 16, 15, 17]",26,shiftedgaze_L_12.png,f,1,3,results9,001,2026-04-13_14h31.59.921,mogelijke versie adaptive staircase builder,,2026.1.3,59.927930671640574,2026-04-13 14h32.00.255294 +0200,
20.5,ecc10neg,right,57,0,57,f,1,1.462109000000055,None,0,2,2,2,57,0,57,0,425.193183899999,,,,,,,,,,,,,,,425.18234129999837,425.193183899999,425.193183899999,426.08205149999776,425.193183899999,426.66569959999833,f,1,1.462109000000055,None,right,11,"[18, 20, 16, 18, 17, 19, 18, 19, 16, 18, 16, 18, 14, 15, 13, 15, 14, 19, 15, 16, 15, 16, 15, 16, 15, 17]",26,shiftedgaze_R_11.png,f,1,3,results9,001,2026-04-13_14h31.59.921,mogelijke versie adaptive staircase builder,,2026.1.3,59.927930671640574,2026-04-13 14h32.00.255294 +0200,
20.5,ecc10neg,right,58,0,58,f,1,1.4590074000007007,None,0,2,2,2,58,0,58,0,426.77154950000113,,,,,,,,,,,,,,,426.76105109999844,426.77154950000113,426.77154950000113,427.66540370000075,426.77154950000113,428.2322787999983,f,1,1.4590074000007007,None,right,10,"[18, 20, 16, 18, 17, 19, 18, 19, 16, 18, 16, 18, 14, 15, 13, 15, 14, 19, 15, 16, 15, 16, 15, 16, 15, 17]",26,shiftedgaze_R_10.png,f,1,3,results9,001,2026-04-13_14h31.59.921,mogelijke versie adaptive staircase builder,,2026.1.3,59.927930671640574,2026-04-13 14h32.00.255294 +0200,
20.5,ecc10neg,right,59,0,59,f,1,1.3879463000012038,None,0,2,2,2,59,0,59,0,428.33859089999896,,,,,,,,,,,,,,,428.32669460000034,428.33859089999896,428.33859089999896,429.23211679999804,428.33859089999896,429.73223280000093,f,1,1.3879463000012038,None,right,9,"[18, 20, 16, 18, 17, 19, 18, 19, 16, 18, 16, 18, 14, 15, 13, 15, 14, 19, 15, 16, 15, 16, 15, 16, 15, 17]",26,shiftedgaze_R_9.png,f,1,3,results9,001,2026-04-13_14h31.59.921,mogelijke versie adaptive staircase builder,,2026.1.3,59.927930671640574,2026-04-13 14h32.00.255294 +0200,
20.5,ecc10neg,right,2,2,0,,,,,0,2,2,2,,,,,,,,,,,,,,,,,,,,,,,,,,,,,,,,,,,,,,results9,001,2026-04-13_14h31.59.921,mogelijke versie adaptive staircase builder,,2026.1.3,59.927930671640574,2026-04-13 14h32.00.255294 +0200,
