xPos,stimulusSet,whichImage,thisN,thisTrialN,thisRepN,key_resp.keys,key_resp.corr,key_resp.rt,key_resp.duration,blocks.thisRepN,blocks.thisTrialN,blocks.thisN,blocks.thisIndex,trials.thisRepN,trials.thisTrialN,trials.thisN,trials.thisIndex,thisRow.t,notes,piloting,intro.started,introinstructions.started,intro_key.started,demo_image_left.started,demo_image_middle.started,demo_image_right.started,intro.stopped,intro_key.keys,intro_key.rt,intro_key.duration,block_start.started,block_start.stopped,trial.started,key_resp.started,middle_image.started,right_image.started,left_image.started,trial.stopped,trials.key_resp.keys,trials.key_resp.corr,trials.key_resp.rt,trials.key_resp.duration,direction,angle,reversal_intensities,number_reversals,stimulus,response,correct,blockNumber,participant,session,date,expName,expVersion,psychopyVersion,frameRate,expStart,
,,,,,,,,,,,,,,,,,,,,False,0.05090150000069116,0.060950300001422875,0.060950300001422875,0.060950300001422875,0.060950300001422875,0.060950300001422875,102.17064960000062,space,101.94239000000016,0.1599313999995502,,,,,,,,,,,,,,,,,,,,,results6,001,2026-04-13_13h01.39.979,mogelijke versie adaptive staircase builder,,2026.1.3,60.01014171432663,2026-04-13 13h01.40.313576 +0200,
4.5,ecc10pos,left,0,0,0,f,0,7.778653999999733,None,0,0,0,0,0,0,0,0,102.49699750000036,,,,,,,,,,,,,102.3769267000007,102.37698020000062,102.48675760000151,102.49699750000036,102.49699750000036,102.49699750000036,103.38696620000155,110.28700040000149,f,0,7.778653999999733,None,direct,20,[],0,shifteddirectgaze.png,f,0,1,results6,001,2026-04-13_13h01.39.979,mogelijke versie adaptive staircase builder,,2026.1.3,60.01014171432663,2026-04-13 13h01.40.313576 +0200,
4.5,ecc10pos,left,1,0,1,f,1,2.9202987999997276,None,0,0,0,0,1,0,1,0,110.38701860000037,,,,,,,,,,,,,,,110.37645020000127,110.38701860000037,110.38701860000037,110.38701860000037,111.28672480000023,113.32011580000108,f,1,2.9202987999997276,None,right,20,[20],1,shiftedgaze_R_20.png,f,1,1,results6,001,2026-04-13_13h01.39.979,mogelijke versie adaptive staircase builder,,2026.1.3,60.01014171432663,2026-04-13 13h01.40.313576 +0200,
4.5,ecc10pos,left,2,0,2,f,1,7.8287144000005355,None,0,0,0,0,2,0,2,0,113.4386443000003,,,,,,,,,,,,,,,113.42939000000115,113.4386443000003,113.4386443000003,113.4386443000003,114.32017440000163,121.27024850000089,f,1,7.8287144000005355,None,right,19,[20],1,shiftedgaze_R_19.png,f,1,1,results6,001,2026-04-13_13h01.39.979,mogelijke versie adaptive staircase builder,,2026.1.3,60.01014171432663,2026-04-13 13h01.40.313576 +0200,
4.5,ecc10pos,left,3,0,3,f,1,4.1946884999997565,None,0,0,0,0,3,0,3,0,121.40060059999996,,,,,,,,,,,,,,,121.3895375000011,121.40060059999996,121.40060059999996,121.40060059999996,122.27000110000154,125.60340800000085,f,1,4.1946884999997565,None,left,18,[20],1,shiftedgaze_L_18.png,f,1,1,results6,001,2026-04-13_13h01.39.979,mogelijke versie adaptive staircase builder,,2026.1.3,60.01014171432663,2026-04-13 13h01.40.313576 +0200,
4.5,ecc10pos,left,4,0,4,f,1,3.5170016000010946,None,0,0,0,0,4,0,4,0,125.72626690000106,,,,,,,,,,,,,,,125.71469770000112,125.72626690000106,125.72626690000106,125.72626690000106,126.60329190000084,129.25364080000145,f,1,3.5170016000010946,None,right,17,[20],1,shiftedgaze_R_17.png,f,1,1,results6,001,2026-04-13_13h01.39.979,mogelijke versie adaptive staircase builder,,2026.1.3,60.01014171432663,2026-04-13 13h01.40.313576 +0200,
4.5,ecc10pos,left,5,0,5,j,1,4.465935199999876,None,0,0,0,0,5,0,5,0,129.3534634000007,,,,,,,,,,,,,,,129.34281080000073,129.3534634000007,129.3534634000007,129.3534634000007,130.25332790000175,133.82007280000107,j,1,4.465935199999876,None,direct,16,[20],1,shifteddirectgaze.png,j,1,1,results6,001,2026-04-13_13h01.39.979,mogelijke versie adaptive staircase builder,,2026.1.3,60.01014171432663,2026-04-13 13h01.40.313576 +0200,
4.5,ecc10pos,left,6,0,6,f,1,1.9857425999998668,None,0,0,0,0,6,0,6,0,133.92156500000056,,,,,,,,,,,,,,,133.91117490000033,133.92156500000056,133.92156500000056,133.92156500000056,134.8197454000001,135.92028520000167,f,1,1.9857425999998668,None,right,15,[20],1,shiftedgaze_R_15.png,f,1,1,results6,001,2026-04-13_13h01.39.979,mogelijke versie adaptive staircase builder,,2026.1.3,60.01014171432663,2026-04-13 13h01.40.313576 +0200,
4.5,ecc10pos,left,7,0,7,j,0,2.1505134999988513,None,0,0,0,0,7,0,7,0,136.0288913000004,,,,,,,,,,,,,,,136.01866850000079,136.0288913000004,136.0288913000004,136.0288913000004,136.91975530000127,138.18661900000006,j,0,2.1505134999988513,None,left,14,"[20, 14]",2,shiftedgaze_L_14.png,j,0,1,results6,001,2026-04-13_13h01.39.979,mogelijke versie adaptive staircase builder,,2026.1.3,60.01014171432663,2026-04-13 13h01.40.313576 +0200,
4.5,ecc10pos,left,8,0,8,j,0,1.6920816999991075,None,0,0,0,0,8,0,8,0,138.28721570000016,,,,,,,,,,,,,,,138.27640450000035,138.28721570000016,138.28721570000016,138.28721570000016,139.18634460000067,139.98659380000026,j,0,1.6920816999991075,None,right,15,"[20, 14]",2,shiftedgaze_R_15.png,j,0,1,results6,001,2026-04-13_13h01.39.979,mogelijke versie adaptive staircase builder,,2026.1.3,60.01014171432663,2026-04-13 13h01.40.313576 +0200,
4.5,ecc10pos,left,9,0,9,f,1,2.1247202000013203,None,0,0,0,0,9,0,9,0,140.08652540000003,,,,,,,,,,,,,,,140.07618980000007,140.08652540000003,140.08652540000003,140.08652540000003,140.9865017000011,142.21994350000023,f,1,2.1247202000013203,None,right,16,"[20, 14, 16]",3,shiftedgaze_R_16.png,f,1,1,results6,001,2026-04-13_13h01.39.979,mogelijke versie adaptive staircase builder,,2026.1.3,60.01014171432663,2026-04-13 13h01.40.313576 +0200,
4.5,ecc10pos,left,10,0,10,f,1,2.0661782000006497,None,0,0,0,0,10,0,10,0,142.32906540000113,,,,,,,,,,,,,,,142.32003560000157,142.32906540000113,142.32906540000113,142.32906540000113,143.21967250000125,144.40313420000166,f,1,2.0661782000006497,None,left,15,"[20, 14, 16]",3,shiftedgaze_L_15.png,f,1,1,results6,001,2026-04-13_13h01.39.979,mogelijke versie adaptive staircase builder,,2026.1.3,60.01014171432663,2026-04-13 13h01.40.313576 +0200,
4.5,ecc10pos,left,11,0,11,f,0,1.687532399999327,None,0,0,0,0,11,0,11,0,144.5157130000007,,,,,,,,,,,,,,,144.5054951000002,144.5157130000007,144.5157130000007,144.5157130000007,145.40297780000037,146.2198509000009,f,0,1.687532399999327,None,direct,14,"[20, 14, 16, 14]",4,shifteddirectgaze.png,f,0,1,results6,001,2026-04-13_13h01.39.979,mogelijke versie adaptive staircase builder,,2026.1.3,60.01014171432663,2026-04-13 13h01.40.313576 +0200,
4.5,ecc10pos,left,12,0,12,j,0,1.4111424000002444,None,0,0,0,0,12,0,12,0,146.32015630000024,,,,,,,,,,,,,,,146.30986610000036,146.32015630000024,146.32015630000024,146.32015630000024,147.21952370000145,147.73641680000037,j,0,1.4111424000002444,None,right,15,"[20, 14, 16, 14]",4,shiftedgaze_R_15.png,j,0,1,results6,001,2026-04-13_13h01.39.979,mogelijke versie adaptive staircase builder,,2026.1.3,60.01014171432663,2026-04-13 13h01.40.313576 +0200,
4.5,ecc10pos,left,13,0,13,j,1,1.5733456999987538,None,0,0,0,0,13,0,13,0,147.83791330000167,,,,,,,,,,,,,,,147.82681960000082,147.83791330000167,147.83791330000167,147.83791330000167,148.73628800000006,149.41995850000058,j,1,1.5733456999987538,None,direct,16,"[20, 14, 16, 14, 16]",5,shifteddirectgaze.png,j,1,1,results6,001,2026-04-13_13h01.39.979,mogelijke versie adaptive staircase builder,,2026.1.3,60.01014171432663,2026-04-13 13h01.40.313576 +0200,
4.5,ecc10pos,left,14,0,14,f,1,3.1926394999991317,None,0,0,0,0,14,0,14,0,149.53111780000108,,,,,,,,,,,,,,,149.52083210000092,149.53111780000108,149.53111780000108,149.53111780000108,150.41979170000013,152.73658420000174,f,1,3.1926394999991317,None,left,15,"[20, 14, 16, 14, 16]",5,shiftedgaze_L_15.png,f,1,1,results6,001,2026-04-13_13h01.39.979,mogelijke versie adaptive staircase builder,,2026.1.3,60.01014171432663,2026-04-13 13h01.40.313576 +0200,
4.5,ecc10pos,left,15,0,15,f,1,1.8515033000003314,None,0,0,0,0,15,0,15,0,152.84778590000133,,,,,,,,,,,,,,,152.83737180000026,152.84778590000133,152.84778590000133,152.84778590000133,153.7361017000003,154.70304639999995,f,1,1.8515033000003314,None,left,14,"[20, 14, 16, 14, 16]",5,shiftedgaze_L_14.png,f,1,1,results6,001,2026-04-13_13h01.39.979,mogelijke versie adaptive staircase builder,,2026.1.3,60.01014171432663,2026-04-13 13h01.40.313576 +0200,
4.5,ecc10pos,left,16,0,16,f,1,2.7776075000001583,None,0,0,0,0,16,0,16,0,154.80970650000017,,,,,,,,,,,,,,,154.79961900000126,154.80970650000017,154.80970650000017,154.80970650000017,155.70282990000123,157.6031739000009,f,1,2.7776075000001583,None,left,13,"[20, 14, 16, 14, 16]",5,shiftedgaze_L_13.png,f,1,1,results6,001,2026-04-13_13h01.39.979,mogelijke versie adaptive staircase builder,,2026.1.3,60.01014171432663,2026-04-13 13h01.40.313576 +0200,
4.5,ecc10pos,left,17,0,17,f,1,1.5401880999997957,None,0,0,0,0,17,0,17,0,157.70298900000125,,,,,,,,,,,,,,,157.69260490000124,157.70298900000125,157.70298900000125,157.70298900000125,158.60274460000073,159.25316050000038,f,1,1.5401880999997957,None,right,12,"[20, 14, 16, 14, 16]",5,shiftedgaze_R_12.png,f,1,1,results6,001,2026-04-13_13h01.39.979,mogelijke versie adaptive staircase builder,,2026.1.3,60.01014171432663,2026-04-13 13h01.40.313576 +0200,
4.5,ecc10pos,left,18,0,18,f,0,1.5611803000010696,None,0,0,0,0,18,0,18,0,159.92204550000133,,,,,,,,,,,,,,,159.91165300000102,159.92204550000133,159.92204550000133,159.92204550000133,160.8194448000013,161.4864146,f,0,1.5611803000010696,None,direct,11,"[20, 14, 16, 14, 16, 11]",6,shifteddirectgaze.png,f,0,1,results6,001,2026-04-13_13h01.39.979,mogelijke versie adaptive staircase builder,,2026.1.3,60.01014171432663,2026-04-13 13h01.40.313576 +0200,
4.5,ecc10pos,left,19,0,19,f,0,1.4887452999992092,None,0,0,0,0,19,0,19,0,161.59445570000025,,,,,,,,,,,,,,,161.58382240000174,161.59445570000025,161.59445570000025,161.59445570000025,162.48616160000165,163.08622950000063,f,0,1.4887452999992092,None,direct,12,"[20, 14, 16, 14, 16, 11]",6,shifteddirectgaze.png,f,0,1,results6,001,2026-04-13_13h01.39.979,mogelijke versie adaptive staircase builder,,2026.1.3,60.01014171432663,2026-04-13 13h01.40.313576 +0200,
4.5,ecc10pos,left,20,0,20,f,1,2.11255920000076,None,0,0,0,0,20,0,20,0,163.19492160000118,,,,,,,,,,,,,,,163.1843931000003,163.19492160000118,163.19492160000118,163.19492160000118,164.08600640000077,165.32000400000106,f,1,2.11255920000076,None,right,13,"[20, 14, 16, 14, 16, 11, 13]",7,shiftedgaze_R_13.png,f,1,1,results6,001,2026-04-13_13h01.39.979,mogelijke versie adaptive staircase builder,,2026.1.3,60.01014171432663,2026-04-13 13h01.40.313576 +0200,
4.5,ecc10pos,left,21,0,21,j,1,1.9356599000002461,None,0,0,0,0,21,0,21,0,165.41954110000006,,,,,,,,,,,,,,,165.40969290000066,165.41954110000006,165.41954110000006,165.41954110000006,166.3194448000013,167.36960820000058,j,1,1.9356599000002461,None,direct,12,"[20, 14, 16, 14, 16, 11, 13]",7,shifteddirectgaze.png,j,1,1,results6,001,2026-04-13_13h01.39.979,mogelijke versie adaptive staircase builder,,2026.1.3,60.01014171432663,2026-04-13 13h01.40.313576 +0200,
4.5,ecc10pos,left,22,0,22,j,1,3.366074200001094,None,0,0,0,0,22,0,22,0,167.46937550000075,,,,,,,,,,,,,,,167.45864390000133,167.46937550000075,167.46937550000075,167.46937550000075,168.3693329000016,170.8363274000003,j,1,3.366074200001094,None,direct,11,"[20, 14, 16, 14, 16, 11, 13]",7,shifteddirectgaze.png,j,1,1,results6,001,2026-04-13_13h01.39.979,mogelijke versie adaptive staircase builder,,2026.1.3,60.01014171432663,2026-04-13 13h01.40.313576 +0200,
4.5,ecc10pos,left,23,0,23,f,1,3.594164699999965,None,0,0,0,0,23,0,23,0,170.9450910000014,,,,,,,,,,,,,,,170.93399730000056,170.9450910000014,170.9450910000014,170.9450910000014,171.83590900000127,174.55279580000024,f,1,3.594164699999965,None,right,10,"[20, 14, 16, 14, 16, 11, 13]",7,shiftedgaze_R_10.png,f,1,1,results6,001,2026-04-13_13h01.39.979,mogelijke versie adaptive staircase builder,,2026.1.3,60.01014171432663,2026-04-13 13h01.40.313576 +0200,
4.5,ecc10pos,left,24,0,24,f,1,2.7725412999989203,None,0,0,0,0,24,0,24,0,174.66281900000104,,,,,,,,,,,,,,,174.65227589999995,174.66281900000104,174.66281900000104,174.66281900000104,175.5527071000015,177.43623170000137,f,1,2.7725412999989203,None,left,9,"[20, 14, 16, 14, 16, 11, 13]",7,shiftedgaze_L_9.png,f,1,1,results6,001,2026-04-13_13h01.39.979,mogelijke versie adaptive staircase builder,,2026.1.3,60.01014171432663,2026-04-13 13h01.40.313576 +0200,
4.5,ecc10pos,left,25,0,25,f,1,3.050495100000262,None,0,0,0,0,25,0,25,0,177.54488890000175,,,,,,,,,,,,,,,177.53427929999998,177.54488890000175,177.54488890000175,177.54488890000175,178.435998500001,180.60284910000155,f,1,3.050495100000262,None,left,8,"[20, 14, 16, 14, 16, 11, 13]",7,shiftedgaze_L_8.png,f,1,1,results6,001,2026-04-13_13h01.39.979,mogelijke versie adaptive staircase builder,,2026.1.3,60.01014171432663,2026-04-13 13h01.40.313576 +0200,
4.5,ecc10pos,left,26,0,26,j,0,2.4617323000002216,None,0,0,0,0,26,0,26,0,180.7095534,,,,,,,,,,,,,,,180.69913760000054,180.7095534,180.7095534,180.7095534,181.6026395000008,183.18596940000134,j,0,2.4617323000002216,None,right,7,"[20, 14, 16, 14, 16, 11, 13, 7]",8,shiftedgaze_R_7.png,j,0,1,results6,001,2026-04-13_13h01.39.979,mogelijke versie adaptive staircase builder,,2026.1.3,60.01014171432663,2026-04-13 13h01.40.313576 +0200,
4.5,ecc10pos,left,27,0,27,f,1,3.2148331999997026,None,0,0,0,0,27,0,27,0,183.28441730000122,,,,,,,,,,,,,,,183.27399310000146,183.28441730000122,183.28441730000122,183.28441730000122,184.18573880000076,186.5027736000011,f,1,3.2148331999997026,None,left,8,"[20, 14, 16, 14, 16, 11, 13, 7, 8]",9,shiftedgaze_L_8.png,f,1,1,results6,001,2026-04-13_13h01.39.979,mogelijke versie adaptive staircase builder,,2026.1.3,60.01014171432663,2026-04-13 13h01.40.313576 +0200,
4.5,ecc10pos,left,28,0,28,f,1,1.5211796999992657,None,0,0,0,0,28,0,28,0,186.61021040000014,,,,,,,,,,,,,,,186.59955410000111,186.61021040000014,186.61021040000014,186.61021040000014,187.50254000000132,188.13609780000115,f,1,1.5211796999992657,None,left,7,"[20, 14, 16, 14, 16, 11, 13, 7, 8]",9,shiftedgaze_L_7.png,f,1,1,results6,001,2026-04-13_13h01.39.979,mogelijke versie adaptive staircase builder,,2026.1.3,60.01014171432663,2026-04-13 13h01.40.313576 +0200,
4.5,ecc10pos,left,29,0,29,f,0,1.8554698999996617,None,0,0,0,0,29,0,29,0,188.23580420000144,,,,,,,,,,,,,,,188.22554780000064,188.23580420000144,188.23580420000144,188.23580420000144,189.13585050000074,190.10261600000013,f,0,1.8554698999996617,None,direct,6,"[20, 14, 16, 14, 16, 11, 13, 7, 8, 6]",10,shifteddirectgaze.png,f,0,1,results6,001,2026-04-13_13h01.39.979,mogelijke versie adaptive staircase builder,,2026.1.3,60.01014171432663,2026-04-13 13h01.40.313576 +0200,
4.5,ecc10pos,left,30,0,30,f,0,1.9298500000004424,None,0,0,0,0,30,0,30,0,190.2015822000012,,,,,,,,,,,,,,,190.190836400001,190.2015822000012,190.2015822000012,190.2015822000012,191.1022989000012,192.1361063000004,f,0,1.9298500000004424,None,direct,7,"[20, 14, 16, 14, 16, 11, 13, 7, 8, 6]",10,shifteddirectgaze.png,f,0,1,results6,001,2026-04-13_13h01.39.979,mogelijke versie adaptive staircase builder,,2026.1.3,60.01014171432663,2026-04-13 13h01.40.313576 +0200,
4.5,ecc10pos,left,31,0,31,j,0,4.199673999999504,None,0,0,0,0,31,0,31,0,192.23567990000083,,,,,,,,,,,,,,,192.2246541000004,192.23567990000083,192.23567990000083,192.23567990000083,193.13580770000044,196.43578920000073,j,0,4.199673999999504,None,left,8,"[20, 14, 16, 14, 16, 11, 13, 7, 8, 6]",10,shiftedgaze_L_8.png,j,0,1,results6,001,2026-04-13_13h01.39.979,mogelijke versie adaptive staircase builder,,2026.1.3,60.01014171432663,2026-04-13 13h01.40.313576 +0200,
4.5,ecc10pos,left,32,0,32,f,0,5.530421899999055,None,0,0,0,0,32,0,32,0,196.53691330000038,,,,,,,,,,,,,,,196.5262709000017,196.53691330000038,196.53691330000038,196.53691330000038,197.43574810000064,202.06908100000146,f,0,5.530421899999055,None,direct,9,"[20, 14, 16, 14, 16, 11, 13, 7, 8, 6]",10,shifteddirectgaze.png,f,0,1,results6,001,2026-04-13_13h01.39.979,mogelijke versie adaptive staircase builder,,2026.1.3,60.01014171432663,2026-04-13 13h01.40.313576 +0200,
4.5,ecc10pos,left,33,0,33,f,1,2.6984136999999464,None,0,0,0,0,33,0,33,0,202.16885950000142,,,,,,,,,,,,,,,202.1582459000001,202.16885950000142,202.16885950000142,202.16885950000142,203.06877690000147,204.86893840000084,f,1,2.6984136999999464,None,right,10,"[20, 14, 16, 14, 16, 11, 13, 7, 8, 6, 10]",11,shiftedgaze_R_10.png,f,1,1,results6,001,2026-04-13_13h01.39.979,mogelijke versie adaptive staircase builder,,2026.1.3,60.01014171432663,2026-04-13 13h01.40.313576 +0200,
4.5,ecc10pos,left,34,0,34,f,1,1.6642601999992621,None,0,0,0,0,34,0,34,0,204.97906720000174,,,,,,,,,,,,,,,204.96793660000003,204.97906720000174,204.97906720000174,204.97906720000174,205.86874390000048,206.65260650000164,f,1,1.6642601999992621,None,right,9,"[20, 14, 16, 14, 16, 11, 13, 7, 8, 6, 10]",11,shiftedgaze_R_9.png,f,1,1,results6,001,2026-04-13_13h01.39.979,mogelijke versie adaptive staircase builder,,2026.1.3,60.01014171432663,2026-04-13 13h01.40.313576 +0200,
4.5,ecc10pos,left,35,0,35,f,1,1.2890236000002915,None,0,0,0,0,35,0,35,0,206.75422120000076,,,,,,,,,,,,,,,206.74384110000028,206.75422120000076,206.75422120000076,206.75422120000076,207.6522954000011,208.05230610000035,f,1,1.2890236000002915,None,left,8,"[20, 14, 16, 14, 16, 11, 13, 7, 8, 6, 10]",11,shiftedgaze_L_8.png,f,1,1,results6,001,2026-04-13_13h01.39.979,mogelijke versie adaptive staircase builder,,2026.1.3,60.01014171432663,2026-04-13 13h01.40.313576 +0200,
4.5,ecc10pos,left,36,0,36,f,1,1.707358400000885,None,0,0,0,0,36,0,36,0,208.15262320000147,,,,,,,,,,,,,,,208.14208270000017,208.15262320000147,208.15262320000147,208.15262320000147,209.05210650000117,209.86894120000034,f,1,1.707358400000885,None,left,7,"[20, 14, 16, 14, 16, 11, 13, 7, 8, 6, 10]",11,shiftedgaze_L_7.png,f,1,1,results6,001,2026-04-13_13h01.39.979,mogelijke versie adaptive staircase builder,,2026.1.3,60.01014171432663,2026-04-13 13h01.40.313576 +0200,
4.5,ecc10pos,left,37,0,37,f,1,1.7051405000001978,None,0,0,0,0,37,0,37,0,209.97817990000112,,,,,,,,,,,,,,,209.96796990000075,209.97817990000112,209.97817990000112,209.97817990000112,210.86876620000112,211.6857738000017,f,1,1.7051405000001978,None,right,6,"[20, 14, 16, 14, 16, 11, 13, 7, 8, 6, 10]",11,shiftedgaze_R_6.png,f,1,1,results6,001,2026-04-13_13h01.39.979,mogelijke versie adaptive staircase builder,,2026.1.3,60.01014171432663,2026-04-13 13h01.40.313576 +0200,
4.5,ecc10pos,left,38,0,38,f,1,1.5987592000001314,None,0,0,0,0,38,0,38,0,211.79650390000097,,,,,,,,,,,,,,,211.78578320000088,211.79650390000097,211.79650390000097,211.79650390000097,212.68538190000072,213.40243080000073,f,1,1.5987592000001314,None,right,5,"[20, 14, 16, 14, 16, 11, 13, 7, 8, 6, 10]",11,shiftedgaze_R_5.png,f,1,1,results6,001,2026-04-13_13h01.39.979,mogelijke versie adaptive staircase builder,,2026.1.3,60.01014171432663,2026-04-13 13h01.40.313576 +0200,
4.5,ecc10pos,left,39,0,39,f,0,1.9159724000001006,None,0,0,0,0,39,0,39,0,213.50337950000176,,,,,,,,,,,,,,,213.49257380000017,213.50337950000176,213.50337950000176,213.50337950000176,214.40216800000053,215.4355342000017,f,0,1.9159724000001006,None,direct,4,"[20, 14, 16, 14, 16, 11, 13, 7, 8, 6, 10, 4]",12,shifteddirectgaze.png,f,0,1,results6,001,2026-04-13_13h01.39.979,mogelijke versie adaptive staircase builder,,2026.1.3,60.01014171432663,2026-04-13 13h01.40.313576 +0200,
4.5,ecc10pos,left,40,0,40,f,1,1.6582882000002428,None,0,0,0,0,40,0,40,0,215.54512530000102,,,,,,,,,,,,,,,215.5348576000015,215.54512530000102,215.54512530000102,215.54512530000102,216.43537990000004,217.21901120000075,f,1,1.6582882000002428,None,left,5,"[20, 14, 16, 14, 16, 11, 13, 7, 8, 6, 10, 4, 5]",13,shiftedgaze_L_5.png,f,1,1,results6,001,2026-04-13_13h01.39.979,mogelijke versie adaptive staircase builder,,2026.1.3,60.01014171432663,2026-04-13 13h01.40.313576 +0200,
4.5,ecc10pos,left,41,0,41,f,1,1.3879363000014564,None,0,0,0,0,41,0,41,0,217.32726309999998,,,,,,,,,,,,,,,217.31676010000047,217.32726309999998,217.32726309999998,217.32726309999998,218.21865590000016,218.7189072000001,f,1,1.3879363000014564,None,right,4,"[20, 14, 16, 14, 16, 11, 13, 7, 8, 6, 10, 4, 5]",13,shiftedgaze_R_4.png,f,1,1,results6,001,2026-04-13_13h01.39.979,mogelijke versie adaptive staircase builder,,2026.1.3,60.01014171432663,2026-04-13 13h01.40.313576 +0200,
4.5,ecc10pos,left,42,0,42,f,1,1.8246632999998837,None,0,0,0,0,42,0,42,0,218.82662520000122,,,,,,,,,,,,,,,218.81602170000042,218.82662520000122,218.82662520000122,218.82662520000122,219.71864820000155,220.6523902000008,f,1,1.8246632999998837,None,right,3,"[20, 14, 16, 14, 16, 11, 13, 7, 8, 6, 10, 4, 5]",13,shiftedgaze_R_3.png,f,1,1,results6,001,2026-04-13_13h01.39.979,mogelijke versie adaptive staircase builder,,2026.1.3,60.01014171432663,2026-04-13 13h01.40.313576 +0200,
4.5,ecc10pos,left,43,0,43,f,1,1.4930588000006537,None,0,0,0,0,43,0,43,0,220.75825570000052,,,,,,,,,,,,,,,220.7477617000004,220.75825570000052,220.75825570000052,220.75825570000052,221.6521027000017,222.25210790000165,f,1,1.4930588000006537,None,left,2,"[20, 14, 16, 14, 16, 11, 13, 7, 8, 6, 10, 4, 5]",13,shiftedgaze_L_2.png,f,1,1,results6,001,2026-04-13_13h01.39.979,mogelijke versie adaptive staircase builder,,2026.1.3,60.01014171432663,2026-04-13 13h01.40.313576 +0200,
4.5,ecc10pos,left,44,0,44,j,0,2.2002596000002086,None,0,0,0,0,44,0,44,0,222.36295830000017,,,,,,,,,,,,,,,222.3508479000011,222.36295830000017,222.36295830000017,222.36295830000017,223.25189820000014,224.5687891000016,j,0,2.2002596000002086,None,right,1,"[20, 14, 16, 14, 16, 11, 13, 7, 8, 6, 10, 4, 5, 1]",14,shiftedgaze_R_1.png,j,0,1,results6,001,2026-04-13_13h01.39.979,mogelijke versie adaptive staircase builder,,2026.1.3,60.01014171432663,2026-04-13 13h01.40.313576 +0200,
4.5,ecc10pos,left,45,0,45,f,0,1.4805727999992087,None,0,0,0,0,45,0,45,0,224.66671470000074,,,,,,,,,,,,,,,224.6565167000008,224.66671470000074,224.66671470000074,224.66671470000074,225.5686084000008,226.15246860000116,f,0,1.4805727999992087,None,direct,2,"[20, 14, 16, 14, 16, 11, 13, 7, 8, 6, 10, 4, 5, 1]",14,shifteddirectgaze.png,f,0,1,results6,001,2026-04-13_13h01.39.979,mogelijke versie adaptive staircase builder,,2026.1.3,60.01014171432663,2026-04-13 13h01.40.313576 +0200,
4.5,ecc10pos,left,46,0,46,f,1,1.2572815000003175,None,0,0,0,0,46,0,46,0,226.25010160000056,,,,,,,,,,,,,,,226.23971370000072,226.25010160000056,226.25010160000056,226.25010160000056,227.15202080000017,227.51898750000146,f,1,1.2572815000003175,None,right,3,"[20, 14, 16, 14, 16, 11, 13, 7, 8, 6, 10, 4, 5, 1, 3]",15,shiftedgaze_R_3.png,f,1,1,results6,001,2026-04-13_13h01.39.979,mogelijke versie adaptive staircase builder,,2026.1.3,60.01014171432663,2026-04-13 13h01.40.313576 +0200,
4.5,ecc10pos,left,47,0,47,f,0,1.398650400000406,None,0,0,0,0,47,0,47,0,227.6205774000009,,,,,,,,,,,,,,,227.60777990000133,227.6205774000009,227.6205774000009,227.6205774000009,228.51846990000013,229.03538050000134,f,0,1.398650400000406,None,direct,2,"[20, 14, 16, 14, 16, 11, 13, 7, 8, 6, 10, 4, 5, 1, 3, 2]",16,shifteddirectgaze.png,f,0,1,results6,001,2026-04-13_13h01.39.979,mogelijke versie adaptive staircase builder,,2026.1.3,60.01014171432663,2026-04-13 13h01.40.313576 +0200,
4.5,ecc10pos,left,48,0,48,f,0,1.2929284000001644,None,0,0,0,0,48,0,48,0,229.1343366000001,,,,,,,,,,,,,,,229.12442680000095,229.1343366000001,229.1343366000001,229.1343366000001,230.03530260000116,230.43545910000103,f,0,1.2929284000001644,None,direct,3,"[20, 14, 16, 14, 16, 11, 13, 7, 8, 6, 10, 4, 5, 1, 3, 2]",16,shifteddirectgaze.png,f,0,1,results6,001,2026-04-13_13h01.39.979,mogelijke versie adaptive staircase builder,,2026.1.3,60.01014171432663,2026-04-13 13h01.40.313576 +0200,
4.5,ecc10pos,left,49,0,49,f,1,1.2380833999995957,None,0,0,0,0,49,0,49,0,230.5332494000013,,,,,,,,,,,,,,,230.52259340000091,230.5332494000013,230.5332494000013,230.5332494000013,231.43527490000088,231.78537410000172,f,1,1.2380833999995957,None,right,4,"[20, 14, 16, 14, 16, 11, 13, 7, 8, 6, 10, 4, 5, 1, 3, 2, 4]",17,shiftedgaze_R_4.png,f,1,1,results6,001,2026-04-13_13h01.39.979,mogelijke versie adaptive staircase builder,,2026.1.3,60.01014171432663,2026-04-13 13h01.40.313576 +0200,
4.5,ecc10pos,left,50,0,50,f,0,1.452444499998819,None,0,0,0,0,50,0,50,0,231.88691830000062,,,,,,,,,,,,,,,231.8764211000016,231.88691830000062,231.88691830000062,231.88691830000062,232.7852479000012,233.3518761000014,f,0,1.452444499998819,None,direct,3,"[20, 14, 16, 14, 16, 11, 13, 7, 8, 6, 10, 4, 5, 1, 3, 2, 4, 3]",18,shifteddirectgaze.png,f,0,1,results6,001,2026-04-13_13h01.39.979,mogelijke versie adaptive staircase builder,,2026.1.3,60.01014171432663,2026-04-13 13h01.40.313576 +0200,
4.5,ecc10pos,left,51,0,51,f,1,1.254428199999893,None,0,0,0,0,51,0,51,0,233.4608455000016,,,,,,,,,,,,,,,233.4506444000017,233.4608455000016,233.4608455000016,233.4608455000016,234.35165330000018,234.71858210000028,f,1,1.254428199999893,None,left,4,"[20, 14, 16, 14, 16, 11, 13, 7, 8, 6, 10, 4, 5, 1, 3, 2, 4, 3, 4]",19,shiftedgaze_L_4.png,f,1,1,results6,001,2026-04-13_13h01.39.979,mogelijke versie adaptive staircase builder,,2026.1.3,60.01014171432663,2026-04-13 13h01.40.313576 +0200,
4.5,ecc10pos,left,52,0,52,f,1,1.3145886000002065,None,0,0,0,0,52,0,52,0,234.81677540000055,,,,,,,,,,,,,,,234.80610830000114,234.81677540000055,234.81677540000055,234.81677540000055,235.71855630000027,236.13554730000033,f,1,1.3145886000002065,None,right,3,"[20, 14, 16, 14, 16, 11, 13, 7, 8, 6, 10, 4, 5, 1, 3, 2, 4, 3, 4]",19,shiftedgaze_R_3.png,f,1,1,results6,001,2026-04-13_13h01.39.979,mogelijke versie adaptive staircase builder,,2026.1.3,60.01014171432663,2026-04-13 13h01.40.313576 +0200,
4.5,ecc10pos,left,53,0,53,f,1,1.2776317999996536,None,0,0,0,0,53,0,53,0,236.23176520000015,,,,,,,,,,,,,,,236.22169180000128,236.23176520000015,236.23176520000015,236.23176520000015,237.13522379999995,237.51871980000033,f,1,1.2776317999996536,None,left,2,"[20, 14, 16, 14, 16, 11, 13, 7, 8, 6, 10, 4, 5, 1, 3, 2, 4, 3, 4]",19,shiftedgaze_L_2.png,f,1,1,results6,001,2026-04-13_13h01.39.979,mogelijke versie adaptive staircase builder,,2026.1.3,60.01014171432663,2026-04-13 13h01.40.313576 +0200,
4.5,ecc10pos,left,54,0,54,f,1,1.136693300000843,None,0,0,0,0,54,0,54,0,237.626553600001,,,,,,,,,,,,,,,237.61599820000083,237.626553600001,237.626553600001,237.626553600001,238.51851220000026,238.76887330000136,f,1,1.136693300000843,None,left,1,"[20, 14, 16, 14, 16, 11, 13, 7, 8, 6, 10, 4, 5, 1, 3, 2, 4, 3, 4]",19,shiftedgaze_L_1.png,f,1,1,results6,001,2026-04-13_13h01.39.979,mogelijke versie adaptive staircase builder,,2026.1.3,60.01014171432663,2026-04-13 13h01.40.313576 +0200,
4.5,ecc10pos,left,55,0,55,f,0,1.254864099999395,None,0,0,0,0,55,0,55,0,238.86844940000083,,,,,,,,,,,,,,,238.85714860000007,238.86844940000083,238.86844940000083,238.86844940000083,239.7685162000016,240.13543410000057,f,0,1.254864099999395,None,direct,1,"[20, 14, 16, 14, 16, 11, 13, 7, 8, 6, 10, 4, 5, 1, 3, 2, 4, 3, 4, 0]",20,shifteddirectgaze.png,f,0,1,results6,001,2026-04-13_13h01.39.979,mogelijke versie adaptive staircase builder,,2026.1.3,60.01014171432663,2026-04-13 13h01.40.313576 +0200,
4.5,ecc10pos,left,56,0,56,f,0,1.2105272000007972,None,0,0,0,0,56,0,56,0,240.23280740000155,,,,,,,,,,,,,,,240.22261380000054,240.23280740000155,240.23280740000155,240.23280740000155,241.13518190000104,241.45204120000017,f,0,1.2105272000007972,None,direct,1,"[20, 14, 16, 14, 16, 11, 13, 7, 8, 6, 10, 4, 5, 1, 3, 2, 4, 3, 4, 0]",20,shifteddirectgaze.png,f,0,1,results6,001,2026-04-13_13h01.39.979,mogelijke versie adaptive staircase builder,,2026.1.3,60.01014171432663,2026-04-13 13h01.40.313576 +0200,
4.5,ecc10pos,left,57,0,57,f,1,1.260060300000987,None,0,0,0,0,57,0,57,0,241.55915200000163,,,,,,,,,,,,,,,241.54851580000104,241.55915200000163,241.55915200000163,241.55915200000163,242.45164010000008,242.83530190000056,f,1,1.260060300000987,None,right,2,"[20, 14, 16, 14, 16, 11, 13, 7, 8, 6, 10, 4, 5, 1, 3, 2, 4, 3, 4, 0, 2]",21,shiftedgaze_R_2.png,f,1,1,results6,001,2026-04-13_13h01.39.979,mogelijke versie adaptive staircase builder,,2026.1.3,60.01014171432663,2026-04-13 13h01.40.313576 +0200,
4.5,ecc10pos,left,58,0,58,f,1,1.2526587000011205,None,0,0,0,0,58,0,58,0,242.9346121000017,,,,,,,,,,,,,,,242.92461380000168,242.9346121000017,242.9346121000017,242.9346121000017,243.83504250000078,244.2018050000006,f,1,1.2526587000011205,None,right,1,"[20, 14, 16, 14, 16, 11, 13, 7, 8, 6, 10, 4, 5, 1, 3, 2, 4, 3, 4, 0, 2]",21,shiftedgaze_R_1.png,f,1,1,results6,001,2026-04-13_13h01.39.979,mogelijke versie adaptive staircase builder,,2026.1.3,60.01014171432663,2026-04-13 13h01.40.313576 +0200,
4.5,ecc10pos,left,59,0,59,f,0,1.1763098999999784,None,0,0,0,0,59,0,59,0,244.2999247000007,,,,,,,,,,,,,,,244.28995380000015,244.2999247000007,244.2999247000007,244.2999247000007,245.20166320000135,245.48511210000106,f,0,1.1763098999999784,None,direct,1,"[20, 14, 16, 14, 16, 11, 13, 7, 8, 6, 10, 4, 5, 1, 3, 2, 4, 3, 4, 0, 2, 0]",22,shifteddirectgaze.png,f,0,1,results6,001,2026-04-13_13h01.39.979,mogelijke versie adaptive staircase builder,,2026.1.3,60.01014171432663,2026-04-13 13h01.40.313576 +0200,
4.5,ecc10pos,left,0,0,0,,,,,0,0,0,0,,,,,,,,,,,,,,,,,,,,,,,,,,,,,,,,,,,,,,results6,001,2026-04-13_13h01.39.979,mogelijke versie adaptive staircase builder,,2026.1.3,60.01014171432663,2026-04-13 13h01.40.313576 +0200,
12.5,ecc0,mid,0,0,0,f,1,1.7354952999994566,None,0,1,1,1,0,0,0,0,245.6118045000003,,,,,,,,,,,,,245.5058882000012,245.50594350000028,245.60065420000137,245.6118045000003,246.5184315000006,245.6118045000003,245.6118045000003,247.35185990000173,f,1,1.7354952999994566,None,right,20,[],0,gaze_R_20.png,f,1,2,results6,001,2026-04-13_13h01.39.979,mogelijke versie adaptive staircase builder,,2026.1.3,60.01014171432663,2026-04-13 13h01.40.313576 +0200,
12.5,ecc0,mid,1,0,1,f,1,1.1840252000001783,None,0,1,1,1,1,0,1,0,247.4592227000012,,,,,,,,,,,,,,,247.44898190000094,247.4592227000012,248.35152050000033,247.4592227000012,247.4592227000012,248.65193020000152,f,1,1.1840252000001783,None,left,19,[],0,gaze_L_19.png,f,1,2,results6,001,2026-04-13_13h01.39.979,mogelijke versie adaptive staircase builder,,2026.1.3,60.01014171432663,2026-04-13 13h01.40.313576 +0200,
12.5,ecc0,mid,2,0,2,f,0,1.2285448000002361,None,0,1,1,1,2,0,2,0,248.75858920000064,,,,,,,,,,,,,,,248.7482723000012,248.75858920000064,249.65169400000013,248.75858920000064,248.75858920000064,250.00176470000042,f,0,1.2285448000002361,None,direct,18,[18],1,direct_gaze.png,f,0,2,results6,001,2026-04-13_13h01.39.979,mogelijke versie adaptive staircase builder,,2026.1.3,60.01014171432663,2026-04-13 13h01.40.313576 +0200,
12.5,ecc0,mid,3,0,3,f,1,1.1510643999990862,None,0,1,1,1,3,0,3,0,250.10854310000104,,,,,,,,,,,,,,,250.0976797000003,250.10854310000104,251.00165330000164,250.10854310000104,250.10854310000104,251.2686020000001,f,1,1.1510643999990862,None,right,19,"[18, 19]",2,gaze_R_19.png,f,1,2,results6,001,2026-04-13_13h01.39.979,mogelijke versie adaptive staircase builder,,2026.1.3,60.01014171432663,2026-04-13 13h01.40.313576 +0200,
12.5,ecc0,mid,4,0,4,f,0,1.211143100001209,None,0,1,1,1,4,0,4,0,251.36821960000088,,,,,,,,,,,,,,,251.35750580000058,251.36821960000088,252.26832520000062,251.36821960000088,251.36821960000088,252.58522070000072,f,0,1.211143100001209,None,direct,18,"[18, 19, 18]",3,direct_gaze.png,f,0,2,results6,001,2026-04-13_13h01.39.979,mogelijke versie adaptive staircase builder,,2026.1.3,60.01014171432663,2026-04-13 13h01.40.313576 +0200,
12.5,ecc0,mid,5,0,5,f,1,1.1110489000002417,None,0,1,1,1,5,0,5,0,252.68431150000106,,,,,,,,,,,,,,,252.67366460000085,252.68431150000106,253.58497680000073,252.68431150000106,252.68431150000106,253.801703000001,f,1,1.1110489000002417,None,right,19,"[18, 19, 18, 19]",4,gaze_R_19.png,f,1,2,results6,001,2026-04-13_13h01.39.979,mogelijke versie adaptive staircase builder,,2026.1.3,60.01014171432663,2026-04-13 13h01.40.313576 +0200,
12.5,ecc0,mid,6,0,6,f,1,1.5323055000008026,None,0,1,1,1,6,0,6,0,253.91094990000056,,,,,,,,,,,,,,,253.90064640000128,253.91094990000056,254.80148110000118,253.91094990000056,253.91094990000056,255.45175230000132,f,1,1.5323055000008026,None,right,18,"[18, 19, 18, 19]",4,gaze_R_18.png,f,1,2,results6,001,2026-04-13_13h01.39.979,mogelijke versie adaptive staircase builder,,2026.1.3,60.01014171432663,2026-04-13 13h01.40.313576 +0200,
12.5,ecc0,mid,7,0,7,f,0,1.3147795000004407,None,0,1,1,1,7,0,7,0,255.5526933000001,,,,,,,,,,,,,,,255.5425066000007,255.5526933000001,256.45138060000136,255.5526933000001,255.5526933000001,256.86867430000166,f,0,1.3147795000004407,None,direct,17,"[18, 19, 18, 19, 17]",5,direct_gaze.png,f,0,2,results6,001,2026-04-13_13h01.39.979,mogelijke versie adaptive staircase builder,,2026.1.3,60.01014171432663,2026-04-13 13h01.40.313576 +0200,
12.5,ecc0,mid,8,0,8,f,0,0.9763948999989225,None,0,1,1,1,8,0,8,0,256.9708887000015,,,,,,,,,,,,,,,256.9598971000014,256.9708887000015,257.86811579999994,256.9708887000015,256.9708887000015,257.9516797000015,f,0,0.9763948999989225,None,direct,18,"[18, 19, 18, 19, 17]",5,direct_gaze.png,f,0,2,results6,001,2026-04-13_13h01.39.979,mogelijke versie adaptive staircase builder,,2026.1.3,60.01014171432663,2026-04-13 13h01.40.313576 +0200,
12.5,ecc0,mid,9,0,9,f,1,1.1369616000010865,None,0,1,1,1,9,0,9,0,258.0502873000005,,,,,,,,,,,,,,,258.0401679000006,258.0502873000005,258.95132960000046,258.0502873000005,258.0502873000005,259.2016878000013,f,1,1.1369616000010865,None,right,19,"[18, 19, 18, 19, 17, 19]",6,gaze_R_19.png,f,1,2,results6,001,2026-04-13_13h01.39.979,mogelijke versie adaptive staircase builder,,2026.1.3,60.01014171432663,2026-04-13 13h01.40.313576 +0200,
12.5,ecc0,mid,10,0,10,f,1,1.1498599000005925,None,0,1,1,1,10,0,10,0,259.30961090000164,,,,,,,,,,,,,,,259.29864590000034,259.30961090000164,260.20153030000074,259.30961090000164,259.30961090000164,260.4684679000002,f,1,1.1498599000005925,None,left,18,"[18, 19, 18, 19, 17, 19]",6,gaze_L_18.png,f,1,2,results6,001,2026-04-13_13h01.39.979,mogelijke versie adaptive staircase builder,,2026.1.3,60.01014171432663,2026-04-13 13h01.40.313576 +0200,
12.5,ecc0,mid,11,0,11,f,0,1.0665895999991335,None,0,1,1,1,11,0,11,0,260.56879650000155,,,,,,,,,,,,,,,260.5583299000009,260.56879650000155,261.4680324000001,260.56879650000155,260.56879650000155,261.6517976000014,f,0,1.0665895999991335,None,direct,17,"[18, 19, 18, 19, 17, 19, 17]",7,direct_gaze.png,f,0,2,results6,001,2026-04-13_13h01.39.979,mogelijke versie adaptive staircase builder,,2026.1.3,60.01014171432663,2026-04-13 13h01.40.313576 +0200,
12.5,ecc0,mid,12,0,12,j,1,1.277874299999894,None,0,1,1,1,12,0,12,0,261.7495936000014,,,,,,,,,,,,,,,261.7401303000006,261.7495936000014,262.6515767000001,261.7495936000014,261.7495936000014,263.03506930000003,j,1,1.277874299999894,None,direct,18,"[18, 19, 18, 19, 17, 19, 17, 18]",8,direct_gaze.png,j,1,2,results6,001,2026-04-13_13h01.39.979,mogelijke versie adaptive staircase builder,,2026.1.3,60.01014171432663,2026-04-13 13h01.40.313576 +0200,
12.5,ecc0,mid,13,0,13,f,1,1.4994067999996332,None,0,1,1,1,13,0,13,0,263.14386100000047,,,,,,,,,,,,,,,263.13366470000074,263.14386100000047,264.03482030000123,263.14386100000047,263.14386100000047,264.65177700000095,f,1,1.4994067999996332,None,right,17,"[18, 19, 18, 19, 17, 19, 17, 18]",8,gaze_R_17.png,f,1,2,results6,001,2026-04-13_13h01.39.979,mogelijke versie adaptive staircase builder,,2026.1.3,60.01014171432663,2026-04-13 13h01.40.313576 +0200,
12.5,ecc0,mid,14,0,14,f,1,2.1597187999996095,None,0,1,1,1,14,0,14,0,264.7638801000012,,,,,,,,,,,,,,,264.75297150000006,264.7638801000012,265.65151030000015,264.7638801000012,264.7638801000012,266.9349361000004,f,1,2.1597187999996095,None,right,16,"[18, 19, 18, 19, 17, 19, 17, 18]",8,gaze_R_16.png,f,1,2,results6,001,2026-04-13_13h01.39.979,mogelijke versie adaptive staircase builder,,2026.1.3,60.01014171432663,2026-04-13 13h01.40.313576 +0200,
12.5,ecc0,mid,15,0,15,f,1,1.4905245999998442,None,0,1,1,1,15,0,15,0,267.03308990000005,,,,,,,,,,,,,,,267.02249440000014,267.03308990000005,267.93477950000124,267.03308990000005,267.03308990000005,268.53498970000146,f,1,1.4905245999998442,None,left,15,"[18, 19, 18, 19, 17, 19, 17, 18]",8,gaze_L_15.png,f,1,2,results6,001,2026-04-13_13h01.39.979,mogelijke versie adaptive staircase builder,,2026.1.3,60.01014171432663,2026-04-13 13h01.40.313576 +0200,
12.5,ecc0,mid,16,0,16,f,1,1.3057060000010097,None,0,1,1,1,16,0,16,0,268.6335585000015,,,,,,,,,,,,,,,268.6221260000002,268.6335585000015,269.5346535000008,268.6335585000015,268.6335585000015,269.9515558000003,f,1,1.3057060000010097,None,left,14,"[18, 19, 18, 19, 17, 19, 17, 18]",8,gaze_L_14.png,f,1,2,results6,001,2026-04-13_13h01.39.979,mogelijke versie adaptive staircase builder,,2026.1.3,60.01014171432663,2026-04-13 13h01.40.313576 +0200,
12.5,ecc0,mid,17,0,17,f,0,1.350214699999924,None,0,1,1,1,17,0,17,0,270.04502910000156,,,,,,,,,,,,,,,270.03409590000047,270.04502910000156,270.9512358000011,270.04502910000156,270.04502910000156,271.40161050000097,f,0,1.350214699999924,None,direct,13,"[18, 19, 18, 19, 17, 19, 17, 18, 13]",9,direct_gaze.png,f,0,2,results6,001,2026-04-13_13h01.39.979,mogelijke versie adaptive staircase builder,,2026.1.3,60.01014171432663,2026-04-13 13h01.40.313576 +0200,
12.5,ecc0,mid,18,0,18,f,1,1.2781658000003517,None,0,1,1,1,18,0,18,0,271.501111900001,,,,,,,,,,,,,,,271.4902221000011,271.501111900001,272.4013969000007,271.501111900001,271.501111900001,272.78498540000146,f,1,1.2781658000003517,None,right,14,"[18, 19, 18, 19, 17, 19, 17, 18, 13, 14]",10,gaze_R_14.png,f,1,2,results6,001,2026-04-13_13h01.39.979,mogelijke versie adaptive staircase builder,,2026.1.3,60.01014171432663,2026-04-13 13h01.40.313576 +0200,
12.5,ecc0,mid,19,0,19,f,1,4.623369799999637,None,0,1,1,1,19,0,19,0,272.88396250000005,,,,,,,,,,,,,,,272.8730194,272.88396250000005,273.7846978000016,272.88396250000005,272.88396250000005,277.5182841000005,f,1,4.623369799999637,None,right,13,"[18, 19, 18, 19, 17, 19, 17, 18, 13, 14]",10,gaze_R_13.png,f,1,2,results6,001,2026-04-13_13h01.39.979,mogelijke versie adaptive staircase builder,,2026.1.3,60.01014171432663,2026-04-13 13h01.40.313576 +0200,
12.5,ecc0,mid,20,0,20,f,1,1.832571700000699,None,0,1,1,1,20,0,20,0,277.6187563000003,,,,,,,,,,,,,,,277.60846740000125,277.6187563000003,278.51799700000083,277.6187563000003,277.6187563000003,279.4682128000004,f,1,1.832571700000699,None,right,12,"[18, 19, 18, 19, 17, 19, 17, 18, 13, 14]",10,gaze_R_12.png,f,1,2,results6,001,2026-04-13_13h01.39.979,mogelijke versie adaptive staircase builder,,2026.1.3,60.01014171432663,2026-04-13 13h01.40.313576 +0200,
12.5,ecc0,mid,21,0,21,f,1,1.977386700000352,None,0,1,1,1,21,0,21,0,279.56997520000004,,,,,,,,,,,,,,,279.5588134000009,279.56997520000004,280.4679253000013,279.56997520000004,279.56997520000004,281.5514408000017,f,1,1.977386700000352,None,right,11,"[18, 19, 18, 19, 17, 19, 17, 18, 13, 14]",10,gaze_R_11.png,f,1,2,results6,001,2026-04-13_13h01.39.979,mogelijke versie adaptive staircase builder,,2026.1.3,60.01014171432663,2026-04-13 13h01.40.313576 +0200,
12.5,ecc0,mid,22,0,22,j,0,2.184568599999693,None,0,1,1,1,22,0,22,0,281.65067369999997,,,,,,,,,,,,,,,281.6403354000013,281.65067369999997,282.5510955000009,281.65067369999997,281.65067369999997,283.851396,j,0,2.184568599999693,None,right,10,"[18, 19, 18, 19, 17, 19, 17, 18, 13, 14, 10]",11,gaze_R_10.png,j,0,2,results6,001,2026-04-13_13h01.39.979,mogelijke versie adaptive staircase builder,,2026.1.3,60.01014171432663,2026-04-13 13h01.40.313576 +0200,
12.5,ecc0,mid,23,0,23,f,1,2.0279319000001124,None,0,1,1,1,23,0,23,0,283.9434239000002,,,,,,,,,,,,,,,283.9327531000017,283.9434239000002,284.8510556000001,283.9434239000002,283.9434239000002,285.9849501000008,f,1,2.0279319000001124,None,right,11,"[18, 19, 18, 19, 17, 19, 17, 18, 13, 14, 10, 11]",12,gaze_R_11.png,f,1,2,results6,001,2026-04-13_13h01.39.979,mogelijke versie adaptive staircase builder,,2026.1.3,60.01014171432663,2026-04-13 13h01.40.313576 +0200,
12.5,ecc0,mid,24,0,24,f,1,1.360235100000864,None,0,1,1,1,24,0,24,0,286.09121400000004,,,,,,,,,,,,,,,286.0797825000009,286.09121400000004,286.9845389000002,286.09121400000004,286.09121400000004,287.4681184000001,f,1,1.360235100000864,None,right,10,"[18, 19, 18, 19, 17, 19, 17, 18, 13, 14, 10, 11]",12,gaze_R_10.png,f,1,2,results6,001,2026-04-13_13h01.39.979,mogelijke versie adaptive staircase builder,,2026.1.3,60.01014171432663,2026-04-13 13h01.40.313576 +0200,
12.5,ecc0,mid,25,0,25,j,0,1.3254560999994283,None,0,1,1,1,25,0,25,0,287.58992370000124,,,,,,,,,,,,,,,287.57913220000046,287.58992370000124,288.4678675000014,287.58992370000124,287.58992370000124,288.9181174000005,j,0,1.3254560999994283,None,right,9,"[18, 19, 18, 19, 17, 19, 17, 18, 13, 14, 10, 11, 9]",13,gaze_R_9.png,j,0,2,results6,001,2026-04-13_13h01.39.979,mogelijke versie adaptive staircase builder,,2026.1.3,60.01014171432663,2026-04-13 13h01.40.313576 +0200,
12.5,ecc0,mid,26,0,26,j,0,1.8709983999997348,None,0,1,1,1,26,0,26,0,289.0387238000003,,,,,,,,,,,,,,,289.0265735000012,289.0387238000003,289.9179350000013,289.0387238000003,289.0387238000003,290.91808590000073,j,0,1.8709983999997348,None,left,10,"[18, 19, 18, 19, 17, 19, 17, 18, 13, 14, 10, 11, 9]",13,gaze_L_10.png,j,0,2,results6,001,2026-04-13_13h01.39.979,mogelijke versie adaptive staircase builder,,2026.1.3,60.01014171432663,2026-04-13 13h01.40.313576 +0200,
12.5,ecc0,mid,27,0,27,j,1,2.095613700001195,None,0,1,1,1,27,0,27,0,291.01973160000125,,,,,,,,,,,,,,,291.00799480000023,291.01973160000125,291.91781830000036,291.01973160000125,291.01973160000125,293.11805690000074,j,1,2.095613700001195,None,direct,11,"[18, 19, 18, 19, 17, 19, 17, 18, 13, 14, 10, 11, 9, 11]",14,direct_gaze.png,j,1,2,results6,001,2026-04-13_13h01.39.979,mogelijke versie adaptive staircase builder,,2026.1.3,60.01014171432663,2026-04-13 13h01.40.313576 +0200,
12.5,ecc0,mid,28,0,28,j,0,2.2472374999997555,None,0,1,1,1,28,0,28,0,293.2203660000014,,,,,,,,,,,,,,,293.2094104000007,293.2203660000014,294.11783240000113,293.2203660000014,293.2203660000014,295.46798910000143,j,0,2.2472374999997555,None,right,10,"[18, 19, 18, 19, 17, 19, 17, 18, 13, 14, 10, 11, 9, 11, 10]",15,gaze_R_10.png,j,0,2,results6,001,2026-04-13_13h01.39.979,mogelijke versie adaptive staircase builder,,2026.1.3,60.01014171432663,2026-04-13 13h01.40.313576 +0200,
12.5,ecc0,mid,29,0,29,f,1,2.2193891999995685,None,0,1,1,1,29,0,29,0,295.58394620000036,,,,,,,,,,,,,,,295.57331670000167,295.58394620000036,296.4676806000007,295.58394620000036,295.58394620000036,297.81794160000027,f,1,2.2193891999995685,None,left,11,"[18, 19, 18, 19, 17, 19, 17, 18, 13, 14, 10, 11, 9, 11, 10, 11]",16,gaze_L_11.png,f,1,2,results6,001,2026-04-13_13h01.39.979,mogelijke versie adaptive staircase builder,,2026.1.3,60.01014171432663,2026-04-13 13h01.40.313576 +0200,
12.5,ecc0,mid,30,0,30,j,0,1.8027380999992602,None,0,1,1,1,30,0,30,0,297.9207567000012,,,,,,,,,,,,,,,297.90968150000117,297.9207567000012,298.81770570000117,297.9207567000012,297.9207567000012,299.734609000001,j,0,1.8027380999992602,None,right,10,"[18, 19, 18, 19, 17, 19, 17, 18, 13, 14, 10, 11, 9, 11, 10, 11, 10]",17,gaze_R_10.png,j,0,2,results6,001,2026-04-13_13h01.39.979,mogelijke versie adaptive staircase builder,,2026.1.3,60.01014171432663,2026-04-13 13h01.40.313576 +0200,
12.5,ecc0,mid,31,0,31,j,1,3.17380680000133,None,0,1,1,1,31,0,31,0,299.83752990000175,,,,,,,,,,,,,,,299.8258979000002,299.83752990000175,300.7343068000009,299.83752990000175,299.83752990000175,303.01804620000075,j,1,3.17380680000133,None,direct,11,"[18, 19, 18, 19, 17, 19, 17, 18, 13, 14, 10, 11, 9, 11, 10, 11, 10, 11]",18,direct_gaze.png,j,1,2,results6,001,2026-04-13_13h01.39.979,mogelijke versie adaptive staircase builder,,2026.1.3,60.01014171432663,2026-04-13 13h01.40.313576 +0200,
12.5,ecc0,mid,32,0,32,j,0,1.9874762999988889,None,0,1,1,1,32,0,32,0,303.1223972000007,,,,,,,,,,,,,,,303.1112337000013,303.1223972000007,304.01759520000087,303.1223972000007,303.1223972000007,305.11789860000135,j,0,1.9874762999988889,None,left,10,"[18, 19, 18, 19, 17, 19, 17, 18, 13, 14, 10, 11, 9, 11, 10, 11, 10, 11, 10]",19,gaze_L_10.png,j,0,2,results6,001,2026-04-13_13h01.39.979,mogelijke versie adaptive staircase builder,,2026.1.3,60.01014171432663,2026-04-13 13h01.40.313576 +0200,
12.5,ecc0,mid,33,0,33,j,0,2.6044347999995807,None,0,1,1,1,33,0,33,0,305.2229586000012,,,,,,,,,,,,,,,305.21135010000035,305.2229586000012,306.1175987000006,305.2229586000012,305.2229586000012,307.8346571000002,j,0,2.6044347999995807,None,left,11,"[18, 19, 18, 19, 17, 19, 17, 18, 13, 14, 10, 11, 9, 11, 10, 11, 10, 11, 10]",19,gaze_L_11.png,j,0,2,results6,001,2026-04-13_13h01.39.979,mogelijke versie adaptive staircase builder,,2026.1.3,60.01014171432663,2026-04-13 13h01.40.313576 +0200,
12.5,ecc0,mid,34,0,34,j,0,2.2406047000004037,None,0,1,1,1,34,0,34,0,307.9388289000017,,,,,,,,,,,,,,,307.92721750000055,307.9388289000017,308.83423310000035,307.9388289000017,307.9388289000017,310.1844920000003,j,0,2.2406047000004037,None,right,12,"[18, 19, 18, 19, 17, 19, 17, 18, 13, 14, 10, 11, 9, 11, 10, 11, 10, 11, 10]",19,gaze_R_12.png,j,0,2,results6,001,2026-04-13_13h01.39.979,mogelijke versie adaptive staircase builder,,2026.1.3,60.01014171432663,2026-04-13 13h01.40.313576 +0200,
12.5,ecc0,mid,35,0,35,j,0,2.118232099999659,None,0,1,1,1,35,0,35,0,310.2850171000009,,,,,,,,,,,,,,,310.27478450000126,310.2850171000009,311.18402380000043,310.2850171000009,310.2850171000009,312.41770240000005,j,0,2.118232099999659,None,left,13,"[18, 19, 18, 19, 17, 19, 17, 18, 13, 14, 10, 11, 9, 11, 10, 11, 10, 11, 10]",19,gaze_L_13.png,j,0,2,results6,001,2026-04-13_13h01.39.979,mogelijke versie adaptive staircase builder,,2026.1.3,60.01014171432663,2026-04-13 13h01.40.313576 +0200,
12.5,ecc0,mid,36,0,36,j,0,1.5978810999986308,None,0,1,1,1,36,0,36,0,312.5115622000012,,,,,,,,,,,,,,,312.5009701000017,312.5115622000012,313.4175372000009,312.5115622000012,312.5115622000012,314.1177886000005,j,0,1.5978810999986308,None,right,14,"[18, 19, 18, 19, 17, 19, 17, 18, 13, 14, 10, 11, 9, 11, 10, 11, 10, 11, 10]",19,gaze_R_14.png,j,0,2,results6,001,2026-04-13_13h01.39.979,mogelijke versie adaptive staircase builder,,2026.1.3,60.01014171432663,2026-04-13 13h01.40.313576 +0200,
12.5,ecc0,mid,37,0,37,j,0,2.9333587999990414,None,0,1,1,1,37,0,37,0,314.2139111000015,,,,,,,,,,,,,,,314.202908700001,314.2139111000015,315.11736030000066,314.2139111000015,314.2139111000015,317.1509771000001,j,0,2.9333587999990414,None,left,15,"[18, 19, 18, 19, 17, 19, 17, 18, 13, 14, 10, 11, 9, 11, 10, 11, 10, 11, 10]",19,gaze_L_15.png,j,0,2,results6,001,2026-04-13_13h01.39.979,mogelijke versie adaptive staircase builder,,2026.1.3,60.01014171432663,2026-04-13 13h01.40.313576 +0200,
12.5,ecc0,mid,38,0,38,j,1,1.7768729999988864,None,0,1,1,1,38,0,38,0,317.2423555000005,,,,,,,,,,,,,,,317.2317331000013,317.2423555000005,318.15075720000095,317.2423555000005,317.2423555000005,319.0343513000007,j,1,1.7768729999988864,None,direct,16,"[18, 19, 18, 19, 17, 19, 17, 18, 13, 14, 10, 11, 9, 11, 10, 11, 10, 11, 10, 16]",20,direct_gaze.png,j,1,2,results6,001,2026-04-13_13h01.39.979,mogelijke versie adaptive staircase builder,,2026.1.3,60.01014171432663,2026-04-13 13h01.40.313576 +0200,
12.5,ecc0,mid,39,0,39,j,0,1.8890592000007018,None,0,1,1,1,39,0,39,0,319.1302215000014,,,,,,,,,,,,,,,319.1189133000007,319.1302215000014,320.0340995000006,319.1302215000014,319.1302215000014,321.03423620000103,j,0,1.8890592000007018,None,left,15,"[18, 19, 18, 19, 17, 19, 17, 18, 13, 14, 10, 11, 9, 11, 10, 11, 10, 11, 10, 16, 15]",21,gaze_L_15.png,j,0,2,results6,001,2026-04-13_13h01.39.979,mogelijke versie adaptive staircase builder,,2026.1.3,60.01014171432663,2026-04-13 13h01.40.313576 +0200,
12.5,ecc0,mid,40,0,40,j,0,1.556986900000993,None,0,1,1,1,40,0,40,0,321.1263437000016,,,,,,,,,,,,,,,321.1161299000014,321.1263437000016,322.0340560000004,321.1263437000016,321.1263437000016,322.68406380000124,j,0,1.556986900000993,None,right,16,"[18, 19, 18, 19, 17, 19, 17, 18, 13, 14, 10, 11, 9, 11, 10, 11, 10, 11, 10, 16, 15]",21,gaze_R_16.png,j,0,2,results6,001,2026-04-13_13h01.39.979,mogelijke versie adaptive staircase builder,,2026.1.3,60.01014171432663,2026-04-13 13h01.40.313576 +0200,
12.5,ecc0,mid,41,0,41,f,1,1.898288300000786,None,0,1,1,1,41,0,41,0,322.77702110000064,,,,,,,,,,,,,,,322.76631799999996,322.77702110000064,323.6839035000012,322.77702110000064,322.77702110000064,324.6843750000007,f,1,1.898288300000786,None,right,17,"[18, 19, 18, 19, 17, 19, 17, 18, 13, 14, 10, 11, 9, 11, 10, 11, 10, 11, 10, 16, 15, 17]",22,gaze_R_17.png,f,1,2,results6,001,2026-04-13_13h01.39.979,mogelijke versie adaptive staircase builder,,2026.1.3,60.01014171432663,2026-04-13 13h01.40.313576 +0200,
12.5,ecc0,mid,42,0,42,j,1,2.6228826999995363,None,0,1,1,1,42,0,42,0,324.7803337000005,,,,,,,,,,,,,,,324.7691573000011,324.7803337000005,325.68380480000087,324.7803337000005,324.7803337000005,327.41757000000143,j,1,2.6228826999995363,None,direct,16,"[18, 19, 18, 19, 17, 19, 17, 18, 13, 14, 10, 11, 9, 11, 10, 11, 10, 11, 10, 16, 15, 17]",22,direct_gaze.png,j,1,2,results6,001,2026-04-13_13h01.39.979,mogelijke versie adaptive staircase builder,,2026.1.3,60.01014171432663,2026-04-13 13h01.40.313576 +0200,
12.5,ecc0,mid,43,0,43,f,1,2.8124506999993173,None,0,1,1,1,43,0,43,0,327.51875500000097,,,,,,,,,,,,,,,327.5086652000009,327.51875500000097,328.4172784000002,327.51875500000097,327.51875500000097,330.3339670000005,f,1,2.8124506999993173,None,right,15,"[18, 19, 18, 19, 17, 19, 17, 18, 13, 14, 10, 11, 9, 11, 10, 11, 10, 11, 10, 16, 15, 17]",22,gaze_R_15.png,f,1,2,results6,001,2026-04-13_13h01.39.979,mogelijke versie adaptive staircase builder,,2026.1.3,60.01014171432663,2026-04-13 13h01.40.313576 +0200,
12.5,ecc0,mid,44,0,44,j,1,1.8230443000011292,None,0,1,1,1,44,0,44,0,330.4281613000003,,,,,,,,,,,,,,,330.41727170000013,330.4281613000003,331.33383649999996,330.4281613000003,330.4281613000003,332.26719910000065,j,1,1.8230443000011292,None,direct,14,"[18, 19, 18, 19, 17, 19, 17, 18, 13, 14, 10, 11, 9, 11, 10, 11, 10, 11, 10, 16, 15, 17]",22,direct_gaze.png,j,1,2,results6,001,2026-04-13_13h01.39.979,mogelijke versie adaptive staircase builder,,2026.1.3,60.01014171432663,2026-04-13 13h01.40.313576 +0200,
12.5,ecc0,mid,45,0,45,j,0,1.3188335999984702,None,0,1,1,1,45,0,45,0,332.3644617000009,,,,,,,,,,,,,,,332.35144990000117,332.3644617000009,333.2669874000003,332.3644617000009,332.3644617000009,333.6840925000015,j,0,1.3188335999984702,None,left,13,"[18, 19, 18, 19, 17, 19, 17, 18, 13, 14, 10, 11, 9, 11, 10, 11, 10, 11, 10, 16, 15, 17, 13]",23,gaze_L_13.png,j,0,2,results6,001,2026-04-13_13h01.39.979,mogelijke versie adaptive staircase builder,,2026.1.3,60.01014171432663,2026-04-13 13h01.40.313576 +0200,
12.5,ecc0,mid,46,0,46,j,1,1.7674510999986524,None,0,1,1,1,46,0,46,0,333.779859100001,,,,,,,,,,,,,,,333.76943500000016,333.779859100001,334.68373040000006,333.779859100001,333.779859100001,335.55085170000166,j,1,1.7674510999986524,None,direct,14,"[18, 19, 18, 19, 17, 19, 17, 18, 13, 14, 10, 11, 9, 11, 10, 11, 10, 11, 10, 16, 15, 17, 13, 14]",24,direct_gaze.png,j,1,2,results6,001,2026-04-13_13h01.39.979,mogelijke versie adaptive staircase builder,,2026.1.3,60.01014171432663,2026-04-13 13h01.40.313576 +0200,
12.5,ecc0,mid,47,0,47,j,0,3.147814500000095,None,0,1,1,1,47,0,47,0,335.6474184000017,,,,,,,,,,,,,,,335.63658230000146,335.6474184000017,336.55025130000104,335.6474184000017,335.6474184000017,338.8005821000006,j,0,3.147814500000095,None,right,13,"[18, 19, 18, 19, 17, 19, 17, 18, 13, 14, 10, 11, 9, 11, 10, 11, 10, 11, 10, 16, 15, 17, 13, 14, 13]",25,gaze_R_13.png,j,0,2,results6,001,2026-04-13_13h01.39.979,mogelijke versie adaptive staircase builder,,2026.1.3,60.01014171432663,2026-04-13 13h01.40.313576 +0200,
12.5,ecc0,mid,48,0,48,j,0,1.5704737000014575,None,0,1,1,1,48,0,48,0,338.8968132000009,,,,,,,,,,,,,,,338.8863624000005,338.8968132000009,339.8002643,338.8968132000009,338.8968132000009,340.4837823000016,j,0,1.5704737000014575,None,left,14,"[18, 19, 18, 19, 17, 19, 17, 18, 13, 14, 10, 11, 9, 11, 10, 11, 10, 11, 10, 16, 15, 17, 13, 14, 13]",25,gaze_L_14.png,j,0,2,results6,001,2026-04-13_13h01.39.979,mogelijke versie adaptive staircase builder,,2026.1.3,60.01014171432663,2026-04-13 13h01.40.313576 +0200,
12.5,ecc0,mid,49,0,49,f,1,1.9726771999994526,None,0,1,1,1,49,0,49,0,340.58258430000024,,,,,,,,,,,,,,,340.5719929000006,340.58258430000024,341.48348690000057,340.58258430000024,340.58258430000024,342.56717540000136,f,1,1.9726771999994526,None,right,15,"[18, 19, 18, 19, 17, 19, 17, 18, 13, 14, 10, 11, 9, 11, 10, 11, 10, 11, 10, 16, 15, 17, 13, 14, 13, 15]",26,gaze_R_15.png,f,1,2,results6,001,2026-04-13_13h01.39.979,mogelijke versie adaptive staircase builder,,2026.1.3,60.01014171432663,2026-04-13 13h01.40.313576 +0200,
12.5,ecc0,mid,50,0,50,f,1,1.3275646999991295,None,0,1,1,1,50,0,50,0,342.65965700000015,,,,,,,,,,,,,,,342.6485848000011,342.65965700000015,343.56707240000105,342.65965700000015,342.65965700000015,344.0005695,f,1,1.3275646999991295,None,left,14,"[18, 19, 18, 19, 17, 19, 17, 18, 13, 14, 10, 11, 9, 11, 10, 11, 10, 11, 10, 16, 15, 17, 13, 14, 13, 15]",26,gaze_L_14.png,f,1,2,results6,001,2026-04-13_13h01.39.979,mogelijke versie adaptive staircase builder,,2026.1.3,60.01014171432663,2026-04-13 13h01.40.313576 +0200,
12.5,ecc0,mid,51,0,51,f,1,1.333067100000335,None,0,1,1,1,51,0,51,0,344.09422930000073,,,,,,,,,,,,,,,344.0833091000004,344.09422930000073,345.0004316000013,344.09422930000073,344.09422930000073,345.4338794000014,f,1,1.333067100000335,None,left,13,"[18, 19, 18, 19, 17, 19, 17, 18, 13, 14, 10, 11, 9, 11, 10, 11, 10, 11, 10, 16, 15, 17, 13, 14, 13, 15]",26,gaze_L_13.png,f,1,2,results6,001,2026-04-13_13h01.39.979,mogelijke versie adaptive staircase builder,,2026.1.3,60.01014171432663,2026-04-13 13h01.40.313576 +0200,
12.5,ecc0,mid,52,0,52,f,1,2.135751400001027,None,0,1,1,1,52,0,52,0,345.54752610000105,,,,,,,,,,,,,,,345.53679660000125,345.54752610000105,346.4336190000013,345.54752610000105,345.54752610000105,347.68392770000173,f,1,2.135751400001027,None,left,12,"[18, 19, 18, 19, 17, 19, 17, 18, 13, 14, 10, 11, 9, 11, 10, 11, 10, 11, 10, 16, 15, 17, 13, 14, 13, 15]",26,gaze_L_12.png,f,1,2,results6,001,2026-04-13_13h01.39.979,mogelijke versie adaptive staircase builder,,2026.1.3,60.01014171432663,2026-04-13 13h01.40.313576 +0200,
12.5,ecc0,mid,53,0,53,f,1,1.8048469000004843,None,0,1,1,1,53,0,53,0,347.7903711000017,,,,,,,,,,,,,,,347.77946710000106,347.7903711000017,348.68367650000073,347.7903711000017,347.7903711000017,349.6003806000008,f,1,1.8048469000004843,None,right,11,"[18, 19, 18, 19, 17, 19, 17, 18, 13, 14, 10, 11, 9, 11, 10, 11, 10, 11, 10, 16, 15, 17, 13, 14, 13, 15]",26,gaze_R_11.png,f,1,2,results6,001,2026-04-13_13h01.39.979,mogelijke versie adaptive staircase builder,,2026.1.3,60.01014171432663,2026-04-13 13h01.40.313576 +0200,
12.5,ecc0,mid,54,0,54,f,1,2.2201789999999164,None,0,1,1,1,54,0,54,0,349.6950727000003,,,,,,,,,,,,,,,349.6841146000006,349.6950727000003,350.6002296000006,349.6950727000003,349.6950727000003,351.9171660000011,f,1,2.2201789999999164,None,right,10,"[18, 19, 18, 19, 17, 19, 17, 18, 13, 14, 10, 11, 9, 11, 10, 11, 10, 11, 10, 16, 15, 17, 13, 14, 13, 15]",26,gaze_R_10.png,f,1,2,results6,001,2026-04-13_13h01.39.979,mogelijke versie adaptive staircase builder,,2026.1.3,60.01014171432663,2026-04-13 13h01.40.313576 +0200,
12.5,ecc0,mid,55,0,55,f,1,2.236083100000542,None,0,1,1,1,55,0,55,0,352.02310600000055,,,,,,,,,,,,,,,352.0128659000002,352.02310600000055,352.9169457000007,352.02310600000055,352.02310600000055,354.26712000000043,f,1,2.236083100000542,None,right,9,"[18, 19, 18, 19, 17, 19, 17, 18, 13, 14, 10, 11, 9, 11, 10, 11, 10, 11, 10, 16, 15, 17, 13, 14, 13, 15]",26,gaze_R_9.png,f,1,2,results6,001,2026-04-13_13h01.39.979,mogelijke versie adaptive staircase builder,,2026.1.3,60.01014171432663,2026-04-13 13h01.40.313576 +0200,
12.5,ecc0,mid,56,0,56,j,1,2.4904086999995343,None,0,1,1,1,56,0,56,0,354.3767520000001,,,,,,,,,,,,,,,354.3638008000016,354.3767520000001,355.2669384000001,354.3767520000001,354.3767520000001,356.8838616000012,j,1,2.4904086999995343,None,direct,8,"[18, 19, 18, 19, 17, 19, 17, 18, 13, 14, 10, 11, 9, 11, 10, 11, 10, 11, 10, 16, 15, 17, 13, 14, 13, 15]",26,direct_gaze.png,j,1,2,results6,001,2026-04-13_13h01.39.979,mogelijke versie adaptive staircase builder,,2026.1.3,60.01014171432663,2026-04-13 13h01.40.313576 +0200,
12.5,ecc0,mid,57,0,57,j,0,1.2065783000016381,None,0,1,1,1,57,0,57,0,356.98861320000105,,,,,,,,,,,,,,,356.9771389000016,356.98861320000105,357.883367800001,356.98861320000105,356.98861320000105,358.20061010000063,j,0,1.2065783000016381,None,left,7,"[18, 19, 18, 19, 17, 19, 17, 18, 13, 14, 10, 11, 9, 11, 10, 11, 10, 11, 10, 16, 15, 17, 13, 14, 13, 15, 7]",27,gaze_L_7.png,j,0,2,results6,001,2026-04-13_13h01.39.979,mogelijke versie adaptive staircase builder,,2026.1.3,60.01014171432663,2026-04-13 13h01.40.313576 +0200,
12.5,ecc0,mid,58,0,58,j,0,1.6899879999982659,None,0,1,1,1,58,0,58,0,358.3051918000001,,,,,,,,,,,,,,,358.29432700000143,358.3051918000001,359.20012920000045,358.3051918000001,358.3051918000001,360.0004432000005,j,0,1.6899879999982659,None,left,8,"[18, 19, 18, 19, 17, 19, 17, 18, 13, 14, 10, 11, 9, 11, 10, 11, 10, 11, 10, 16, 15, 17, 13, 14, 13, 15, 7]",27,gaze_L_8.png,j,0,2,results6,001,2026-04-13_13h01.39.979,mogelijke versie adaptive staircase builder,,2026.1.3,60.01014171432663,2026-04-13 13h01.40.313576 +0200,
12.5,ecc0,mid,59,0,59,j,0,1.2416346999998495,None,0,1,1,1,59,0,59,0,360.1055883000008,,,,,,,,,,,,,,,360.09497870000087,360.1055883000008,360.9999719000007,360.1055883000008,360.1055883000008,361.35012820000156,j,0,1.2416346999998495,None,right,9,"[18, 19, 18, 19, 17, 19, 17, 18, 13, 14, 10, 11, 9, 11, 10, 11, 10, 11, 10, 16, 15, 17, 13, 14, 13, 15, 7]",27,gaze_R_9.png,j,0,2,results6,001,2026-04-13_13h01.39.979,mogelijke versie adaptive staircase builder,,2026.1.3,60.01014171432663,2026-04-13 13h01.40.313576 +0200,
12.5,ecc0,mid,1,1,0,,,,,0,1,1,1,,,,,,,,,,,,,,,,,,,,,,,,,,,,,,,,,,,,,,results6,001,2026-04-13_13h01.39.979,mogelijke versie adaptive staircase builder,,2026.1.3,60.01014171432663,2026-04-13 13h01.40.313576 +0200,
20.5,ecc10neg,right,0,0,0,f,1,1.0750256000010268,None,0,2,2,2,0,0,0,0,361.46518060000017,,,,,,,,,,,,,361.35254050000003,361.35257400000046,361.4550949000004,361.46518060000017,361.46518060000017,362.3666381000003,361.46518060000017,362.5502589000007,f,1,1.0750256000010268,None,left,20,[],0,shiftedgaze_L_20.png,f,1,3,results6,001,2026-04-13_13h01.39.979,mogelijke versie adaptive staircase builder,,2026.1.3,60.01014171432663,2026-04-13 13h01.40.313576 +0200,
20.5,ecc10neg,right,1,0,1,j,0,1.2162669999997888,None,0,2,2,2,1,0,1,0,362.67514330000085,,,,,,,,,,,,,,,362.6638472000013,362.67514330000085,362.67514330000085,363.5498836000006,362.67514330000085,363.90021220000017,j,0,1.2162669999997888,None,right,19,[19],1,shiftedgaze_R_19.png,j,0,3,results6,001,2026-04-13_13h01.39.979,mogelijke versie adaptive staircase builder,,2026.1.3,60.01014171432663,2026-04-13 13h01.40.313576 +0200,
20.5,ecc10neg,right,2,0,2,j,0,1.3495634000009886,None,0,2,2,2,2,0,2,0,364.0138240000015,,,,,,,,,,,,,,,364.00302920000104,364.0138240000015,364.0138240000015,364.89996370000154,364.0138240000015,365.3669656000002,j,0,1.3495634000009886,None,left,20,[19],1,shiftedgaze_L_20.png,j,0,3,results6,001,2026-04-13_13h01.39.979,mogelijke versie adaptive staircase builder,,2026.1.3,60.01014171432663,2026-04-13 13h01.40.313576 +0200,
20.5,ecc10neg,right,3,0,3,j,1,1.219829200001186,None,0,2,2,2,3,0,3,0,365.471547000001,,,,,,,,,,,,,,,365.4602510000004,365.471547000001,365.471547000001,366.3666281000005,365.471547000001,366.7002730000004,j,1,1.219829200001186,None,direct,20,"[19, 20]",2,shifteddirectgaze.png,j,1,3,results6,001,2026-04-13_13h01.39.979,mogelijke versie adaptive staircase builder,,2026.1.3,60.01014171432663,2026-04-13 13h01.40.313576 +0200,
20.5,ecc10neg,right,4,0,4,j,1,1.333540499999799,None,0,2,2,2,4,0,4,0,366.79761770000005,,,,,,,,,,,,,,,366.78779490000124,366.79761770000005,366.79761770000005,367.7000796000011,366.79761770000005,368.1336525000006,j,1,1.333540499999799,None,direct,19,"[19, 20]",2,shifteddirectgaze.png,j,1,3,results6,001,2026-04-13_13h01.39.979,mogelijke versie adaptive staircase builder,,2026.1.3,60.01014171432663,2026-04-13 13h01.40.313576 +0200,
20.5,ecc10neg,right,5,0,5,j,0,1.2140889000002062,None,0,2,2,2,5,0,5,0,368.26124680000066,,,,,,,,,,,,,,,368.25000920000093,368.26124680000066,368.26124680000066,369.133213000001,368.26124680000066,369.4834554000008,j,0,1.2140889000002062,None,right,18,"[19, 20, 18]",3,shiftedgaze_R_18.png,j,0,3,results6,001,2026-04-13_13h01.39.979,mogelijke versie adaptive staircase builder,,2026.1.3,60.01014171432663,2026-04-13 13h01.40.313576 +0200,
20.5,ecc10neg,right,6,0,6,j,1,1.3319041000013385,None,0,2,2,2,6,0,6,0,369.59943380000004,,,,,,,,,,,,,,,369.588119,369.59943380000004,369.59943380000004,370.48318700000164,369.59943380000004,370.9335841000011,j,1,1.3319041000013385,None,direct,19,"[19, 20, 18, 19]",4,shifteddirectgaze.png,j,1,3,results6,001,2026-04-13_13h01.39.979,mogelijke versie adaptive staircase builder,,2026.1.3,60.01014171432663,2026-04-13 13h01.40.313576 +0200,
20.5,ecc10neg,right,7,0,7,j,0,1.2354374000005919,None,0,2,2,2,7,0,7,0,371.0559705000014,,,,,,,,,,,,,,,371.0442737000012,371.0559705000014,371.0559705000014,371.93335900000056,371.0559705000014,372.3002546000007,j,0,1.2354374000005919,None,right,18,"[19, 20, 18, 19, 18]",5,shiftedgaze_R_18.png,j,0,3,results6,001,2026-04-13_13h01.39.979,mogelijke versie adaptive staircase builder,,2026.1.3,60.01014171432663,2026-04-13 13h01.40.313576 +0200,
20.5,ecc10neg,right,8,0,8,j,1,1.0378243000013754,None,0,2,2,2,8,0,8,0,372.4133359000007,,,,,,,,,,,,,,,372.4026330000015,372.4133359000007,372.4133359000007,373.3000296000009,372.4133359000007,373.46680260000176,j,1,1.0378243000013754,None,direct,19,"[19, 20, 18, 19, 18, 19]",6,shifteddirectgaze.png,j,1,3,results6,001,2026-04-13_13h01.39.979,mogelijke versie adaptive staircase builder,,2026.1.3,60.01014171432663,2026-04-13 13h01.40.313576 +0200,
20.5,ecc10neg,right,9,0,9,j,1,1.4981521999998222,None,0,2,2,2,9,0,9,0,373.56105560000105,,,,,,,,,,,,,,,373.5500129000011,373.56105560000105,373.56105560000105,374.4666429000008,373.56105560000105,375.066668200001,j,1,1.4981521999998222,None,direct,18,"[19, 20, 18, 19, 18, 19]",6,shifteddirectgaze.png,j,1,3,results6,001,2026-04-13_13h01.39.979,mogelijke versie adaptive staircase builder,,2026.1.3,60.01014171432663,2026-04-13 13h01.40.313576 +0200,
20.5,ecc10neg,right,10,0,10,j,0,0.9909926000000269,None,0,2,2,2,10,0,10,0,375.1723275000004,,,,,,,,,,,,,,,375.1607240000012,375.1723275000004,375.1723275000004,376.06647200000043,375.1723275000004,376.16667770000095,j,0,0.9909926000000269,None,left,17,"[19, 20, 18, 19, 18, 19, 17]",7,shiftedgaze_L_17.png,j,0,3,results6,001,2026-04-13_13h01.39.979,mogelijke versie adaptive staircase builder,,2026.1.3,60.01014171432663,2026-04-13 13h01.40.313576 +0200,
20.5,ecc10neg,right,11,0,11,f,1,2.034603399999469,None,0,2,2,2,11,0,11,0,376.28952990000107,,,,,,,,,,,,,,,376.2784104000002,376.28952990000107,376.28952990000107,377.16649210000105,376.28952990000107,378.33335500000067,f,1,2.034603399999469,None,right,18,"[19, 20, 18, 19, 18, 19, 17, 18]",8,shiftedgaze_R_18.png,f,1,3,results6,001,2026-04-13_13h01.39.979,mogelijke versie adaptive staircase builder,,2026.1.3,60.01014171432663,2026-04-13 13h01.40.313576 +0200,
20.5,ecc10neg,right,12,0,12,f,0,1.514570299999832,None,0,2,2,2,12,0,12,0,378.4486745000013,,,,,,,,,,,,,,,378.43786739999996,378.4486745000013,378.4486745000013,379.3332057000007,378.4486745000013,379.9666287,f,0,1.514570299999832,None,direct,17,"[19, 20, 18, 19, 18, 19, 17, 18, 17]",9,shifteddirectgaze.png,f,0,3,results6,001,2026-04-13_13h01.39.979,mogelijke versie adaptive staircase builder,,2026.1.3,60.01014171432663,2026-04-13 13h01.40.313576 +0200,
20.5,ecc10neg,right,13,0,13,f,1,1.2492863000006764,None,0,2,2,2,13,0,13,0,380.09086300000126,,,,,,,,,,,,,,,380.07932020000044,380.09086300000126,380.09086300000126,380.9664077000016,380.09086300000126,381.3499907000005,f,1,1.2492863000006764,None,right,18,"[19, 20, 18, 19, 18, 19, 17, 18, 17, 18]",10,shiftedgaze_R_18.png,f,1,3,results6,001,2026-04-13_13h01.39.979,mogelijke versie adaptive staircase builder,,2026.1.3,60.01014171432663,2026-04-13 13h01.40.313576 +0200,
20.5,ecc10neg,right,14,0,14,f,1,1.4169836000000942,None,0,2,2,2,14,0,14,0,381.4586495000003,,,,,,,,,,,,,,,381.4471777000017,381.4586495000003,381.4586495000003,382.3497369000015,381.4586495000003,382.8834616000004,f,1,1.4169836000000942,None,right,17,"[19, 20, 18, 19, 18, 19, 17, 18, 17, 18]",10,shiftedgaze_R_17.png,f,1,3,results6,001,2026-04-13_13h01.39.979,mogelijke versie adaptive staircase builder,,2026.1.3,60.01014171432663,2026-04-13 13h01.40.313576 +0200,
20.5,ecc10neg,right,15,0,15,f,1,1.2261087999995652,None,0,2,2,2,15,0,15,0,383.0250820000001,,,,,,,,,,,,,,,383.01454790000025,383.0250820000001,383.0250820000001,383.88324250000005,383.0250820000001,384.26681950000057,f,1,1.2261087999995652,None,left,16,"[19, 20, 18, 19, 18, 19, 17, 18, 17, 18]",10,shiftedgaze_L_16.png,f,1,3,results6,001,2026-04-13_13h01.39.979,mogelijke versie adaptive staircase builder,,2026.1.3,60.01014171432663,2026-04-13 13h01.40.313576 +0200,
20.5,ecc10neg,right,16,0,16,f,1,1.225291599999764,None,0,2,2,2,16,0,16,0,384.38602680000076,,,,,,,,,,,,,,,384.3751346000008,384.38602680000076,384.38602680000076,385.2664037000013,384.38602680000076,385.61682570000085,f,1,1.225291599999764,None,left,15,"[19, 20, 18, 19, 18, 19, 17, 18, 17, 18]",10,shiftedgaze_L_15.png,f,1,3,results6,001,2026-04-13_13h01.39.979,mogelijke versie adaptive staircase builder,,2026.1.3,60.01014171432663,2026-04-13 13h01.40.313576 +0200,
20.5,ecc10neg,right,17,0,17,f,0,1.3171834999993735,None,0,2,2,2,17,0,17,0,385.7261051000005,,,,,,,,,,,,,,,385.7160760000006,385.7261051000005,385.7261051000005,386.6164888000003,385.7261051000005,387.05004420000114,f,0,1.3171834999993735,None,direct,14,"[19, 20, 18, 19, 18, 19, 17, 18, 17, 18, 14]",11,shifteddirectgaze.png,f,0,3,results6,001,2026-04-13_13h01.39.979,mogelijke versie adaptive staircase builder,,2026.1.3,60.01014171432663,2026-04-13 13h01.40.313576 +0200,
20.5,ecc10neg,right,18,0,18,j,0,2.081576500000665,None,0,2,2,2,18,0,18,0,387.1696112000009,,,,,,,,,,,,,,,387.1589528000004,387.1696112000009,387.1696112000009,388.04975060000106,387.1696112000009,389.26652060000015,j,0,2.081576500000665,None,right,15,"[19, 20, 18, 19, 18, 19, 17, 18, 17, 18, 14]",11,shiftedgaze_R_15.png,j,0,3,results6,001,2026-04-13_13h01.39.979,mogelijke versie adaptive staircase builder,,2026.1.3,60.01014171432663,2026-04-13 13h01.40.313576 +0200,
20.5,ecc10neg,right,19,0,19,j,0,1.245562300000529,None,0,2,2,2,19,0,19,0,389.36573130000033,,,,,,,,,,,,,,,389.3540107000008,389.36573130000033,389.36573130000033,390.26633690000017,389.36573130000033,390.6165546000011,j,0,1.245562300000529,None,left,16,"[19, 20, 18, 19, 18, 19, 17, 18, 17, 18, 14]",11,shiftedgaze_L_16.png,j,0,3,results6,001,2026-04-13_13h01.39.979,mogelijke versie adaptive staircase builder,,2026.1.3,60.01014171432663,2026-04-13 13h01.40.313576 +0200,
20.5,ecc10neg,right,20,0,20,j,0,1.2634964999997464,None,0,2,2,2,20,0,20,0,390.73978650000026,,,,,,,,,,,,,,,390.72824519999995,390.73978650000026,390.73978650000026,391.6161197000001,390.73978650000026,392.01662730000135,j,0,1.2634964999997464,None,right,17,"[19, 20, 18, 19, 18, 19, 17, 18, 17, 18, 14]",11,shiftedgaze_R_17.png,j,0,3,results6,001,2026-04-13_13h01.39.979,mogelijke versie adaptive staircase builder,,2026.1.3,60.01014171432663,2026-04-13 13h01.40.313576 +0200,
20.5,ecc10neg,right,21,0,21,j,0,2.1086408000010124,None,0,2,2,2,21,0,21,0,392.1189372000008,,,,,,,,,,,,,,,392.1080967000016,392.1189372000008,392.1189372000008,393.01613930000167,392.1189372000008,394.23337880000145,j,0,2.1086408000010124,None,right,18,"[19, 20, 18, 19, 18, 19, 17, 18, 17, 18, 14]",11,shiftedgaze_R_18.png,j,0,3,results6,001,2026-04-13_13h01.39.979,mogelijke versie adaptive staircase builder,,2026.1.3,60.01014171432663,2026-04-13 13h01.40.313576 +0200,
20.5,ecc10neg,right,22,0,22,j,1,1.8757967000001372,None,0,2,2,2,22,0,22,0,394.3514429000006,,,,,,,,,,,,,,,394.34037740000167,394.3514429000006,394.3514429000006,395.23306670000056,394.3514429000006,396.23317080000015,j,1,1.8757967000001372,None,direct,19,"[19, 20, 18, 19, 18, 19, 17, 18, 17, 18, 14, 19]",12,shifteddirectgaze.png,j,1,3,results6,001,2026-04-13_13h01.39.979,mogelijke versie adaptive staircase builder,,2026.1.3,60.01014171432663,2026-04-13 13h01.40.313576 +0200,
20.5,ecc10neg,right,23,0,23,f,0,2.1631567000003997,None,0,2,2,2,23,0,23,0,396.3281541000015,,,,,,,,,,,,,,,396.3176992000008,396.3281541000015,396.3281541000015,397.2328269000009,396.3281541000015,398.4999176000001,f,0,2.1631567000003997,None,direct,18,"[19, 20, 18, 19, 18, 19, 17, 18, 17, 18, 14, 19, 18]",13,shifteddirectgaze.png,f,0,3,results6,001,2026-04-13_13h01.39.979,mogelijke versie adaptive staircase builder,,2026.1.3,60.01014171432663,2026-04-13 13h01.40.313576 +0200,
20.5,ecc10neg,right,24,0,24,f,0,2.0356148000009853,None,0,2,2,2,24,0,24,0,398.5996724000015,,,,,,,,,,,,,,,398.5887606000015,398.5996724000015,398.5996724000015,399.49940790000073,398.5996724000015,400.6499397000007,f,0,2.0356148000009853,None,direct,19,"[19, 20, 18, 19, 18, 19, 17, 18, 17, 18, 14, 19, 18]",13,shifteddirectgaze.png,f,0,3,results6,001,2026-04-13_13h01.39.979,mogelijke versie adaptive staircase builder,,2026.1.3,60.01014171432663,2026-04-13 13h01.40.313576 +0200,
20.5,ecc10neg,right,25,0,25,f,0,1.1378975999996328,None,0,2,2,2,25,0,25,0,400.74528350000037,,,,,,,,,,,,,,,400.7348004000014,400.74528350000037,400.74528350000037,401.64945850000004,400.74528350000037,401.89959420000014,f,0,1.1378975999996328,None,direct,20,"[19, 20, 18, 19, 18, 19, 17, 18, 17, 18, 14, 19, 18]",13,shifteddirectgaze.png,f,0,3,results6,001,2026-04-13_13h01.39.979,mogelijke versie adaptive staircase builder,,2026.1.3,60.01014171432663,2026-04-13 13h01.40.313576 +0200,
20.5,ecc10neg,right,26,0,26,f,1,1.5386312999999063,None,0,2,2,2,26,0,26,0,402.03268500000013,,,,,,,,,,,,,,,402.0213485000004,402.03268500000013,402.03268500000013,402.89943250000033,402.03268500000013,403.58319910000137,f,1,1.5386312999999063,None,right,20,"[19, 20, 18, 19, 18, 19, 17, 18, 17, 18, 14, 19, 18, 20]",14,shiftedgaze_R_20.png,f,1,3,results6,001,2026-04-13_13h01.39.979,mogelijke versie adaptive staircase builder,,2026.1.3,60.01014171432663,2026-04-13 13h01.40.313576 +0200,
20.5,ecc10neg,right,27,0,27,f,1,1.2364973999992799,None,0,2,2,2,27,0,27,0,403.68681300000026,,,,,,,,,,,,,,,403.6752230000002,403.68681300000026,403.68681300000026,404.5829464000017,403.68681300000026,404.93309800000134,f,1,1.2364973999992799,None,right,19,"[19, 20, 18, 19, 18, 19, 17, 18, 17, 18, 14, 19, 18, 20]",14,shiftedgaze_R_19.png,f,1,3,results6,001,2026-04-13_13h01.39.979,mogelijke versie adaptive staircase builder,,2026.1.3,60.01014171432663,2026-04-13 13h01.40.313576 +0200,
20.5,ecc10neg,right,28,0,28,f,0,1.061630399999558,None,0,2,2,2,28,0,28,0,405.053640600001,,,,,,,,,,,,,,,405.04256520000126,405.053640600001,405.053640600001,405.93287899999996,405.053640600001,406.11647560000165,f,0,1.061630399999558,None,direct,18,"[19, 20, 18, 19, 18, 19, 17, 18, 17, 18, 14, 19, 18, 20, 18]",15,shifteddirectgaze.png,f,0,3,results6,001,2026-04-13_13h01.39.979,mogelijke versie adaptive staircase builder,,2026.1.3,60.01014171432663,2026-04-13 13h01.40.313576 +0200,
20.5,ecc10neg,right,29,0,29,f,1,1.0455796000005648,None,0,2,2,2,29,0,29,0,406.2217217000016,,,,,,,,,,,,,,,406.2101237000006,406.2217217000016,406.2217217000016,407.1160350000009,406.2217217000016,407.28306130000055,f,1,1.0455796000005648,None,left,19,"[19, 20, 18, 19, 18, 19, 17, 18, 17, 18, 14, 19, 18, 20, 18, 19]",16,shiftedgaze_L_19.png,f,1,3,results6,001,2026-04-13_13h01.39.979,mogelijke versie adaptive staircase builder,,2026.1.3,60.01014171432663,2026-04-13 13h01.40.313576 +0200,
20.5,ecc10neg,right,30,0,30,f,1,1.0992404999997234,None,0,2,2,2,30,0,30,0,407.4080990000002,,,,,,,,,,,,,,,407.396082700001,407.4080990000002,407.4080990000002,408.28267830000004,407.4080990000002,408.5166945000001,f,1,1.0992404999997234,None,right,18,"[19, 20, 18, 19, 18, 19, 17, 18, 17, 18, 14, 19, 18, 20, 18, 19]",16,shiftedgaze_R_18.png,f,1,3,results6,001,2026-04-13_13h01.39.979,mogelijke versie adaptive staircase builder,,2026.1.3,60.01014171432663,2026-04-13 13h01.40.313576 +0200,
20.5,ecc10neg,right,31,0,31,f,0,1.9712153000000399,None,0,2,2,2,31,0,31,0,408.6320753,,,,,,,,,,,,,,,408.62059410000074,408.6320753,408.6320753,409.5159970000004,408.6320753,410.6162970000005,f,0,1.9712153000000399,None,direct,17,"[19, 20, 18, 19, 18, 19, 17, 18, 17, 18, 14, 19, 18, 20, 18, 19, 17]",17,shifteddirectgaze.png,f,0,3,results6,001,2026-04-13_13h01.39.979,mogelijke versie adaptive staircase builder,,2026.1.3,60.01014171432663,2026-04-13 13h01.40.313576 +0200,
20.5,ecc10neg,right,32,0,32,f,1,1.0287662999999156,None,0,2,2,2,32,0,32,0,410.7266621000017,,,,,,,,,,,,,,,410.7161561000012,410.7266621000017,410.7266621000017,411.61593060000087,410.7266621000017,411.76631220000127,f,1,1.0287662999999156,None,left,18,"[19, 20, 18, 19, 18, 19, 17, 18, 17, 18, 14, 19, 18, 20, 18, 19, 17, 18]",18,shiftedgaze_L_18.png,f,1,3,results6,001,2026-04-13_13h01.39.979,mogelijke versie adaptive staircase builder,,2026.1.3,60.01014171432663,2026-04-13 13h01.40.313576 +0200,
20.5,ecc10neg,right,33,0,33,f,0,0.9649620000000141,None,0,2,2,2,33,0,33,0,411.86240910000015,,,,,,,,,,,,,,,411.8509821000007,411.86240910000015,411.86240910000015,412.76599410000017,411.86240910000015,412.8329685000008,f,0,0.9649620000000141,None,direct,17,"[19, 20, 18, 19, 18, 19, 17, 18, 17, 18, 14, 19, 18, 20, 18, 19, 17, 18, 17]",19,shifteddirectgaze.png,f,0,3,results6,001,2026-04-13_13h01.39.979,mogelijke versie adaptive staircase builder,,2026.1.3,60.01014171432663,2026-04-13 13h01.40.313576 +0200,
20.5,ecc10neg,right,34,0,34,f,1,1.778351399998428,None,0,2,2,2,34,0,34,0,412.92902680000043,,,,,,,,,,,,,,,412.91890779999994,412.92902680000043,412.92902680000043,413.8327730000001,412.92902680000043,414.71633850000035,f,1,1.778351399998428,None,left,18,"[19, 20, 18, 19, 18, 19, 17, 18, 17, 18, 14, 19, 18, 20, 18, 19, 17, 18, 17, 18]",20,shiftedgaze_L_18.png,f,1,3,results6,001,2026-04-13_13h01.39.979,mogelijke versie adaptive staircase builder,,2026.1.3,60.01014171432663,2026-04-13 13h01.40.313576 +0200,
20.5,ecc10neg,right,35,0,35,j,1,1.5504504999989877,None,0,2,2,2,35,0,35,0,414.8128461000015,,,,,,,,,,,,,,,414.80226980000043,414.8128461000015,414.8128461000015,415.7159498000001,414.8128461000015,416.3664011000001,j,1,1.5504504999989877,None,direct,17,"[19, 20, 18, 19, 18, 19, 17, 18, 17, 18, 14, 19, 18, 20, 18, 19, 17, 18, 17, 18]",20,shifteddirectgaze.png,j,1,3,results6,001,2026-04-13_13h01.39.979,mogelijke versie adaptive staircase builder,,2026.1.3,60.01014171432663,2026-04-13 13h01.40.313576 +0200,
20.5,ecc10neg,right,36,0,36,j,0,1.596093699999983,None,0,2,2,2,36,0,36,0,416.46327930000007,,,,,,,,,,,,,,,416.4524543000007,416.46327930000007,416.46327930000007,417.36605730000156,416.46327930000007,418.0662798000012,j,0,1.596093699999983,None,left,16,"[19, 20, 18, 19, 18, 19, 17, 18, 17, 18, 14, 19, 18, 20, 18, 19, 17, 18, 17, 18, 16]",21,shiftedgaze_L_16.png,j,0,3,results6,001,2026-04-13_13h01.39.979,mogelijke versie adaptive staircase builder,,2026.1.3,60.01014171432663,2026-04-13 13h01.40.313576 +0200,
20.5,ecc10neg,right,37,0,37,f,1,1.7513490000001184,None,0,2,2,2,37,0,37,0,418.19592660000126,,,,,,,,,,,,,,,418.1819673000009,418.19592660000126,418.19592660000126,419.0658695000002,418.19592660000126,419.9496007000016,f,1,1.7513490000001184,None,right,17,"[19, 20, 18, 19, 18, 19, 17, 18, 17, 18, 14, 19, 18, 20, 18, 19, 17, 18, 17, 18, 16, 17]",22,shiftedgaze_R_17.png,f,1,3,results6,001,2026-04-13_13h01.39.979,mogelijke versie adaptive staircase builder,,2026.1.3,60.01014171432663,2026-04-13 13h01.40.313576 +0200,
20.5,ecc10neg,right,38,0,38,j,0,1.9607384000009915,None,0,2,2,2,38,0,38,0,420.06663050000134,,,,,,,,,,,,,,,420.0557871000001,420.06663050000134,420.06663050000134,420.9491663000008,420.06663050000134,422.0329204000009,j,0,1.9607384000009915,None,left,16,"[19, 20, 18, 19, 18, 19, 17, 18, 17, 18, 14, 19, 18, 20, 18, 19, 17, 18, 17, 18, 16, 17, 16]",23,shiftedgaze_L_16.png,j,0,3,results6,001,2026-04-13_13h01.39.979,mogelijke versie adaptive staircase builder,,2026.1.3,60.01014171432663,2026-04-13 13h01.40.313576 +0200,
20.5,ecc10neg,right,39,0,39,j,1,2.0186472999994294,None,0,2,2,2,39,0,39,0,422.1286994000002,,,,,,,,,,,,,,,422.1176664000013,422.1286994000002,422.1286994000002,423.0326462000012,422.1286994000002,424.14935400000104,j,1,2.0186472999994294,None,direct,17,"[19, 20, 18, 19, 18, 19, 17, 18, 17, 18, 14, 19, 18, 20, 18, 19, 17, 18, 17, 18, 16, 17, 16, 17]",24,shifteddirectgaze.png,j,1,3,results6,001,2026-04-13_13h01.39.979,mogelijke versie adaptive staircase builder,,2026.1.3,60.01014171432663,2026-04-13 13h01.40.313576 +0200,
20.5,ecc10neg,right,40,0,40,j,1,1.3212552999993932,None,0,2,2,2,40,0,40,0,424.25017430000116,,,,,,,,,,,,,,,424.24036140000135,424.25017430000116,424.25017430000116,425.14926600000035,424.25017430000116,425.5827418000008,j,1,1.3212552999993932,None,direct,16,"[19, 20, 18, 19, 18, 19, 17, 18, 17, 18, 14, 19, 18, 20, 18, 19, 17, 18, 17, 18, 16, 17, 16, 17]",24,shifteddirectgaze.png,j,1,3,results6,001,2026-04-13_13h01.39.979,mogelijke versie adaptive staircase builder,,2026.1.3,60.01014171432663,2026-04-13 13h01.40.313576 +0200,
20.5,ecc10neg,right,41,0,41,f,1,2.716490499999054,None,0,2,2,2,41,0,41,0,425.67878480000036,,,,,,,,,,,,,,,425.66819750000104,425.67878480000036,425.67878480000036,426.5825988000015,425.67878480000036,428.3994661000015,f,1,2.716490499999054,None,left,15,"[19, 20, 18, 19, 18, 19, 17, 18, 17, 18, 14, 19, 18, 20, 18, 19, 17, 18, 17, 18, 16, 17, 16, 17]",24,shiftedgaze_L_15.png,f,1,3,results6,001,2026-04-13_13h01.39.979,mogelijke versie adaptive staircase builder,,2026.1.3,60.01014171432663,2026-04-13 13h01.40.313576 +0200,
20.5,ecc10neg,right,42,0,42,f,1,1.2259965000012016,None,0,2,2,2,42,0,42,0,428.5052521000016,,,,,,,,,,,,,,,428.49355540000033,428.5052521000016,428.5052521000016,429.3991180000012,428.5052521000016,429.73267600000145,f,1,1.2259965000012016,None,left,14,"[19, 20, 18, 19, 18, 19, 17, 18, 17, 18, 14, 19, 18, 20, 18, 19, 17, 18, 17, 18, 16, 17, 16, 17]",24,shiftedgaze_L_14.png,f,1,3,results6,001,2026-04-13_13h01.39.979,mogelijke versie adaptive staircase builder,,2026.1.3,60.01014171432663,2026-04-13 13h01.40.313576 +0200,
20.5,ecc10neg,right,43,0,43,j,1,1.5072416000002704,None,0,2,2,2,43,0,43,0,429.86411970000154,,,,,,,,,,,,,,,429.8181822000006,429.86411970000154,429.86411970000154,430.73237900000095,429.86411970000154,431.38288510000166,j,1,1.5072416000002704,None,direct,13,"[19, 20, 18, 19, 18, 19, 17, 18, 17, 18, 14, 19, 18, 20, 18, 19, 17, 18, 17, 18, 16, 17, 16, 17]",24,shifteddirectgaze.png,j,1,3,results6,001,2026-04-13_13h01.39.979,mogelijke versie adaptive staircase builder,,2026.1.3,60.01014171432663,2026-04-13 13h01.40.313576 +0200,
20.5,ecc10neg,right,44,0,44,j,0,2.181818499999281,None,0,2,2,2,44,0,44,0,431.48558030000095,,,,,,,,,,,,,,,431.4751533000017,431.48558030000095,431.48558030000095,432.38251610000043,431.48558030000095,433.6827430000012,j,0,2.181818499999281,None,left,12,"[19, 20, 18, 19, 18, 19, 17, 18, 17, 18, 14, 19, 18, 20, 18, 19, 17, 18, 17, 18, 16, 17, 16, 17, 12]",25,shiftedgaze_L_12.png,j,0,3,results6,001,2026-04-13_13h01.39.979,mogelijke versie adaptive staircase builder,,2026.1.3,60.01014171432663,2026-04-13 13h01.40.313576 +0200,
20.5,ecc10neg,right,45,0,45,f,1,2.3770666000000347,None,0,2,2,2,45,0,45,0,433.7861324000005,,,,,,,,,,,,,,,433.7753840000005,433.7861324000005,433.7861324000005,434.6824701000005,433.7861324000005,436.16599320000023,f,1,2.3770666000000347,None,right,13,"[19, 20, 18, 19, 18, 19, 17, 18, 17, 18, 14, 19, 18, 20, 18, 19, 17, 18, 17, 18, 16, 17, 16, 17, 12, 13]",26,shiftedgaze_R_13.png,f,1,3,results6,001,2026-04-13_13h01.39.979,mogelijke versie adaptive staircase builder,,2026.1.3,60.01014171432663,2026-04-13 13h01.40.313576 +0200,
20.5,ecc10neg,right,46,0,46,j,0,3.94148899999891,None,0,2,2,2,46,0,46,0,436.26181070000166,,,,,,,,,,,,,,,436.2512372000001,436.26181070000166,436.26181070000166,437.16578310000114,436.26181070000166,440.2159577000002,j,0,3.94148899999891,None,left,12,"[19, 20, 18, 19, 18, 19, 17, 18, 17, 18, 14, 19, 18, 20, 18, 19, 17, 18, 17, 18, 16, 17, 16, 17, 12, 13, 12]",27,shiftedgaze_L_12.png,j,0,3,results6,001,2026-04-13_13h01.39.979,mogelijke versie adaptive staircase builder,,2026.1.3,60.01014171432663,2026-04-13 13h01.40.313576 +0200,
20.5,ecc10neg,right,47,0,47,j,1,2.3823357000001124,None,0,2,2,2,47,0,47,0,440.31691930000125,,,,,,,,,,,,,,,440.30622100000073,440.31691930000125,440.31691930000125,441.2157279000003,440.31691930000125,442.7159425000009,j,1,2.3823357000001124,None,direct,13,"[19, 20, 18, 19, 18, 19, 17, 18, 17, 18, 14, 19, 18, 20, 18, 19, 17, 18, 17, 18, 16, 17, 16, 17, 12, 13, 12, 13]",28,shifteddirectgaze.png,j,1,3,results6,001,2026-04-13_13h01.39.979,mogelijke versie adaptive staircase builder,,2026.1.3,60.01014171432663,2026-04-13 13h01.40.313576 +0200,
20.5,ecc10neg,right,48,0,48,j,0,1.2939348999989306,None,0,2,2,2,48,0,48,0,442.81336060000103,,,,,,,,,,,,,,,442.80282120000084,442.81336060000103,442.81336060000103,443.71575420000045,442.81336060000103,444.1159415000002,j,0,1.2939348999989306,None,left,12,"[19, 20, 18, 19, 18, 19, 17, 18, 17, 18, 14, 19, 18, 20, 18, 19, 17, 18, 17, 18, 16, 17, 16, 17, 12, 13, 12, 13, 12]",29,shiftedgaze_L_12.png,j,0,3,results6,001,2026-04-13_13h01.39.979,mogelijke versie adaptive staircase builder,,2026.1.3,60.01014171432663,2026-04-13 13h01.40.313576 +0200,
20.5,ecc10neg,right,49,0,49,j,1,1.3503249999994296,None,0,2,2,2,49,0,49,0,444.2128979000008,,,,,,,,,,,,,,,444.20188110000163,444.2128979000008,444.2128979000008,445.11570160000156,444.2128979000008,445.56583280000086,j,1,1.3503249999994296,None,direct,13,"[19, 20, 18, 19, 18, 19, 17, 18, 17, 18, 14, 19, 18, 20, 18, 19, 17, 18, 17, 18, 16, 17, 16, 17, 12, 13, 12, 13, 12, 13]",30,shifteddirectgaze.png,j,1,3,results6,001,2026-04-13_13h01.39.979,mogelijke versie adaptive staircase builder,,2026.1.3,60.01014171432663,2026-04-13 13h01.40.313576 +0200,
20.5,ecc10neg,right,50,0,50,j,0,1.3701359999995475,None,0,2,2,2,50,0,50,0,445.6890684000009,,,,,,,,,,,,,,,445.67896350000046,445.6890684000009,445.6890684000009,446.5656912000013,445.6890684000009,447.0659861000004,j,0,1.3701359999995475,None,right,12,"[19, 20, 18, 19, 18, 19, 17, 18, 17, 18, 14, 19, 18, 20, 18, 19, 17, 18, 17, 18, 16, 17, 16, 17, 12, 13, 12, 13, 12, 13, 12]",31,shiftedgaze_R_12.png,j,0,3,results6,001,2026-04-13_13h01.39.979,mogelijke versie adaptive staircase builder,,2026.1.3,60.01014171432663,2026-04-13 13h01.40.313576 +0200,
20.5,ecc10neg,right,51,0,51,f,1,2.2445432000004075,None,0,2,2,2,51,0,51,0,447.19085200000154,,,,,,,,,,,,,,,447.1806049000006,447.19085200000154,447.19085200000154,448.06558750000113,447.19085200000154,449.4492136000008,f,1,2.2445432000004075,None,left,13,"[19, 20, 18, 19, 18, 19, 17, 18, 17, 18, 14, 19, 18, 20, 18, 19, 17, 18, 17, 18, 16, 17, 16, 17, 12, 13, 12, 13, 12, 13, 12, 13]",32,shiftedgaze_L_13.png,f,1,3,results6,001,2026-04-13_13h01.39.979,mogelijke versie adaptive staircase builder,,2026.1.3,60.01014171432663,2026-04-13 13h01.40.313576 +0200,
20.5,ecc10neg,right,52,0,52,f,0,1.455516500000158,None,0,2,2,2,52,0,52,0,449.5475750000005,,,,,,,,,,,,,,,449.53684910000084,449.5475750000005,449.5475750000005,450.4489357000002,449.5475750000005,451.01570020000145,f,0,1.455516500000158,None,direct,12,"[19, 20, 18, 19, 18, 19, 17, 18, 17, 18, 14, 19, 18, 20, 18, 19, 17, 18, 17, 18, 16, 17, 16, 17, 12, 13, 12, 13, 12, 13, 12, 13, 12]",33,shifteddirectgaze.png,f,0,3,results6,001,2026-04-13_13h01.39.979,mogelijke versie adaptive staircase builder,,2026.1.3,60.01014171432663,2026-04-13 13h01.40.313576 +0200,
20.5,ecc10neg,right,53,0,53,f,0,1.505931399999099,None,0,2,2,2,53,0,53,0,451.11326570000165,,,,,,,,,,,,,,,451.1028600000009,451.11326570000165,451.11326570000165,452.01538300000175,451.11326570000165,452.6322951000002,f,0,1.505931399999099,None,direct,13,"[19, 20, 18, 19, 18, 19, 17, 18, 17, 18, 14, 19, 18, 20, 18, 19, 17, 18, 17, 18, 16, 17, 16, 17, 12, 13, 12, 13, 12, 13, 12, 13, 12]",33,shifteddirectgaze.png,f,0,3,results6,001,2026-04-13_13h01.39.979,mogelijke versie adaptive staircase builder,,2026.1.3,60.01014171432663,2026-04-13 13h01.40.313576 +0200,
20.5,ecc10neg,right,54,0,54,j,0,1.7474077000006218,None,0,2,2,2,54,0,54,0,452.7280359000015,,,,,,,,,,,,,,,452.7171821000011,452.7280359000015,452.7280359000015,453.6320433000001,452.7280359000015,454.4822415000017,j,0,1.7474077000006218,None,left,14,"[19, 20, 18, 19, 18, 19, 17, 18, 17, 18, 14, 19, 18, 20, 18, 19, 17, 18, 17, 18, 16, 17, 16, 17, 12, 13, 12, 13, 12, 13, 12, 13, 12]",33,shiftedgaze_L_14.png,j,0,3,results6,001,2026-04-13_13h01.39.979,mogelijke versie adaptive staircase builder,,2026.1.3,60.01014171432663,2026-04-13 13h01.40.313576 +0200,
20.5,ecc10neg,right,55,0,55,j,0,2.9815358000014385,None,0,2,2,2,55,0,55,0,454.58179480000035,,,,,,,,,,,,,,,454.5711002000007,454.58179480000035,454.58179480000035,455.4821434000005,454.58179480000035,457.5658131,j,0,2.9815358000014385,None,left,15,"[19, 20, 18, 19, 18, 19, 17, 18, 17, 18, 14, 19, 18, 20, 18, 19, 17, 18, 17, 18, 16, 17, 16, 17, 12, 13, 12, 13, 12, 13, 12, 13, 12]",33,shiftedgaze_L_15.png,j,0,3,results6,001,2026-04-13_13h01.39.979,mogelijke versie adaptive staircase builder,,2026.1.3,60.01014171432663,2026-04-13 13h01.40.313576 +0200,
20.5,ecc10neg,right,56,0,56,j,1,1.4204314999988128,None,0,2,2,2,56,0,56,0,457.66284000000087,,,,,,,,,,,,,,,457.6524756000017,457.66284000000087,457.66284000000087,458.56535580000127,457.66284000000087,459.0990221000011,j,1,1.4204314999988128,None,direct,16,"[19, 20, 18, 19, 18, 19, 17, 18, 17, 18, 14, 19, 18, 20, 18, 19, 17, 18, 17, 18, 16, 17, 16, 17, 12, 13, 12, 13, 12, 13, 12, 13, 12, 16]",34,shifteddirectgaze.png,j,1,3,results6,001,2026-04-13_13h01.39.979,mogelijke versie adaptive staircase builder,,2026.1.3,60.01014171432663,2026-04-13 13h01.40.313576 +0200,
20.5,ecc10neg,right,57,0,57,f,0,3.5507718000008026,None,0,2,2,2,57,0,57,0,459.1964968000011,,,,,,,,,,,,,,,459.18575300000157,459.1964968000011,459.1964968000011,460.09861960000126,459.1964968000011,462.7487899000007,f,0,3.5507718000008026,None,direct,15,"[19, 20, 18, 19, 18, 19, 17, 18, 17, 18, 14, 19, 18, 20, 18, 19, 17, 18, 17, 18, 16, 17, 16, 17, 12, 13, 12, 13, 12, 13, 12, 13, 12, 16, 15]",35,shifteddirectgaze.png,f,0,3,results6,001,2026-04-13_13h01.39.979,mogelijke versie adaptive staircase builder,,2026.1.3,60.01014171432663,2026-04-13 13h01.40.313576 +0200,
20.5,ecc10neg,right,58,0,58,f,1,2.016003800001272,None,0,2,2,2,58,0,58,0,462.8831517000017,,,,,,,,,,,,,,,462.8720890000004,462.8831517000017,462.8831517000017,463.74867919999997,462.8831517000017,464.9159287000002,f,1,2.016003800001272,None,right,16,"[19, 20, 18, 19, 18, 19, 17, 18, 17, 18, 14, 19, 18, 20, 18, 19, 17, 18, 17, 18, 16, 17, 16, 17, 12, 13, 12, 13, 12, 13, 12, 13, 12, 16, 15, 16]",36,shiftedgaze_R_16.png,f,1,3,results6,001,2026-04-13_13h01.39.979,mogelijke versie adaptive staircase builder,,2026.1.3,60.01014171432663,2026-04-13 13h01.40.313576 +0200,
20.5,ecc10neg,right,59,0,59,f,1,1.9520792000002984,None,0,2,2,2,59,0,59,0,465.03515700000025,,,,,,,,,,,,,,,465.0240803000015,465.03515700000025,465.03515700000025,465.9153535000005,465.03515700000025,466.9988071000007,f,1,1.9520792000002984,None,left,15,"[19, 20, 18, 19, 18, 19, 17, 18, 17, 18, 14, 19, 18, 20, 18, 19, 17, 18, 17, 18, 16, 17, 16, 17, 12, 13, 12, 13, 12, 13, 12, 13, 12, 16, 15, 16]",36,shiftedgaze_L_15.png,f,1,3,results6,001,2026-04-13_13h01.39.979,mogelijke versie adaptive staircase builder,,2026.1.3,60.01014171432663,2026-04-13 13h01.40.313576 +0200,
20.5,ecc10neg,right,2,2,0,,,,,0,2,2,2,,,,,,,,,,,,,,,,,,,,,,,,,,,,,,,,,,,,,,results6,001,2026-04-13_13h01.39.979,mogelijke versie adaptive staircase builder,,2026.1.3,60.01014171432663,2026-04-13 13h01.40.313576 +0200,
