xPos,stimulusSet,whichImage,thisN,thisTrialN,thisRepN,key_resp.keys,key_resp.corr,key_resp.rt,key_resp.duration,blocks.thisRepN,blocks.thisTrialN,blocks.thisN,blocks.thisIndex,trials.thisRepN,trials.thisTrialN,trials.thisN,trials.thisIndex,thisRow.t,notes,piloting,intro.started,introinstructions.started,intro_key.started,demo_image_left.started,demo_image_middle.started,demo_image_right.started,intro.stopped,intro_key.keys,intro_key.rt,intro_key.duration,block_start.started,block_start.stopped,trial.started,key_resp.started,middle_image.started,right_image.started,left_image.started,trial.stopped,trials.key_resp.keys,trials.key_resp.corr,trials.key_resp.rt,trials.key_resp.duration,direction,angle,reversal_intensities,number_reversals,stimulus,response,correct,blockNumber,participant,session,date,expName,expVersion,psychopyVersion,frameRate,expStart,
,,,,,,,,,,,,,,,,,,,,False,0.05133639999985462,0.0609679999997752,0.0609679999997752,0.0609679999997752,0.0609679999997752,0.0609679999997752,2067.6033747,space,2067.373706300001,0.15209169999980077,,,,,,,,,,,,,,,,,,,,,results30,001,2026-04-20_13h24.47.330,mogelijke versie adaptive staircase builder,,2026.1.3,60.03244153120417,2026-04-20 13h24.47.585592 +0200,
4.5,ecc10pos,left,0,0,0,j,1,5.945383100000981,None,0,0,0,0,0,0,0,0,2067.961215899999,,,,,,,,,,,,,2067.8402248,2067.840282699999,2067.9505348000002,2067.961215899999,2067.961215899999,2067.961215899999,2068.8528243,2073.9198213,j,1,5.945383100000981,None,direct,20,[],0,shifteddirectgaze.png,j,1,1,results30,001,2026-04-20_13h24.47.330,mogelijke versie adaptive staircase builder,,2026.1.3,60.03244153120417,2026-04-20 13h24.47.585592 +0200,
4.5,ecc10pos,left,1,0,1,f,0,3.0245323999988614,None,0,0,0,0,1,0,1,0,2074.019704299999,,,,,,,,,,,,,,,2074.0091992999987,2074.019704299999,2074.019704299999,2074.019704299999,2074.9195026999987,2077.0531106,f,0,3.0245323999988614,None,direct,19,[19],1,shifteddirectgaze.png,f,0,1,results30,001,2026-04-20_13h24.47.330,mogelijke versie adaptive staircase builder,,2026.1.3,60.03244153120417,2026-04-20 13h24.47.585592 +0200,
4.5,ecc10pos,left,2,0,2,j,0,4.2604917000007845,None,0,0,0,0,2,0,2,0,2077.1581184999995,,,,,,,,,,,,,,,2077.1466533000003,2077.1581184999995,2077.1581184999995,2077.1581184999995,2078.0527636999996,2081.420153699999,j,0,4.2604917000007845,None,right,20,[19],1,shiftedgaze_R_20.png,j,0,1,results30,001,2026-04-20_13h24.47.330,mogelijke versie adaptive staircase builder,,2026.1.3,60.03244153120417,2026-04-20 13h24.47.585592 +0200,
4.5,ecc10pos,left,3,0,3,j,0,3.05894889999945,None,0,0,0,0,3,0,3,0,2081.5197346999994,,,,,,,,,,,,,,,2081.5094613,2081.5197346999994,2081.5197346999994,2081.5197346999994,2082.419284899999,2084.586416599999,j,0,3.05894889999945,None,right,20,[19],1,shiftedgaze_R_20.png,j,0,1,results30,001,2026-04-20_13h24.47.330,mogelijke versie adaptive staircase builder,,2026.1.3,60.03244153120417,2026-04-20 13h24.47.585592 +0200,
4.5,ecc10pos,left,4,0,4,j,0,3.359914500000741,None,0,0,0,0,4,0,4,0,2084.6841914999986,,,,,,,,,,,,,,,2084.673478499999,2084.6841914999986,2084.6841914999986,2084.6841914999986,2085.5858143999994,2088.053074399999,j,0,3.359914500000741,None,right,20,[19],1,shiftedgaze_R_20.png,j,0,1,results30,001,2026-04-20_13h24.47.330,mogelijke versie adaptive staircase builder,,2026.1.3,60.03244153120417,2026-04-20 13h24.47.585592 +0200,
4.5,ecc10pos,left,5,0,5,j,0,4.339023000000452,None,0,0,0,0,5,0,5,0,2088.151587999999,,,,,,,,,,,,,,,2088.140887399999,2088.151587999999,2088.151587999999,2088.151587999999,2089.052517,2092.5029145999997,j,0,4.339023000000452,None,right,20,[19],1,shiftedgaze_R_20.png,j,0,1,results30,001,2026-04-20_13h24.47.330,mogelijke versie adaptive staircase builder,,2026.1.3,60.03244153120417,2026-04-20 13h24.47.585592 +0200,
4.5,ecc10pos,left,6,0,6,f,0,3.7853197000004,None,0,0,0,0,6,0,6,0,2092.6018169,,,,,,,,,,,,,,,2092.5917677999987,2092.6018169,2092.6018169,2092.6018169,2093.5032357,2096.4041113000003,f,0,3.7853197000004,None,direct,20,[19],1,shifteddirectgaze.png,f,0,1,results30,001,2026-04-20_13h24.47.330,mogelijke versie adaptive staircase builder,,2026.1.3,60.03244153120417,2026-04-20 13h24.47.585592 +0200,
4.5,ecc10pos,left,7,0,7,j,1,3.52464449999934,None,0,0,0,0,7,0,7,0,2096.5194302,,,,,,,,,,,,,,,2096.5062823999997,2096.5194302,2096.5194302,2096.5194302,2097.419411699999,2100.0528557,j,1,3.52464449999934,None,direct,20,"[19, 20]",2,shifteddirectgaze.png,j,1,1,results30,001,2026-04-20_13h24.47.330,mogelijke versie adaptive staircase builder,,2026.1.3,60.03244153120417,2026-04-20 13h24.47.585592 +0200,
4.5,ecc10pos,left,8,0,8,f,1,3.479999700000917,None,0,0,0,0,8,0,8,0,2100.1705702,,,,,,,,,,,,,,,2100.1606357,2100.1705702,2100.1705702,2100.1705702,2101.0523792000004,2103.652797999999,f,1,3.479999700000917,None,right,19,"[19, 20]",2,shiftedgaze_R_19.png,f,1,1,results30,001,2026-04-20_13h24.47.330,mogelijke versie adaptive staircase builder,,2026.1.3,60.03244153120417,2026-04-20 13h24.47.585592 +0200,
4.5,ecc10pos,left,9,0,9,j,1,5.242237000000387,None,0,0,0,0,9,0,9,0,2103.7683694999996,,,,,,,,,,,,,,,2103.758683599999,2103.7683694999996,2103.7683694999996,2103.7683694999996,2104.652435,2109.019467799999,j,1,5.242237000000387,None,direct,18,"[19, 20]",2,shifteddirectgaze.png,j,1,1,results30,001,2026-04-20_13h24.47.330,mogelijke versie adaptive staircase builder,,2026.1.3,60.03244153120417,2026-04-20 13h24.47.585592 +0200,
4.5,ecc10pos,left,10,0,10,j,1,5.10796610000034,None,0,0,0,0,10,0,10,0,2109.1191786,,,,,,,,,,,,,,,2109.1084847,2109.1191786,2109.1191786,2109.1191786,2110.0189264,2114.2360642999993,j,1,5.10796610000034,None,direct,17,"[19, 20]",2,shifteddirectgaze.png,j,1,1,results30,001,2026-04-20_13h24.47.330,mogelijke versie adaptive staircase builder,,2026.1.3,60.03244153120417,2026-04-20 13h24.47.585592 +0200,
4.5,ecc10pos,left,11,0,11,f,1,4.173124499999176,None,0,0,0,0,11,0,11,0,2114.373604799999,,,,,,,,,,,,,,,2114.359540199999,2114.373604799999,2114.373604799999,2114.373604799999,2115.235552599999,2118.552554,f,1,4.173124499999176,None,left,16,"[19, 20]",2,shiftedgaze_L_16.png,f,1,1,results30,001,2026-04-20_13h24.47.330,mogelijke versie adaptive staircase builder,,2026.1.3,60.03244153120417,2026-04-20 13h24.47.585592 +0200,
4.5,ecc10pos,left,12,0,12,j,1,4.828179199999795,None,0,0,0,0,12,0,12,0,2118.6705445999996,,,,,,,,,,,,,,,2118.6595687999998,2118.6705445999996,2118.6705445999996,2118.6705445999996,2119.5521579999986,2123.5025014000003,j,1,4.828179199999795,None,direct,15,"[19, 20]",2,shifteddirectgaze.png,j,1,1,results30,001,2026-04-20_13h24.47.330,mogelijke versie adaptive staircase builder,,2026.1.3,60.03244153120417,2026-04-20 13h24.47.585592 +0200,
4.5,ecc10pos,left,13,0,13,j,0,4.4169698000005155,None,0,0,0,0,13,0,13,0,2123.6103879,,,,,,,,,,,,,,,2123.5998794999996,2123.6103879,2123.6103879,2123.6103879,2124.5021354,2128.0359749,j,0,4.4169698000005155,None,left,14,"[19, 20, 14]",3,shiftedgaze_L_14.png,j,0,1,results30,001,2026-04-20_13h24.47.330,mogelijke versie adaptive staircase builder,,2026.1.3,60.03244153120417,2026-04-20 13h24.47.585592 +0200,
4.5,ecc10pos,left,14,0,14,f,0,3.8046101999989332,None,0,0,0,0,14,0,14,0,2128.1341912999997,,,,,,,,,,,,,,,2128.1234612999997,2128.1341912999997,2128.1341912999997,2128.1341912999997,2129.035339599999,2131.952568499999,f,0,3.8046101999989332,None,direct,15,"[19, 20, 14]",3,shifteddirectgaze.png,f,0,1,results30,001,2026-04-20_13h24.47.330,mogelijke versie adaptive staircase builder,,2026.1.3,60.03244153120417,2026-04-20 13h24.47.585592 +0200,
4.5,ecc10pos,left,15,0,15,j,0,2.526076699999976,None,0,0,0,0,15,0,15,0,2132.0606560999986,,,,,,,,,,,,,,,2132.0488661,2132.0606560999986,2132.0606560999986,2132.0606560999986,2132.9520591,2134.602357399999,j,0,2.526076699999976,None,right,16,"[19, 20, 14]",3,shiftedgaze_R_16.png,j,0,1,results30,001,2026-04-20_13h24.47.330,mogelijke versie adaptive staircase builder,,2026.1.3,60.03244153120417,2026-04-20 13h24.47.585592 +0200,
4.5,ecc10pos,left,16,0,16,j,0,2.438793399998758,None,0,0,0,0,16,0,16,0,2134.707944599999,,,,,,,,,,,,,,,2134.6972343999987,2134.707944599999,2134.707944599999,2134.707944599999,2135.6018434999987,2137.152427699999,j,0,2.438793399998758,None,right,17,"[19, 20, 14]",3,shiftedgaze_R_17.png,j,0,1,results30,001,2026-04-20_13h24.47.330,mogelijke versie adaptive staircase builder,,2026.1.3,60.03244153120417,2026-04-20 13h24.47.585592 +0200,
4.5,ecc10pos,left,17,0,17,f,1,2.8245503999987704,None,0,0,0,0,17,0,17,0,2137.2581993000003,,,,,,,,,,,,,,,2137.246735499999,2137.2581993000003,2137.2581993000003,2137.2581993000003,2138.151901699999,2140.0856301000003,f,1,2.8245503999987704,None,right,18,"[19, 20, 14, 18]",4,shiftedgaze_R_18.png,f,1,1,results30,001,2026-04-20_13h24.47.330,mogelijke versie adaptive staircase builder,,2026.1.3,60.03244153120417,2026-04-20 13h24.47.585592 +0200,
4.5,ecc10pos,left,18,0,18,j,0,3.8500850000000355,None,0,0,0,0,18,0,18,0,2140.1849672999997,,,,,,,,,,,,,,,2140.1745553,2140.1849672999997,2140.1849672999997,2140.1849672999997,2141.085193499999,2144.0362890999986,j,0,3.8500850000000355,None,right,17,"[19, 20, 14, 18, 17]",5,shiftedgaze_R_17.png,j,0,1,results30,001,2026-04-20_13h24.47.330,mogelijke versie adaptive staircase builder,,2026.1.3,60.03244153120417,2026-04-20 13h24.47.585592 +0200,
4.5,ecc10pos,left,19,0,19,j,1,6.06148199999916,None,0,0,0,0,19,0,19,0,2144.1332282999992,,,,,,,,,,,,,,,2144.1229193,2144.1332282999992,2144.1332282999992,2144.1332282999992,2145.0517793,2150.202215699999,j,1,6.06148199999916,None,direct,18,"[19, 20, 14, 18, 17, 18]",6,shifteddirectgaze.png,j,1,1,results30,001,2026-04-20_13h24.47.330,mogelijke versie adaptive staircase builder,,2026.1.3,60.03244153120417,2026-04-20 13h24.47.585592 +0200,
4.5,ecc10pos,left,20,0,20,j,1,6.0050317000004725,None,0,0,0,0,20,0,20,0,2150.301646599999,,,,,,,,,,,,,,,2150.290857,2150.301646599999,2150.301646599999,2150.301646599999,2151.2016633999992,2156.3193964,j,1,6.0050317000004725,None,direct,17,"[19, 20, 14, 18, 17, 18]",6,shifteddirectgaze.png,j,1,1,results30,001,2026-04-20_13h24.47.330,mogelijke versie adaptive staircase builder,,2026.1.3,60.03244153120417,2026-04-20 13h24.47.585592 +0200,
4.5,ecc10pos,left,21,0,21,f,1,3.7247471999999107,None,0,0,0,0,21,0,21,0,2156.4460308999987,,,,,,,,,,,,,,,2156.4347431999995,2156.4460308999987,2156.4460308999987,2156.4460308999987,2157.3348988999987,2160.1853768,f,1,3.7247471999999107,None,left,16,"[19, 20, 14, 18, 17, 18]",6,shiftedgaze_L_16.png,f,1,1,results30,001,2026-04-20_13h24.47.330,mogelijke versie adaptive staircase builder,,2026.1.3,60.03244153120417,2026-04-20 13h24.47.585592 +0200,
4.5,ecc10pos,left,22,0,22,j,0,2.8664408000004187,None,0,0,0,0,22,0,22,0,2160.312272199999,,,,,,,,,,,,,,,2160.3010467999993,2160.312272199999,2160.312272199999,2160.312272199999,2161.1848893999995,2163.1854031000003,j,0,2.8664408000004187,None,left,15,"[19, 20, 14, 18, 17, 18, 15]",7,shiftedgaze_L_15.png,j,0,1,results30,001,2026-04-20_13h24.47.330,mogelijke versie adaptive staircase builder,,2026.1.3,60.03244153120417,2026-04-20 13h24.47.585592 +0200,
4.5,ecc10pos,left,23,0,23,j,1,3.038225099999181,None,0,0,0,0,23,0,23,0,2163.2925509999986,,,,,,,,,,,,,,,2163.2827799999995,2163.2925509999986,2163.2925509999986,2163.2925509999986,2164.1847975,2166.335348299999,j,1,3.038225099999181,None,direct,16,"[19, 20, 14, 18, 17, 18, 15, 16]",8,shifteddirectgaze.png,j,1,1,results30,001,2026-04-20_13h24.47.330,mogelijke versie adaptive staircase builder,,2026.1.3,60.03244153120417,2026-04-20 13h24.47.585592 +0200,
4.5,ecc10pos,left,24,0,24,j,1,2.4645137999996223,None,0,0,0,0,24,0,24,0,2166.4342785999997,,,,,,,,,,,,,,,2166.4225480999994,2166.4342785999997,2166.4342785999997,2166.4342785999997,2167.3348915999995,2168.902086599999,j,1,2.4645137999996223,None,direct,15,"[19, 20, 14, 18, 17, 18, 15, 16]",8,shifteddirectgaze.png,j,1,1,results30,001,2026-04-20_13h24.47.330,mogelijke versie adaptive staircase builder,,2026.1.3,60.03244153120417,2026-04-20 13h24.47.585592 +0200,
4.5,ecc10pos,left,25,0,25,j,0,2.6357399000007717,None,0,0,0,0,25,0,25,0,2169.0069332000003,,,,,,,,,,,,,,,2168.9964524999996,2169.0069332000003,2169.0069332000003,2169.0069332000003,2169.9015184,2171.652092099999,j,0,2.6357399000007717,None,right,14,"[19, 20, 14, 18, 17, 18, 15, 16, 14]",9,shiftedgaze_R_14.png,j,0,1,results30,001,2026-04-20_13h24.47.330,mogelijke versie adaptive staircase builder,,2026.1.3,60.03244153120417,2026-04-20 13h24.47.585592 +0200,
4.5,ecc10pos,left,26,0,26,f,1,4.798984900000505,None,0,0,0,0,26,0,26,0,2171.7557332999986,,,,,,,,,,,,,,,2171.7448074000004,2171.7557332999986,2171.7557332999986,2171.7557332999986,2172.6514004,2176.5685889999986,f,1,4.798984900000505,None,right,15,"[19, 20, 14, 18, 17, 18, 15, 16, 14, 15]",10,shiftedgaze_R_15.png,f,1,1,results30,001,2026-04-20_13h24.47.330,mogelijke versie adaptive staircase builder,,2026.1.3,60.03244153120417,2026-04-20 13h24.47.585592 +0200,
4.5,ecc10pos,left,27,0,27,j,0,2.9919781999997213,None,0,0,0,0,27,0,27,0,2176.666680799999,,,,,,,,,,,,,,,2176.655943399999,2176.666680799999,2176.666680799999,2176.666680799999,2177.5681043999994,2179.6684084999997,j,0,2.9919781999997213,None,right,14,"[19, 20, 14, 18, 17, 18, 15, 16, 14, 15, 14]",11,shiftedgaze_R_14.png,j,0,1,results30,001,2026-04-20_13h24.47.330,mogelijke versie adaptive staircase builder,,2026.1.3,60.03244153120417,2026-04-20 13h24.47.585592 +0200,
4.5,ecc10pos,left,28,0,28,j,1,3.802903799998603,None,0,0,0,0,28,0,28,0,2179.7678364999992,,,,,,,,,,,,,,,2179.7570724999987,2179.7678364999992,2179.7678364999992,2179.7678364999992,2180.667918699999,2183.5849406999987,j,1,3.802903799998603,None,direct,15,"[19, 20, 14, 18, 17, 18, 15, 16, 14, 15, 14, 15]",12,shifteddirectgaze.png,j,1,1,results30,001,2026-04-20_13h24.47.330,mogelijke versie adaptive staircase builder,,2026.1.3,60.03244153120417,2026-04-20 13h24.47.585592 +0200,
4.5,ecc10pos,left,29,0,29,j,0,3.7901927000002615,None,0,0,0,0,29,0,29,0,2183.684748399999,,,,,,,,,,,,,,,2183.674128299999,2183.684748399999,2183.684748399999,2183.684748399999,2184.5845575000003,2187.4850779999997,j,0,3.7901927000002615,None,right,14,"[19, 20, 14, 18, 17, 18, 15, 16, 14, 15, 14, 15, 14]",13,shiftedgaze_R_14.png,j,0,1,results30,001,2026-04-20_13h24.47.330,mogelijke versie adaptive staircase builder,,2026.1.3,60.03244153120417,2026-04-20 13h24.47.585592 +0200,
4.5,ecc10pos,left,30,0,30,j,0,2.959628299999167,None,0,0,0,0,30,0,30,0,2187.5870636,,,,,,,,,,,,,,,2187.5773183,2187.5870636,2187.5870636,2187.5870636,2188.4845329,2190.5513672999987,j,0,2.959628299999167,None,left,15,"[19, 20, 14, 18, 17, 18, 15, 16, 14, 15, 14, 15, 14]",13,shiftedgaze_L_15.png,j,0,1,results30,001,2026-04-20_13h24.47.330,mogelijke versie adaptive staircase builder,,2026.1.3,60.03244153120417,2026-04-20 13h24.47.585592 +0200,
4.5,ecc10pos,left,31,0,31,f,0,4.118060500000865,None,0,0,0,0,31,0,31,0,2190.6526717999986,,,,,,,,,,,,,,,2190.6425731,2190.6526717999986,2190.6526717999986,2190.6526717999986,2191.551124899999,2194.7850400999996,f,0,4.118060500000865,None,direct,16,"[19, 20, 14, 18, 17, 18, 15, 16, 14, 15, 14, 15, 14]",13,shifteddirectgaze.png,f,0,1,results30,001,2026-04-20_13h24.47.330,mogelijke versie adaptive staircase builder,,2026.1.3,60.03244153120417,2026-04-20 13h24.47.585592 +0200,
4.5,ecc10pos,left,32,0,32,j,1,2.1906969000010577,None,0,0,0,0,32,0,32,0,2194.8760956999995,,,,,,,,,,,,,,,2194.8653648,2194.8760956999995,2194.8760956999995,2194.8760956999995,2195.7853471,2197.0682314999995,j,1,2.1906969000010577,None,direct,17,"[19, 20, 14, 18, 17, 18, 15, 16, 14, 15, 14, 15, 14, 17]",14,shifteddirectgaze.png,j,1,1,results30,001,2026-04-20_13h24.47.330,mogelijke versie adaptive staircase builder,,2026.1.3,60.03244153120417,2026-04-20 13h24.47.585592 +0200,
4.5,ecc10pos,left,33,0,33,j,1,3.1070340999995096,None,0,0,0,0,33,0,33,0,2197.1597072999994,,,,,,,,,,,,,,,2197.1483193000004,2197.1597072999994,2197.1597072999994,2197.1597072999994,2198.067670299999,2200.2682265999993,j,1,3.1070340999995096,None,direct,16,"[19, 20, 14, 18, 17, 18, 15, 16, 14, 15, 14, 15, 14, 17]",14,shifteddirectgaze.png,j,1,1,results30,001,2026-04-20_13h24.47.330,mogelijke versie adaptive staircase builder,,2026.1.3,60.03244153120417,2026-04-20 13h24.47.585592 +0200,
4.5,ecc10pos,left,34,0,34,f,1,3.920869199999288,None,0,0,0,0,34,0,34,0,2200.3707973,,,,,,,,,,,,,,,2200.3604216000003,2200.3707973,2200.3707973,2200.3707973,2201.2677956999996,2204.3014098999993,f,1,3.920869199999288,None,left,15,"[19, 20, 14, 18, 17, 18, 15, 16, 14, 15, 14, 15, 14, 17]",14,shiftedgaze_L_15.png,f,1,1,results30,001,2026-04-20_13h24.47.330,mogelijke versie adaptive staircase builder,,2026.1.3,60.03244153120417,2026-04-20 13h24.47.585592 +0200,
4.5,ecc10pos,left,35,0,35,f,1,7.8176637000015035,None,0,0,0,0,35,0,35,0,2204.4012337999993,,,,,,,,,,,,,,,2204.3905158,2204.4012337999993,2204.4012337999993,2204.4012337999993,2205.301007099999,2212.234876299999,f,1,7.8176637000015035,None,right,14,"[19, 20, 14, 18, 17, 18, 15, 16, 14, 15, 14, 15, 14, 17]",14,shiftedgaze_R_14.png,f,1,1,results30,001,2026-04-20_13h24.47.330,mogelijke versie adaptive staircase builder,,2026.1.3,60.03244153120417,2026-04-20 13h24.47.585592 +0200,
4.5,ecc10pos,left,36,0,36,f,1,2.906500099999903,None,0,0,0,0,36,0,36,0,2212.3362249,,,,,,,,,,,,,,,2212.3258133,2212.3362249,2212.3362249,2212.3362249,2213.234308199999,2215.2513708999995,f,1,2.906500099999903,None,left,13,"[19, 20, 14, 18, 17, 18, 15, 16, 14, 15, 14, 15, 14, 17]",14,shiftedgaze_L_13.png,f,1,1,results30,001,2026-04-20_13h24.47.330,mogelijke versie adaptive staircase builder,,2026.1.3,60.03244153120417,2026-04-20 13h24.47.585592 +0200,
4.5,ecc10pos,left,37,0,37,f,1,3.923956900000121,None,0,0,0,0,37,0,37,0,2215.3507766000002,,,,,,,,,,,,,,,2215.340379699999,2215.3507766000002,2215.3507766000002,2215.3507766000002,2216.2509959,2219.2847165000003,f,1,3.923956900000121,None,left,12,"[19, 20, 14, 18, 17, 18, 15, 16, 14, 15, 14, 15, 14, 17]",14,shiftedgaze_L_12.png,f,1,1,results30,001,2026-04-20_13h24.47.330,mogelijke versie adaptive staircase builder,,2026.1.3,60.03244153120417,2026-04-20 13h24.47.585592 +0200,
4.5,ecc10pos,left,38,0,38,f,1,2.730560499998319,None,0,0,0,0,38,0,38,0,2219.400181699999,,,,,,,,,,,,,,,2219.3902242000004,2219.400181699999,2219.400181699999,2219.400181699999,2220.2842087999998,2222.1345977,f,1,2.730560499998319,None,left,11,"[19, 20, 14, 18, 17, 18, 15, 16, 14, 15, 14, 15, 14, 17]",14,shiftedgaze_L_11.png,f,1,1,results30,001,2026-04-20_13h24.47.330,mogelijke versie adaptive staircase builder,,2026.1.3,60.03244153120417,2026-04-20 13h24.47.585592 +0200,
4.5,ecc10pos,left,39,0,39,j,0,2.918881399999009,None,0,0,0,0,39,0,39,0,2222.2518084999992,,,,,,,,,,,,,,,2222.2413801000002,2222.2518084999992,2222.2518084999992,2222.2518084999992,2223.1341715,2225.1844903,j,0,2.918881399999009,None,right,10,"[19, 20, 14, 18, 17, 18, 15, 16, 14, 15, 14, 15, 14, 17, 10]",15,shiftedgaze_R_10.png,j,0,1,results30,001,2026-04-20_13h24.47.330,mogelijke versie adaptive staircase builder,,2026.1.3,60.03244153120417,2026-04-20 13h24.47.585592 +0200,
4.5,ecc10pos,left,40,0,40,f,1,2.62995090000004,None,0,0,0,0,40,0,40,0,2225.2927155999987,,,,,,,,,,,,,,,2225.283184099999,2225.2927155999987,2225.2927155999987,2225.2927155999987,2226.184019799999,2227.9344318999993,f,1,2.62995090000004,None,left,11,"[19, 20, 14, 18, 17, 18, 15, 16, 14, 15, 14, 15, 14, 17, 10, 11]",16,shiftedgaze_L_11.png,f,1,1,results30,001,2026-04-20_13h24.47.330,mogelijke versie adaptive staircase builder,,2026.1.3,60.03244153120417,2026-04-20 13h24.47.585592 +0200,
4.5,ecc10pos,left,41,0,41,j,1,1.885279599999194,None,0,0,0,0,41,0,41,0,2228.0454694,,,,,,,,,,,,,,,2228.0353201,2228.0454694,2228.0454694,2228.0454694,2228.9340409999986,2229.9344629999996,j,1,1.885279599999194,None,direct,10,"[19, 20, 14, 18, 17, 18, 15, 16, 14, 15, 14, 15, 14, 17, 10, 11]",16,shifteddirectgaze.png,j,1,1,results30,001,2026-04-20_13h24.47.330,mogelijke versie adaptive staircase builder,,2026.1.3,60.03244153120417,2026-04-20 13h24.47.585592 +0200,
4.5,ecc10pos,left,42,0,42,j,0,4.386089899999206,None,0,0,0,0,42,0,42,0,2230.0326176,,,,,,,,,,,,,,,2230.0214505000004,2230.0326176,2230.0326176,2230.0326176,2230.9340302,2234.4344017000003,j,0,4.386089899999206,None,left,9,"[19, 20, 14, 18, 17, 18, 15, 16, 14, 15, 14, 15, 14, 17, 10, 11, 9]",17,shiftedgaze_L_9.png,j,0,1,results30,001,2026-04-20_13h24.47.330,mogelijke versie adaptive staircase builder,,2026.1.3,60.03244153120417,2026-04-20 13h24.47.585592 +0200,
4.5,ecc10pos,left,43,0,43,j,0,7.326232700001128,None,0,0,0,0,43,0,43,0,2234.5324390999995,,,,,,,,,,,,,,,2234.521778099999,2234.5324390999995,2234.5324390999995,2234.5324390999995,2235.4340710999986,2241.8675872000003,j,0,7.326232700001128,None,left,10,"[19, 20, 14, 18, 17, 18, 15, 16, 14, 15, 14, 15, 14, 17, 10, 11, 9]",17,shiftedgaze_L_10.png,j,0,1,results30,001,2026-04-20_13h24.47.330,mogelijke versie adaptive staircase builder,,2026.1.3,60.03244153120417,2026-04-20 13h24.47.585592 +0200,
4.5,ecc10pos,left,44,0,44,f,1,5.10680229999889,None,0,0,0,0,44,0,44,0,2241.9761922999987,,,,,,,,,,,,,,,2241.9658581000003,2241.9761922999987,2241.9761922999987,2241.9761922999987,2242.8671412000003,2247.0842372999996,f,1,5.10680229999889,None,left,11,"[19, 20, 14, 18, 17, 18, 15, 16, 14, 15, 14, 15, 14, 17, 10, 11, 9, 11]",18,shiftedgaze_L_11.png,f,1,1,results30,001,2026-04-20_13h24.47.330,mogelijke versie adaptive staircase builder,,2026.1.3,60.03244153120417,2026-04-20 13h24.47.585592 +0200,
4.5,ecc10pos,left,45,0,45,f,1,6.65143100000023,None,0,0,0,0,45,0,45,0,2247.1912888999996,,,,,,,,,,,,,,,2247.181694499999,2247.1912888999996,2247.1912888999996,2247.1912888999996,2248.0836990999996,2253.8507622999987,f,1,6.65143100000023,None,left,10,"[19, 20, 14, 18, 17, 18, 15, 16, 14, 15, 14, 15, 14, 17, 10, 11, 9, 11]",18,shiftedgaze_L_10.png,f,1,1,results30,001,2026-04-20_13h24.47.330,mogelijke versie adaptive staircase builder,,2026.1.3,60.03244153120417,2026-04-20 13h24.47.585592 +0200,
4.5,ecc10pos,left,46,0,46,j,0,1.9651095000008354,None,0,0,0,0,46,0,46,0,2253.9496726999987,,,,,,,,,,,,,,,2253.9387809,2253.9496726999987,2253.9496726999987,2253.9496726999987,2254.8504139999986,2255.9175821999997,j,0,1.9651095000008354,None,right,9,"[19, 20, 14, 18, 17, 18, 15, 16, 14, 15, 14, 15, 14, 17, 10, 11, 9, 11, 9]",19,shiftedgaze_R_9.png,j,0,1,results30,001,2026-04-20_13h24.47.330,mogelijke versie adaptive staircase builder,,2026.1.3,60.03244153120417,2026-04-20 13h24.47.585592 +0200,
4.5,ecc10pos,left,47,0,47,j,0,2.6505017999988922,None,0,0,0,0,47,0,47,0,2256.008544099999,,,,,,,,,,,,,,,2255.9974669000003,2256.008544099999,2256.008544099999,2256.008544099999,2256.9169514999994,2258.6674351,j,0,2.6505017999988922,None,right,10,"[19, 20, 14, 18, 17, 18, 15, 16, 14, 15, 14, 15, 14, 17, 10, 11, 9, 11, 9]",19,shiftedgaze_R_10.png,j,0,1,results30,001,2026-04-20_13h24.47.330,mogelijke versie adaptive staircase builder,,2026.1.3,60.03244153120417,2026-04-20 13h24.47.585592 +0200,
4.5,ecc10pos,left,48,0,48,j,1,3.860188799999378,None,0,0,0,0,48,0,48,0,2258.7586737,,,,,,,,,,,,,,,2258.748071,2258.7586737,2258.7586737,2258.7586737,2259.6669383999997,2262.6341046,j,1,3.860188799999378,None,direct,11,"[19, 20, 14, 18, 17, 18, 15, 16, 14, 15, 14, 15, 14, 17, 10, 11, 9, 11, 9, 11]",20,shifteddirectgaze.png,j,1,1,results30,001,2026-04-20_13h24.47.330,mogelijke versie adaptive staircase builder,,2026.1.3,60.03244153120417,2026-04-20 13h24.47.585592 +0200,
4.5,ecc10pos,left,49,0,49,j,1,2.51072540000132,None,0,0,0,0,49,0,49,0,2262.7239825999986,,,,,,,,,,,,,,,2262.7129105999993,2262.7239825999986,2262.7239825999986,2262.7239825999986,2263.6336279999996,2265.2505917,j,1,2.51072540000132,None,direct,10,"[19, 20, 14, 18, 17, 18, 15, 16, 14, 15, 14, 15, 14, 17, 10, 11, 9, 11, 9, 11]",20,shifteddirectgaze.png,j,1,1,results30,001,2026-04-20_13h24.47.330,mogelijke versie adaptive staircase builder,,2026.1.3,60.03244153120417,2026-04-20 13h24.47.585592 +0200,
4.5,ecc10pos,left,50,0,50,f,0,2.1009224000008544,None,0,0,0,0,50,0,50,0,2265.341804599999,,,,,,,,,,,,,,,2265.3310392999992,2265.341804599999,2265.341804599999,2265.341804599999,2266.250283199999,2267.4505714999996,f,0,2.1009224000008544,None,direct,9,"[19, 20, 14, 18, 17, 18, 15, 16, 14, 15, 14, 15, 14, 17, 10, 11, 9, 11, 9, 11, 9]",21,shifteddirectgaze.png,f,0,1,results30,001,2026-04-20_13h24.47.330,mogelijke versie adaptive staircase builder,,2026.1.3,60.03244153120417,2026-04-20 13h24.47.585592 +0200,
4.5,ecc10pos,left,51,0,51,f,0,3.471785399999135,None,0,0,0,0,51,0,51,0,2267.5390843999994,,,,,,,,,,,,,,,2267.5284085000003,2267.5390843999994,2267.5390843999994,2267.5390843999994,2268.450229599999,2271.0172647,f,0,3.471785399999135,None,direct,10,"[19, 20, 14, 18, 17, 18, 15, 16, 14, 15, 14, 15, 14, 17, 10, 11, 9, 11, 9, 11, 9]",21,shifteddirectgaze.png,f,0,1,results30,001,2026-04-20_13h24.47.330,mogelijke versie adaptive staircase builder,,2026.1.3,60.03244153120417,2026-04-20 13h24.47.585592 +0200,
4.5,ecc10pos,left,52,0,52,j,1,2.65445279999949,None,0,0,0,0,52,0,52,0,2271.1084197,,,,,,,,,,,,,,,2271.097177899999,2271.1084197,2271.1084197,2271.1084197,2272.017547399999,2273.7673266,j,1,2.65445279999949,None,direct,11,"[19, 20, 14, 18, 17, 18, 15, 16, 14, 15, 14, 15, 14, 17, 10, 11, 9, 11, 9, 11, 9, 11]",22,shifteddirectgaze.png,j,1,1,results30,001,2026-04-20_13h24.47.330,mogelijke versie adaptive staircase builder,,2026.1.3,60.03244153120417,2026-04-20 13h24.47.585592 +0200,
4.5,ecc10pos,left,53,0,53,j,1,3.8747553000011976,None,0,0,0,0,53,0,53,0,2273.8560273000003,,,,,,,,,,,,,,,2273.8457012,2273.8560273000003,2273.8560273000003,2273.8560273000003,2274.7667636999995,2277.733868199999,j,1,3.8747553000011976,None,direct,10,"[19, 20, 14, 18, 17, 18, 15, 16, 14, 15, 14, 15, 14, 17, 10, 11, 9, 11, 9, 11, 9, 11]",22,shifteddirectgaze.png,j,1,1,results30,001,2026-04-20_13h24.47.330,mogelijke versie adaptive staircase builder,,2026.1.3,60.03244153120417,2026-04-20 13h24.47.585592 +0200,
4.5,ecc10pos,left,54,0,54,j,0,2.6013775000010355,None,0,0,0,0,54,0,54,0,2277.825387699999,,,,,,,,,,,,,,,2277.8144807999997,2277.825387699999,2277.825387699999,2277.825387699999,2278.7335055999993,2280.4338331,j,0,2.6013775000010355,None,right,9,"[19, 20, 14, 18, 17, 18, 15, 16, 14, 15, 14, 15, 14, 17, 10, 11, 9, 11, 9, 11, 9, 11, 9]",23,shiftedgaze_R_9.png,j,0,1,results30,001,2026-04-20_13h24.47.330,mogelijke versie adaptive staircase builder,,2026.1.3,60.03244153120417,2026-04-20 13h24.47.585592 +0200,
4.5,ecc10pos,left,55,0,55,j,0,2.9412984999999026,None,0,0,0,0,55,0,55,0,2280.525745699999,,,,,,,,,,,,,,,2280.5145412,2280.525745699999,2280.525745699999,2280.525745699999,2281.4336829999993,2283.4839164999994,j,0,2.9412984999999026,None,left,10,"[19, 20, 14, 18, 17, 18, 15, 16, 14, 15, 14, 15, 14, 17, 10, 11, 9, 11, 9, 11, 9, 11, 9]",23,shiftedgaze_L_10.png,j,0,1,results30,001,2026-04-20_13h24.47.330,mogelijke versie adaptive staircase builder,,2026.1.3,60.03244153120417,2026-04-20 13h24.47.585592 +0200,
4.5,ecc10pos,left,56,0,56,j,0,3.4015255000012985,None,0,0,0,0,56,0,56,0,2283.5932606999995,,,,,,,,,,,,,,,2283.583181,2283.5932606999995,2283.5932606999995,2283.5932606999995,2284.4833041,2287.0004659999995,j,0,3.4015255000012985,None,left,11,"[19, 20, 14, 18, 17, 18, 15, 16, 14, 15, 14, 15, 14, 17, 10, 11, 9, 11, 9, 11, 9, 11, 9]",23,shiftedgaze_L_11.png,j,0,1,results30,001,2026-04-20_13h24.47.330,mogelijke versie adaptive staircase builder,,2026.1.3,60.03244153120417,2026-04-20 13h24.47.585592 +0200,
4.5,ecc10pos,left,57,0,57,j,1,1.7975366999999096,None,0,0,0,0,57,0,57,0,2287.1098093,,,,,,,,,,,,,,,2287.0998807999986,2287.1098093,2287.1098093,2287.1098093,2287.9998969999997,2288.9170589999994,j,1,1.7975366999999096,None,direct,12,"[19, 20, 14, 18, 17, 18, 15, 16, 14, 15, 14, 15, 14, 17, 10, 11, 9, 11, 9, 11, 9, 11, 9, 12]",24,shifteddirectgaze.png,j,1,1,results30,001,2026-04-20_13h24.47.330,mogelijke versie adaptive staircase builder,,2026.1.3,60.03244153120417,2026-04-20 13h24.47.585592 +0200,
4.5,ecc10pos,left,58,0,58,j,1,4.377788900001178,None,0,0,0,0,58,0,58,0,2289.009003899999,,,,,,,,,,,,,,,2288.9978462,2289.009003899999,2289.009003899999,2289.009003899999,2289.9166167000003,2293.400352499999,j,1,4.377788900001178,None,direct,11,"[19, 20, 14, 18, 17, 18, 15, 16, 14, 15, 14, 15, 14, 17, 10, 11, 9, 11, 9, 11, 9, 11, 9, 12]",24,shifteddirectgaze.png,j,1,1,results30,001,2026-04-20_13h24.47.330,mogelijke versie adaptive staircase builder,,2026.1.3,60.03244153120417,2026-04-20 13h24.47.585592 +0200,
4.5,ecc10pos,left,59,0,59,j,1,2.750799100000222,None,0,0,0,0,59,0,59,0,2293.4919047999992,,,,,,,,,,,,,,,2293.4810159999997,2293.4919047999992,2293.4919047999992,2293.4919047999992,2294.4002881999986,2296.2501269999993,j,1,2.750799100000222,None,direct,10,"[19, 20, 14, 18, 17, 18, 15, 16, 14, 15, 14, 15, 14, 17, 10, 11, 9, 11, 9, 11, 9, 11, 9, 12]",24,shifteddirectgaze.png,j,1,1,results30,001,2026-04-20_13h24.47.330,mogelijke versie adaptive staircase builder,,2026.1.3,60.03244153120417,2026-04-20 13h24.47.585592 +0200,
4.5,ecc10pos,left,0,0,0,,,,,0,0,0,0,,,,,,,,,,,,,,,,,,,,,,,,,,,,,,,,,,,,,,results30,001,2026-04-20_13h24.47.330,mogelijke versie adaptive staircase builder,,2026.1.3,60.03244153120417,2026-04-20 13h24.47.585592 +0200,
12.5,ecc0,mid,0,0,0,f,1,5.587880399998539,None,0,1,1,1,0,0,0,0,2296.3508879,,,,,,,,,,,,,2296.2526106999994,2296.2526478,2296.3405810000004,2296.3508879,2297.2665061999996,2296.3508879,2296.3508879,2301.9503372,f,1,5.587880399998539,None,left,20,[],0,gaze_L_20.png,f,1,2,results30,001,2026-04-20_13h24.47.330,mogelijke versie adaptive staircase builder,,2026.1.3,60.03244153120417,2026-04-20 13h24.47.585592 +0200,
12.5,ecc0,mid,1,0,1,j,1,4.546890800000256,None,0,1,1,1,1,0,1,0,2302.047918799999,,,,,,,,,,,,,,,2302.037292699999,2302.047918799999,2302.9497518999997,2302.047918799999,2302.047918799999,2306.6000833999988,j,1,4.546890800000256,None,direct,19,[],0,direct_gaze.png,j,1,2,results30,001,2026-04-20_13h24.47.330,mogelijke versie adaptive staircase builder,,2026.1.3,60.03244153120417,2026-04-20 13h24.47.585592 +0200,
12.5,ecc0,mid,2,0,2,j,0,2.685363200000211,None,0,1,1,1,2,0,2,0,2306.701483499999,,,,,,,,,,,,,,,2306.6903387,2306.701483499999,2307.6000164999987,2306.701483499999,2306.701483499999,2309.4000698,j,0,2.685363200000211,None,right,18,[18],1,gaze_R_18.png,j,0,2,results30,001,2026-04-20_13h24.47.330,mogelijke versie adaptive staircase builder,,2026.1.3,60.03244153120417,2026-04-20 13h24.47.585592 +0200,
12.5,ecc0,mid,3,0,3,f,1,3.318814199999906,None,0,1,1,1,3,0,3,0,2309.5000124,,,,,,,,,,,,,,,2309.489940199999,2309.5000124,2310.399750299999,2309.5000124,2309.5000124,2312.8333361999994,f,1,3.318814199999906,None,left,19,"[18, 19]",2,gaze_L_19.png,f,1,2,results30,001,2026-04-20_13h24.47.330,mogelijke versie adaptive staircase builder,,2026.1.3,60.03244153120417,2026-04-20 13h24.47.585592 +0200,
12.5,ecc0,mid,4,0,4,j,1,4.367522300000928,None,0,1,1,1,4,0,4,0,2312.9232090999994,,,,,,,,,,,,,,,2312.9123526999992,2312.9232090999994,2313.8329538999988,2312.9232090999994,2312.9232090999994,2317.299991,j,1,4.367522300000928,None,direct,18,"[18, 19]",2,direct_gaze.png,j,1,2,results30,001,2026-04-20_13h24.47.330,mogelijke versie adaptive staircase builder,,2026.1.3,60.03244153120417,2026-04-20 13h24.47.585592 +0200,
12.5,ecc0,mid,5,0,5,j,0,6.917079299999386,None,0,1,1,1,5,0,5,0,2317.3976917,,,,,,,,,,,,,,,2317.3870798999997,2317.3976917,2318.2996757,2317.3976917,2317.3976917,2324.3164682999995,j,0,6.917079299999386,None,right,17,"[18, 19, 17]",3,gaze_R_17.png,j,0,2,results30,001,2026-04-20_13h24.47.330,mogelijke versie adaptive staircase builder,,2026.1.3,60.03244153120417,2026-04-20 13h24.47.585592 +0200,
12.5,ecc0,mid,6,0,6,j,1,2.8118114999997488,None,0,1,1,1,6,0,6,0,2324.4070300000003,,,,,,,,,,,,,,,2324.3961488999994,2324.4070300000003,2325.3164017,2324.4070300000003,2324.4070300000003,2327.2332052,j,1,2.8118114999997488,None,direct,18,"[18, 19, 17, 18]",4,direct_gaze.png,j,1,2,results30,001,2026-04-20_13h24.47.330,mogelijke versie adaptive staircase builder,,2026.1.3,60.03244153120417,2026-04-20 13h24.47.585592 +0200,
12.5,ecc0,mid,7,0,7,j,1,5.566124099999797,None,0,1,1,1,7,0,7,0,2327.3246308,,,,,,,,,,,,,,,2327.313453499999,2327.3246308,2328.2331005999986,2327.3246308,2327.3246308,2332.8996809,j,1,5.566124099999797,None,direct,17,"[18, 19, 17, 18]",4,direct_gaze.png,j,1,2,results30,001,2026-04-20_13h24.47.330,mogelijke versie adaptive staircase builder,,2026.1.3,60.03244153120417,2026-04-20 13h24.47.585592 +0200,
12.5,ecc0,mid,8,0,8,f,1,1.8760838999987755,None,0,1,1,1,8,0,8,0,2332.9987118999998,,,,,,,,,,,,,,,2332.988377599999,2332.9987118999998,2333.8992323,2332.9987118999998,2332.9987118999998,2334.8829864,f,1,1.8760838999987755,None,left,16,"[18, 19, 17, 18]",4,gaze_L_16.png,f,1,2,results30,001,2026-04-20_13h24.47.330,mogelijke versie adaptive staircase builder,,2026.1.3,60.03244153120417,2026-04-20 13h24.47.585592 +0200,
12.5,ecc0,mid,9,0,9,j,1,2.3162348000005295,None,0,1,1,1,9,0,9,0,2334.974618299999,,,,,,,,,,,,,,,2334.9638176999997,2334.974618299999,2335.8826637,2334.974618299999,2334.974618299999,2337.2996719000002,j,1,2.3162348000005295,None,direct,15,"[18, 19, 17, 18]",4,direct_gaze.png,j,1,2,results30,001,2026-04-20_13h24.47.330,mogelijke versie adaptive staircase builder,,2026.1.3,60.03244153120417,2026-04-20 13h24.47.585592 +0200,
12.5,ecc0,mid,10,0,10,j,0,6.651474800000869,None,0,1,1,1,10,0,10,0,2337.3993594999993,,,,,,,,,,,,,,,2337.3882295999992,2337.3993594999993,2338.299219499999,2337.3993594999993,2337.3993594999993,2344.0664865,j,0,6.651474800000869,None,left,14,"[18, 19, 17, 18, 14]",5,gaze_L_14.png,j,0,2,results30,001,2026-04-20_13h24.47.330,mogelijke versie adaptive staircase builder,,2026.1.3,60.03244153120417,2026-04-20 13h24.47.585592 +0200,
12.5,ecc0,mid,11,0,11,f,1,2.509146899999905,None,0,1,1,1,11,0,11,0,2344.1656824,,,,,,,,,,,,,,,2344.1554106000003,2344.1656824,2345.066141199999,2344.1656824,2344.1656824,2346.683213799999,f,1,2.509146899999905,None,right,15,"[18, 19, 17, 18, 14, 15]",6,gaze_R_15.png,f,1,2,results30,001,2026-04-20_13h24.47.330,mogelijke versie adaptive staircase builder,,2026.1.3,60.03244153120417,2026-04-20 13h24.47.585592 +0200,
12.5,ecc0,mid,12,0,12,f,1,2.1742137000001094,None,0,1,1,1,12,0,12,0,2346.780654299999,,,,,,,,,,,,,,,2346.7699343000004,2346.780654299999,2347.6827190000004,2346.780654299999,2346.780654299999,2348.9661780999995,f,1,2.1742137000001094,None,right,14,"[18, 19, 17, 18, 14, 15]",6,gaze_R_14.png,f,1,2,results30,001,2026-04-20_13h24.47.330,mogelijke versie adaptive staircase builder,,2026.1.3,60.03244153120417,2026-04-20 13h24.47.585592 +0200,
12.5,ecc0,mid,13,0,13,j,0,2.937092100000882,None,0,1,1,1,13,0,13,0,2349.065738199999,,,,,,,,,,,,,,,2349.0554123,2349.065738199999,2349.9657663,2349.065738199999,2349.065738199999,2352.0161673000002,j,0,2.937092100000882,None,left,13,"[18, 19, 17, 18, 14, 15, 13]",7,gaze_L_13.png,j,0,2,results30,001,2026-04-20_13h24.47.330,mogelijke versie adaptive staircase builder,,2026.1.3,60.03244153120417,2026-04-20 13h24.47.585592 +0200,
12.5,ecc0,mid,14,0,14,j,1,2.8154790999997203,None,0,1,1,1,14,0,14,0,2352.1074883,,,,,,,,,,,,,,,2352.0967973999996,2352.1074883,2353.0157585999987,2352.1074883,2352.1074883,2354.9328926,j,1,2.8154790999997203,None,direct,14,"[18, 19, 17, 18, 14, 15, 13, 14]",8,direct_gaze.png,j,1,2,results30,001,2026-04-20_13h24.47.330,mogelijke versie adaptive staircase builder,,2026.1.3,60.03244153120417,2026-04-20 13h24.47.585592 +0200,
12.5,ecc0,mid,15,0,15,j,1,2.6262329000001046,None,0,1,1,1,15,0,15,0,2355.0245694999994,,,,,,,,,,,,,,,2355.0135513999994,2355.0245694999994,2355.932553499999,2355.0245694999994,2355.0245694999994,2357.6659388999997,j,1,2.6262329000001046,None,direct,13,"[18, 19, 17, 18, 14, 15, 13, 14]",8,direct_gaze.png,j,1,2,results30,001,2026-04-20_13h24.47.330,mogelijke versie adaptive staircase builder,,2026.1.3,60.03244153120417,2026-04-20 13h24.47.585592 +0200,
12.5,ecc0,mid,16,0,16,j,1,1.967628299998978,None,0,1,1,1,16,0,16,0,2357.7552522999995,,,,,,,,,,,,,,,2357.7440647999993,2357.7552522999995,2358.6656972,2357.7552522999995,2357.7552522999995,2359.7326182999986,j,1,1.967628299998978,None,direct,12,"[18, 19, 17, 18, 14, 15, 13, 14]",8,direct_gaze.png,j,1,2,results30,001,2026-04-20_13h24.47.330,mogelijke versie adaptive staircase builder,,2026.1.3,60.03244153120417,2026-04-20 13h24.47.585592 +0200,
12.5,ecc0,mid,17,0,17,f,1,3.2999068000008265,None,0,1,1,1,17,0,17,0,2359.8309800999996,,,,,,,,,,,,,,,2359.820205,2359.8309800999996,2360.732208199999,2359.8309800999996,2359.8309800999996,2363.132650899999,f,1,3.2999068000008265,None,left,11,"[18, 19, 17, 18, 14, 15, 13, 14]",8,gaze_L_11.png,f,1,2,results30,001,2026-04-20_13h24.47.330,mogelijke versie adaptive staircase builder,,2026.1.3,60.03244153120417,2026-04-20 13h24.47.585592 +0200,
12.5,ecc0,mid,18,0,18,j,0,5.386804100000518,None,0,1,1,1,18,0,18,0,2363.2321476999987,,,,,,,,,,,,,,,2363.220761999999,2363.2321476999987,2364.1322486999998,2363.2321476999987,2363.2321476999987,2368.6326907000002,j,0,5.386804100000518,None,left,10,"[18, 19, 17, 18, 14, 15, 13, 14, 10]",9,gaze_L_10.png,j,0,2,results30,001,2026-04-20_13h24.47.330,mogelijke versie adaptive staircase builder,,2026.1.3,60.03244153120417,2026-04-20 13h24.47.585592 +0200,
12.5,ecc0,mid,19,0,19,f,1,3.606586400001106,None,0,1,1,1,19,0,19,0,2368.724325899999,,,,,,,,,,,,,,,2368.7137937999996,2368.724325899999,2369.6333939999986,2368.724325899999,2368.724325899999,2372.332440299999,f,1,3.606586400001106,None,left,11,"[18, 19, 17, 18, 14, 15, 13, 14, 10, 11]",10,gaze_L_11.png,f,1,2,results30,001,2026-04-20_13h24.47.330,mogelijke versie adaptive staircase builder,,2026.1.3,60.03244153120417,2026-04-20 13h24.47.585592 +0200,
12.5,ecc0,mid,20,0,20,j,0,2.2093872999994346,None,0,1,1,1,20,0,20,0,2372.4255202999993,,,,,,,,,,,,,,,2372.4142859999993,2372.4255202999993,2373.332145299999,2372.4255202999993,2372.4255202999993,2374.6491972000003,j,0,2.2093872999994346,None,left,10,"[18, 19, 17, 18, 14, 15, 13, 14, 10, 11, 10]",11,gaze_L_10.png,j,0,2,results30,001,2026-04-20_13h24.47.330,mogelijke versie adaptive staircase builder,,2026.1.3,60.03244153120417,2026-04-20 13h24.47.585592 +0200,
12.5,ecc0,mid,21,0,21,j,1,2.9503813999999693,None,0,1,1,1,21,0,21,0,2374.740496799999,,,,,,,,,,,,,,,2374.7297082999994,2374.740496799999,2375.6487908,2374.740496799999,2374.740496799999,2377.6991228999996,j,1,2.9503813999999693,None,direct,11,"[18, 19, 17, 18, 14, 15, 13, 14, 10, 11, 10, 11]",12,direct_gaze.png,j,1,2,results30,001,2026-04-20_13h24.47.330,mogelijke versie adaptive staircase builder,,2026.1.3,60.03244153120417,2026-04-20 13h24.47.585592 +0200,
12.5,ecc0,mid,22,0,22,j,1,3.779262400001244,None,0,1,1,1,22,0,22,0,2377.7916577999986,,,,,,,,,,,,,,,2377.7807049000003,2377.7916577999986,2378.699504099999,2377.7916577999986,2377.7916577999986,2381.582561699999,j,1,3.779262400001244,None,direct,10,"[18, 19, 17, 18, 14, 15, 13, 14, 10, 11, 10, 11]",12,direct_gaze.png,j,1,2,results30,001,2026-04-20_13h24.47.330,mogelijke versie adaptive staircase builder,,2026.1.3,60.03244153120417,2026-04-20 13h24.47.585592 +0200,
12.5,ecc0,mid,23,0,23,j,0,1.3917880000008154,None,0,1,1,1,23,0,23,0,2384.035074899999,,,,,,,,,,,,,,,2384.023304799999,2384.035074899999,2384.035074899999,2384.035074899999,2384.035074899999,2385.4323864999988,j,0,1.3917880000008154,None,right,9,"[18, 19, 17, 18, 14, 15, 13, 14, 10, 11, 10, 11, 9]",13,gaze_R_9.png,j,0,2,results30,001,2026-04-20_13h24.47.330,mogelijke versie adaptive staircase builder,,2026.1.3,60.03244153120417,2026-04-20 13h24.47.585592 +0200,
12.5,ecc0,mid,24,0,24,f,1,3.2952189999996335,None,0,1,1,1,24,0,24,0,2385.5396259999998,,,,,,,,,,,,,,,2385.5294404999986,2385.5396259999998,2386.4319670999994,2385.5396259999998,2385.5396259999998,2388.8489763,f,1,3.2952189999996335,None,right,10,"[18, 19, 17, 18, 14, 15, 13, 14, 10, 11, 10, 11, 9, 10]",14,gaze_R_10.png,f,1,2,results30,001,2026-04-20_13h24.47.330,mogelijke versie adaptive staircase builder,,2026.1.3,60.03244153120417,2026-04-20 13h24.47.585592 +0200,
12.5,ecc0,mid,25,0,25,j,0,2.4146279000015056,None,0,1,1,1,25,0,25,0,2388.9483285999995,,,,,,,,,,,,,,,2388.9380992999995,2388.9483285999995,2389.8486507,2388.9483285999995,2388.9483285999995,2391.3656701,j,0,2.4146279000015056,None,right,9,"[18, 19, 17, 18, 14, 15, 13, 14, 10, 11, 10, 11, 9, 10, 9]",15,gaze_R_9.png,j,0,2,results30,001,2026-04-20_13h24.47.330,mogelijke versie adaptive staircase builder,,2026.1.3,60.03244153120417,2026-04-20 13h24.47.585592 +0200,
12.5,ecc0,mid,26,0,26,j,1,2.0640488999997615,None,0,1,1,1,26,0,26,0,2391.4670384,,,,,,,,,,,,,,,2391.4568968000003,2391.4670384,2392.365212999999,2391.4670384,2391.4670384,2393.532271599999,j,1,2.0640488999997615,None,direct,10,"[18, 19, 17, 18, 14, 15, 13, 14, 10, 11, 10, 11, 9, 10, 9, 10]",16,direct_gaze.png,j,1,2,results30,001,2026-04-20_13h24.47.330,mogelijke versie adaptive staircase builder,,2026.1.3,60.03244153120417,2026-04-20 13h24.47.585592 +0200,
12.5,ecc0,mid,27,0,27,j,1,1.7467292999990605,None,0,1,1,1,27,0,27,0,2393.624145399999,,,,,,,,,,,,,,,2393.6131876,2393.624145399999,2394.5323283999987,2393.624145399999,2393.624145399999,2395.3821904999986,j,1,1.7467292999990605,None,direct,9,"[18, 19, 17, 18, 14, 15, 13, 14, 10, 11, 10, 11, 9, 10, 9, 10]",16,direct_gaze.png,j,1,2,results30,001,2026-04-20_13h24.47.330,mogelijke versie adaptive staircase builder,,2026.1.3,60.03244153120417,2026-04-20 13h24.47.585592 +0200,
12.5,ecc0,mid,28,0,28,f,1,1.7032263000000967,None,0,1,1,1,28,0,28,0,2395.8437028999997,,,,,,,,,,,,,,,2395.8330738999994,2395.8437028999997,2396.3820720999993,2395.8437028999997,2395.8437028999997,2397.5490253999997,f,1,1.7032263000000967,None,right,8,"[18, 19, 17, 18, 14, 15, 13, 14, 10, 11, 10, 11, 9, 10, 9, 10]",16,gaze_R_8.png,f,1,2,results30,001,2026-04-20_13h24.47.330,mogelijke versie adaptive staircase builder,,2026.1.3,60.03244153120417,2026-04-20 13h24.47.585592 +0200,
12.5,ecc0,mid,29,0,29,j,1,2.6819501999998465,None,0,1,1,1,29,0,29,0,2397.6408326,,,,,,,,,,,,,,,2397.6301692999987,2397.6408326,2398.5485363999996,2397.6408326,2397.6408326,2400.3323920000003,j,1,2.6819501999998465,None,direct,7,"[18, 19, 17, 18, 14, 15, 13, 14, 10, 11, 10, 11, 9, 10, 9, 10]",16,direct_gaze.png,j,1,2,results30,001,2026-04-20_13h24.47.330,mogelijke versie adaptive staircase builder,,2026.1.3,60.03244153120417,2026-04-20 13h24.47.585592 +0200,
12.5,ecc0,mid,30,0,30,j,0,3.3891444000000774,None,0,1,1,1,30,0,30,0,2400.541653299999,,,,,,,,,,,,,,,2400.530166999999,2400.541653299999,2401.3319173,2400.541653299999,2400.541653299999,2403.932190399999,j,0,3.3891444000000774,None,left,6,"[18, 19, 17, 18, 14, 15, 13, 14, 10, 11, 10, 11, 9, 10, 9, 10, 6]",17,gaze_L_6.png,j,0,2,results30,001,2026-04-20_13h24.47.330,mogelijke versie adaptive staircase builder,,2026.1.3,60.03244153120417,2026-04-20 13h24.47.585592 +0200,
12.5,ecc0,mid,31,0,31,j,0,4.492921099999876,None,0,1,1,1,31,0,31,0,2404.0379734999988,,,,,,,,,,,,,,,2404.0268682999995,2404.0379734999988,2404.9317947,2404.0379734999988,2404.0379734999988,2408.5321330999996,j,0,4.492921099999876,None,left,7,"[18, 19, 17, 18, 14, 15, 13, 14, 10, 11, 10, 11, 9, 10, 9, 10, 6]",17,gaze_L_7.png,j,0,2,results30,001,2026-04-20_13h24.47.330,mogelijke versie adaptive staircase builder,,2026.1.3,60.03244153120417,2026-04-20 13h24.47.585592 +0200,
12.5,ecc0,mid,32,0,32,j,1,2.9147416000014346,None,0,1,1,1,32,0,32,0,2408.6241314,,,,,,,,,,,,,,,2408.6132882,2408.6241314,2409.531685099999,2408.6241314,2408.6241314,2411.5486906999995,j,1,2.9147416000014346,None,direct,8,"[18, 19, 17, 18, 14, 15, 13, 14, 10, 11, 10, 11, 9, 10, 9, 10, 6, 8]",18,direct_gaze.png,j,1,2,results30,001,2026-04-20_13h24.47.330,mogelijke versie adaptive staircase builder,,2026.1.3,60.03244153120417,2026-04-20 13h24.47.585592 +0200,
12.5,ecc0,mid,33,0,33,j,1,2.0012819999992644,None,0,1,1,1,33,0,33,0,2411.6416842,,,,,,,,,,,,,,,2411.6312832000003,2411.6416842,2412.5482372999995,2411.6416842,2411.6416842,2413.6487583,j,1,2.0012819999992644,None,direct,7,"[18, 19, 17, 18, 14, 15, 13, 14, 10, 11, 10, 11, 9, 10, 9, 10, 6, 8]",18,direct_gaze.png,j,1,2,results30,001,2026-04-20_13h24.47.330,mogelijke versie adaptive staircase builder,,2026.1.3,60.03244153120417,2026-04-20 13h24.47.585592 +0200,
12.5,ecc0,mid,34,0,34,j,0,2.005373600000894,None,0,1,1,1,34,0,34,0,2413.7414897,,,,,,,,,,,,,,,2413.7305503999996,2413.7414897,2414.6482383000002,2413.7414897,2413.7414897,2415.748779399999,j,0,2.005373600000894,None,left,6,"[18, 19, 17, 18, 14, 15, 13, 14, 10, 11, 10, 11, 9, 10, 9, 10, 6, 8, 6]",19,gaze_L_6.png,j,0,2,results30,001,2026-04-20_13h24.47.330,mogelijke versie adaptive staircase builder,,2026.1.3,60.03244153120417,2026-04-20 13h24.47.585592 +0200,
12.5,ecc0,mid,35,0,35,j,0,1.8993211000015435,None,0,1,1,1,35,0,35,0,2415.8475096,,,,,,,,,,,,,,,2415.8364576000004,2415.8475096,2416.7482284,2415.8475096,2415.8475096,2417.748632699999,j,0,1.8993211000015435,None,right,7,"[18, 19, 17, 18, 14, 15, 13, 14, 10, 11, 10, 11, 9, 10, 9, 10, 6, 8, 6]",19,gaze_R_7.png,j,0,2,results30,001,2026-04-20_13h24.47.330,mogelijke versie adaptive staircase builder,,2026.1.3,60.03244153120417,2026-04-20 13h24.47.585592 +0200,
12.5,ecc0,mid,36,0,36,j,0,2.628918299998986,None,0,1,1,1,36,0,36,0,2418.2058872999987,,,,,,,,,,,,,,,2418.1953572,2418.2058872999987,2418.7483439999996,2418.2058872999987,2418.2058872999987,2420.8486087,j,0,2.628918299998986,None,left,8,"[18, 19, 17, 18, 14, 15, 13, 14, 10, 11, 10, 11, 9, 10, 9, 10, 6, 8, 6]",19,gaze_L_8.png,j,0,2,results30,001,2026-04-20_13h24.47.330,mogelijke versie adaptive staircase builder,,2026.1.3,60.03244153120417,2026-04-20 13h24.47.585592 +0200,
12.5,ecc0,mid,37,0,37,f,0,1.9175522000005003,None,0,1,1,1,37,0,37,0,2420.9413633999993,,,,,,,,,,,,,,,2420.9303015999994,2420.9413633999993,2421.8482255,2420.9413633999993,2420.9413633999993,2422.8652554,f,0,1.9175522000005003,None,direct,9,"[18, 19, 17, 18, 14, 15, 13, 14, 10, 11, 10, 11, 9, 10, 9, 10, 6, 8, 6]",19,direct_gaze.png,f,0,2,results30,001,2026-04-20_13h24.47.330,mogelijke versie adaptive staircase builder,,2026.1.3,60.03244153120417,2026-04-20 13h24.47.585592 +0200,
12.5,ecc0,mid,38,0,38,j,0,3.4365692999999737,None,0,1,1,1,38,0,38,0,2422.958258299999,,,,,,,,,,,,,,,2422.9466802999996,2422.958258299999,2423.8647946,2422.958258299999,2422.958258299999,2426.398436399999,j,0,3.4365692999999737,None,left,10,"[18, 19, 17, 18, 14, 15, 13, 14, 10, 11, 10, 11, 9, 10, 9, 10, 6, 8, 6]",19,gaze_L_10.png,j,0,2,results30,001,2026-04-20_13h24.47.330,mogelijke versie adaptive staircase builder,,2026.1.3,60.03244153120417,2026-04-20 13h24.47.585592 +0200,
12.5,ecc0,mid,39,0,39,f,1,4.374181899998803,None,0,1,1,1,39,0,39,0,2426.4926882,,,,,,,,,,,,,,,2426.4820419999996,2426.4926882,2427.3982834,2426.4926882,2426.4926882,2430.8818002999997,f,1,4.374181899998803,None,left,11,"[18, 19, 17, 18, 14, 15, 13, 14, 10, 11, 10, 11, 9, 10, 9, 10, 6, 8, 6, 11]",20,gaze_L_11.png,f,1,2,results30,001,2026-04-20_13h24.47.330,mogelijke versie adaptive staircase builder,,2026.1.3,60.03244153120417,2026-04-20 13h24.47.585592 +0200,
12.5,ecc0,mid,40,0,40,f,1,2.8821121000000858,None,0,1,1,1,40,0,40,0,2430.9766744999997,,,,,,,,,,,,,,,2430.9653013999996,2430.9766744999997,2431.881523599999,2430.9766744999997,2430.9766744999997,2433.8650261000003,f,1,2.8821121000000858,None,right,10,"[18, 19, 17, 18, 14, 15, 13, 14, 10, 11, 10, 11, 9, 10, 9, 10, 6, 8, 6, 11]",20,gaze_R_10.png,f,1,2,results30,001,2026-04-20_13h24.47.330,mogelijke versie adaptive staircase builder,,2026.1.3,60.03244153120417,2026-04-20 13h24.47.585592 +0200,
12.5,ecc0,mid,41,0,41,j,1,5.614245100001426,None,0,1,1,1,41,0,41,0,2433.957466099999,,,,,,,,,,,,,,,2433.9469654999994,2433.957466099999,2434.8647992999995,2433.957466099999,2433.957466099999,2439.5818915,j,1,5.614245100001426,None,direct,9,"[18, 19, 17, 18, 14, 15, 13, 14, 10, 11, 10, 11, 9, 10, 9, 10, 6, 8, 6, 11]",20,direct_gaze.png,j,1,2,results30,001,2026-04-20_13h24.47.330,mogelijke versie adaptive staircase builder,,2026.1.3,60.03244153120417,2026-04-20 13h24.47.585592 +0200,
12.5,ecc0,mid,42,0,42,j,0,2.7882410000001983,None,0,1,1,1,42,0,42,0,2439.6787425,,,,,,,,,,,,,,,2439.667333199999,2439.6787425,2440.581311599999,2439.6787425,2439.6787425,2442.4817872999993,j,0,2.7882410000001983,None,right,8,"[18, 19, 17, 18, 14, 15, 13, 14, 10, 11, 10, 11, 9, 10, 9, 10, 6, 8, 6, 11, 8]",21,gaze_R_8.png,j,0,2,results30,001,2026-04-20_13h24.47.330,mogelijke versie adaptive staircase builder,,2026.1.3,60.03244153120417,2026-04-20 13h24.47.585592 +0200,
12.5,ecc0,mid,43,0,43,j,0,3.9975706999994145,None,0,1,1,1,43,0,43,0,2442.5813304999992,,,,,,,,,,,,,,,2442.5713994999987,2442.5813304999992,2443.481251699999,2442.5813304999992,2442.5813304999992,2446.5817042,j,0,3.9975706999994145,None,right,9,"[18, 19, 17, 18, 14, 15, 13, 14, 10, 11, 10, 11, 9, 10, 9, 10, 6, 8, 6, 11, 8]",21,gaze_R_9.png,j,0,2,results30,001,2026-04-20_13h24.47.330,mogelijke versie adaptive staircase builder,,2026.1.3,60.03244153120417,2026-04-20 13h24.47.585592 +0200,
12.5,ecc0,mid,44,0,44,f,1,3.105414600000586,None,0,1,1,1,44,0,44,0,2446.681536599999,,,,,,,,,,,,,,,2446.6712960999994,2446.681536599999,2447.5813646999995,2446.681536599999,2446.681536599999,2449.7982128999993,f,1,3.105414600000586,None,right,10,"[18, 19, 17, 18, 14, 15, 13, 14, 10, 11, 10, 11, 9, 10, 9, 10, 6, 8, 6, 11, 8, 10]",22,gaze_R_10.png,f,1,2,results30,001,2026-04-20_13h24.47.330,mogelijke versie adaptive staircase builder,,2026.1.3,60.03244153120417,2026-04-20 13h24.47.585592 +0200,
12.5,ecc0,mid,45,0,45,j,0,3.714916099999755,None,0,1,1,1,45,0,45,0,2449.8960195,,,,,,,,,,,,,,,2449.8856892999993,2449.8960195,2450.7978098999993,2449.8960195,2449.8960195,2453.6148582999995,j,0,3.714916099999755,None,right,9,"[18, 19, 17, 18, 14, 15, 13, 14, 10, 11, 10, 11, 9, 10, 9, 10, 6, 8, 6, 11, 8, 10, 9]",23,gaze_R_9.png,j,0,2,results30,001,2026-04-20_13h24.47.330,mogelijke versie adaptive staircase builder,,2026.1.3,60.03244153120417,2026-04-20 13h24.47.585592 +0200,
12.5,ecc0,mid,46,0,46,j,0,3.072458900000129,None,0,1,1,1,46,0,46,0,2453.7143746,,,,,,,,,,,,,,,2453.7040111999995,2453.7143746,2454.6143785000004,2453.7143746,2453.7143746,2456.798209499999,j,0,3.072458900000129,None,left,10,"[18, 19, 17, 18, 14, 15, 13, 14, 10, 11, 10, 11, 9, 10, 9, 10, 6, 8, 6, 11, 8, 10, 9]",23,gaze_L_10.png,j,0,2,results30,001,2026-04-20_13h24.47.330,mogelijke versie adaptive staircase builder,,2026.1.3,60.03244153120417,2026-04-20 13h24.47.585592 +0200,
12.5,ecc0,mid,47,0,47,j,1,2.0412758000002214,None,0,1,1,1,47,0,47,0,2456.8897154999995,,,,,,,,,,,,,,,2456.8785129999997,2456.8897154999995,2457.7981431999997,2456.8897154999995,2456.8897154999995,2458.932367899999,j,1,2.0412758000002214,None,direct,11,"[18, 19, 17, 18, 14, 15, 13, 14, 10, 11, 10, 11, 9, 10, 9, 10, 6, 8, 6, 11, 8, 10, 9, 11]",24,direct_gaze.png,j,1,2,results30,001,2026-04-20_13h24.47.330,mogelijke versie adaptive staircase builder,,2026.1.3,60.03244153120417,2026-04-20 13h24.47.585592 +0200,
12.5,ecc0,mid,48,0,48,f,1,2.287961899999573,None,0,1,1,1,48,0,48,0,2459.0348822999986,,,,,,,,,,,,,,,2459.0236298,2459.0348822999986,2459.9480564999994,2459.0348822999986,2459.0348822999986,2461.3319742999993,f,1,2.287961899999573,None,right,10,"[18, 19, 17, 18, 14, 15, 13, 14, 10, 11, 10, 11, 9, 10, 9, 10, 6, 8, 6, 11, 8, 10, 9, 11]",24,gaze_R_10.png,f,1,2,results30,001,2026-04-20_13h24.47.330,mogelijke versie adaptive staircase builder,,2026.1.3,60.03244153120417,2026-04-20 13h24.47.585592 +0200,
12.5,ecc0,mid,49,0,49,j,1,3.2297842999996647,None,0,1,1,1,49,0,49,0,2461.4371002999997,,,,,,,,,,,,,,,2461.4233172999993,2461.4371002999997,2462.331644099999,2461.4371002999997,2461.4371002999997,2464.6817969999993,j,1,3.2297842999996647,None,direct,9,"[18, 19, 17, 18, 14, 15, 13, 14, 10, 11, 10, 11, 9, 10, 9, 10, 6, 8, 6, 11, 8, 10, 9, 11]",24,direct_gaze.png,j,1,2,results30,001,2026-04-20_13h24.47.330,mogelijke versie adaptive staircase builder,,2026.1.3,60.03244153120417,2026-04-20 13h24.47.585592 +0200,
12.5,ecc0,mid,50,0,50,j,1,2.573678699998709,None,0,1,1,1,50,0,50,0,2464.7822985000003,,,,,,,,,,,,,,,2464.7711361,2464.7822985000003,2465.6814256999987,2464.7822985000003,2464.7822985000003,2467.365062699999,j,1,2.573678699998709,None,direct,8,"[18, 19, 17, 18, 14, 15, 13, 14, 10, 11, 10, 11, 9, 10, 9, 10, 6, 8, 6, 11, 8, 10, 9, 11]",24,direct_gaze.png,j,1,2,results30,001,2026-04-20_13h24.47.330,mogelijke versie adaptive staircase builder,,2026.1.3,60.03244153120417,2026-04-20 13h24.47.585592 +0200,
12.5,ecc0,mid,51,0,51,f,1,5.829409399999349,None,0,1,1,1,51,0,51,0,2467.4694383999995,,,,,,,,,,,,,,,2467.4578325,2467.4694383999995,2468.3646004,2467.4694383999995,2467.4694383999995,2473.314964199999,f,1,5.829409399999349,None,left,7,"[18, 19, 17, 18, 14, 15, 13, 14, 10, 11, 10, 11, 9, 10, 9, 10, 6, 8, 6, 11, 8, 10, 9, 11]",24,gaze_L_7.png,f,1,2,results30,001,2026-04-20_13h24.47.330,mogelijke versie adaptive staircase builder,,2026.1.3,60.03244153120417,2026-04-20 13h24.47.585592 +0200,
12.5,ecc0,mid,52,0,52,j,0,5.589630100001159,None,0,1,1,1,52,0,52,0,2473.4213242999995,,,,,,,,,,,,,,,2473.4087351,2473.4213242999995,2474.314843099999,2473.4213242999995,2473.4213242999995,2479.0149920999993,j,0,5.589630100001159,None,left,6,"[18, 19, 17, 18, 14, 15, 13, 14, 10, 11, 10, 11, 9, 10, 9, 10, 6, 8, 6, 11, 8, 10, 9, 11, 6]",25,gaze_L_6.png,j,0,2,results30,001,2026-04-20_13h24.47.330,mogelijke versie adaptive staircase builder,,2026.1.3,60.03244153120417,2026-04-20 13h24.47.585592 +0200,
12.5,ecc0,mid,53,0,53,j,0,3.481652499998745,None,0,1,1,1,53,0,53,0,2479.1212060999987,,,,,,,,,,,,,,,2479.1087037999987,2479.1212060999987,2480.014309099999,2479.1212060999987,2479.1212060999987,2482.6151678999995,j,0,3.481652499998745,None,right,7,"[18, 19, 17, 18, 14, 15, 13, 14, 10, 11, 10, 11, 9, 10, 9, 10, 6, 8, 6, 11, 8, 10, 9, 11, 6]",25,gaze_R_7.png,j,0,2,results30,001,2026-04-20_13h24.47.330,mogelijke versie adaptive staircase builder,,2026.1.3,60.03244153120417,2026-04-20 13h24.47.585592 +0200,
12.5,ecc0,mid,54,0,54,f,1,7.2134705999997095,None,0,1,1,1,54,0,54,0,2482.7336118000003,,,,,,,,,,,,,,,2482.722135099999,2482.7336118000003,2483.614383099999,2482.7336118000003,2482.7336118000003,2489.9481605,f,1,7.2134705999997095,None,right,8,"[18, 19, 17, 18, 14, 15, 13, 14, 10, 11, 10, 11, 9, 10, 9, 10, 6, 8, 6, 11, 8, 10, 9, 11, 6, 8]",26,gaze_R_8.png,f,1,2,results30,001,2026-04-20_13h24.47.330,mogelijke versie adaptive staircase builder,,2026.1.3,60.03244153120417,2026-04-20 13h24.47.585592 +0200,
12.5,ecc0,mid,55,0,55,j,1,3.090034900000319,None,0,1,1,1,55,0,55,0,2490.0649685999997,,,,,,,,,,,,,,,2490.0513641999987,2490.0649685999997,2490.9644647999994,2490.0649685999997,2490.0649685999997,2493.164837799999,j,1,3.090034900000319,None,direct,7,"[18, 19, 17, 18, 14, 15, 13, 14, 10, 11, 10, 11, 9, 10, 9, 10, 6, 8, 6, 11, 8, 10, 9, 11, 6, 8]",26,direct_gaze.png,j,1,2,results30,001,2026-04-20_13h24.47.330,mogelijke versie adaptive staircase builder,,2026.1.3,60.03244153120417,2026-04-20 13h24.47.585592 +0200,
12.5,ecc0,mid,56,0,56,j,1,3.0972955000015645,None,0,1,1,1,56,0,56,0,2493.273696099999,,,,,,,,,,,,,,,2493.2620769999994,2493.273696099999,2494.1644701999994,2493.273696099999,2493.273696099999,2496.3808986999993,j,1,3.0972955000015645,None,direct,6,"[18, 19, 17, 18, 14, 15, 13, 14, 10, 11, 10, 11, 9, 10, 9, 10, 6, 8, 6, 11, 8, 10, 9, 11, 6, 8]",26,direct_gaze.png,j,1,2,results30,001,2026-04-20_13h24.47.330,mogelijke versie adaptive staircase builder,,2026.1.3,60.03244153120417,2026-04-20 13h24.47.585592 +0200,
12.5,ecc0,mid,57,0,57,j,0,3.0173572999992757,None,0,1,1,1,57,0,57,0,2496.8576735999995,,,,,,,,,,,,,,,2496.8468236999997,2496.8576735999995,2497.380670299999,2496.8576735999995,2496.8576735999995,2499.8810323,j,0,3.0173572999992757,None,left,5,"[18, 19, 17, 18, 14, 15, 13, 14, 10, 11, 10, 11, 9, 10, 9, 10, 6, 8, 6, 11, 8, 10, 9, 11, 6, 8, 5]",27,gaze_L_5.png,j,0,2,results30,001,2026-04-20_13h24.47.330,mogelijke versie adaptive staircase builder,,2026.1.3,60.03244153120417,2026-04-20 13h24.47.585592 +0200,
12.5,ecc0,mid,58,0,58,j,1,2.3353435000008176,None,0,1,1,1,58,0,58,0,2499.9795894,,,,,,,,,,,,,,,2499.9683226999987,2499.9795894,2500.880536499999,2499.9795894,2499.9795894,2502.3308331999997,j,1,2.3353435000008176,None,direct,6,"[18, 19, 17, 18, 14, 15, 13, 14, 10, 11, 10, 11, 9, 10, 9, 10, 6, 8, 6, 11, 8, 10, 9, 11, 6, 8, 5, 6]",28,direct_gaze.png,j,1,2,results30,001,2026-04-20_13h24.47.330,mogelijke versie adaptive staircase builder,,2026.1.3,60.03244153120417,2026-04-20 13h24.47.585592 +0200,
12.5,ecc0,mid,59,0,59,j,0,2.2584556999991037,None,0,1,1,1,59,0,59,0,2502.4245410999993,,,,,,,,,,,,,,,2502.4141724,2502.4245410999993,2503.3304891999996,2502.4245410999993,2502.4245410999993,2504.6978237000003,j,0,2.2584556999991037,None,left,5,"[18, 19, 17, 18, 14, 15, 13, 14, 10, 11, 10, 11, 9, 10, 9, 10, 6, 8, 6, 11, 8, 10, 9, 11, 6, 8, 5, 6, 5]",29,gaze_L_5.png,j,0,2,results30,001,2026-04-20_13h24.47.330,mogelijke versie adaptive staircase builder,,2026.1.3,60.03244153120417,2026-04-20 13h24.47.585592 +0200,
12.5,ecc0,mid,1,1,0,,,,,0,1,1,1,,,,,,,,,,,,,,,,,,,,,,,,,,,,,,,,,,,,,,results30,001,2026-04-20_13h24.47.330,mogelijke versie adaptive staircase builder,,2026.1.3,60.03244153120417,2026-04-20 13h24.47.585592 +0200,
20.5,ecc10neg,right,0,0,0,f,0,2.7109658000008494,None,0,2,2,2,0,0,0,0,2504.8041144,,,,,,,,,,,,,2504.7003506,2504.700385,2504.7925079999986,2504.8041144,2504.8041144,2505.7139272999993,2504.8041144,2507.530875799999,f,0,2.7109658000008494,None,direct,20,[],0,shifteddirectgaze.png,f,0,3,results30,001,2026-04-20_13h24.47.330,mogelijke versie adaptive staircase builder,,2026.1.3,60.03244153120417,2026-04-20 13h24.47.585592 +0200,
20.5,ecc10neg,right,1,0,1,f,1,2.2222518999988097,None,0,2,2,2,1,0,1,0,2507.660769799999,,,,,,,,,,,,,,,2507.6489361000004,2507.660769799999,2507.660769799999,2508.530363,2507.660769799999,2509.8975394999998,f,1,2.2222518999988097,None,right,20,[20],1,shiftedgaze_R_20.png,f,1,3,results30,001,2026-04-20_13h24.47.330,mogelijke versie adaptive staircase builder,,2026.1.3,60.03244153120417,2026-04-20 13h24.47.585592 +0200,
20.5,ecc10neg,right,2,0,2,f,0,2.287802400000146,None,0,2,2,2,2,0,2,0,2510.0112623999994,,,,,,,,,,,,,,,2509.999873499999,2510.0112623999994,2510.0112623999994,2510.8970604999995,2510.0112623999994,2512.3141689999993,f,0,2.287802400000146,None,direct,19,"[20, 19]",2,shifteddirectgaze.png,f,0,3,results30,001,2026-04-20_13h24.47.330,mogelijke versie adaptive staircase builder,,2026.1.3,60.03244153120417,2026-04-20 13h24.47.585592 +0200,
20.5,ecc10neg,right,3,0,3,f,1,2.95163280000088,None,0,2,2,2,3,0,3,0,2512.4360727000003,,,,,,,,,,,,,,,2512.4238943,2512.4360727000003,2512.4360727000003,2513.3136386999995,2512.4360727000003,2515.3973780999986,f,1,2.95163280000088,None,right,20,"[20, 19, 20]",3,shiftedgaze_R_20.png,f,1,3,results30,001,2026-04-20_13h24.47.330,mogelijke versie adaptive staircase builder,,2026.1.3,60.03244153120417,2026-04-20 13h24.47.585592 +0200,
20.5,ecc10neg,right,4,0,4,j,0,2.034497000000556,None,0,2,2,2,4,0,4,0,2515.520442699999,,,,,,,,,,,,,,,2515.5096431,2515.520442699999,2515.520442699999,2516.3969486999995,2515.520442699999,2517.5640132999997,j,0,2.034497000000556,None,left,19,"[20, 19, 20, 19]",4,shiftedgaze_L_19.png,j,0,3,results30,001,2026-04-20_13h24.47.330,mogelijke versie adaptive staircase builder,,2026.1.3,60.03244153120417,2026-04-20 13h24.47.585592 +0200,
20.5,ecc10neg,right,5,0,5,f,1,3.708671200000026,None,0,2,2,2,5,0,5,0,2517.6862691999995,,,,,,,,,,,,,,,2517.6745462,2517.6862691999995,2517.6862691999995,2518.5637133,2517.6862691999995,2521.3974607,f,1,3.708671200000026,None,right,20,"[20, 19, 20, 19, 20]",5,shiftedgaze_R_20.png,f,1,3,results30,001,2026-04-20_13h24.47.330,mogelijke versie adaptive staircase builder,,2026.1.3,60.03244153120417,2026-04-20 13h24.47.585592 +0200,
20.5,ecc10neg,right,6,0,6,f,0,3.661352999999508,None,0,2,2,2,6,0,6,0,2521.5176697999996,,,,,,,,,,,,,,,2521.5053227999997,2521.5176697999996,2521.5176697999996,2522.3968399999994,2521.5176697999996,2525.1808095999986,f,0,3.661352999999508,None,direct,19,"[20, 19, 20, 19, 20, 19]",6,shifteddirectgaze.png,f,0,3,results30,001,2026-04-20_13h24.47.330,mogelijke versie adaptive staircase builder,,2026.1.3,60.03244153120417,2026-04-20 13h24.47.585592 +0200,
20.5,ecc10neg,right,7,0,7,j,0,2.6684846999996807,None,0,2,2,2,7,0,7,0,2525.2863669,,,,,,,,,,,,,,,2525.2750428,2525.2863669,2525.2863669,2526.1802160999996,2525.2863669,2527.9638608999994,j,0,2.6684846999996807,None,left,20,"[20, 19, 20, 19, 20, 19]",6,shiftedgaze_L_20.png,j,0,3,results30,001,2026-04-20_13h24.47.330,mogelijke versie adaptive staircase builder,,2026.1.3,60.03244153120417,2026-04-20 13h24.47.585592 +0200,
20.5,ecc10neg,right,8,0,8,f,1,2.9958951999997225,None,0,2,2,2,8,0,8,0,2528.0869672999997,,,,,,,,,,,,,,,2528.075312499999,2528.0869672999997,2528.0869672999997,2528.9635793999987,2528.0869672999997,2531.097123899999,f,1,2.9958951999997225,None,right,20,"[20, 19, 20, 19, 20, 19, 20]",7,shiftedgaze_R_20.png,f,1,3,results30,001,2026-04-20_13h24.47.330,mogelijke versie adaptive staircase builder,,2026.1.3,60.03244153120417,2026-04-20 13h24.47.585592 +0200,
20.5,ecc10neg,right,9,0,9,f,1,2.929234000001088,None,0,2,2,2,9,0,9,0,2531.2096169999986,,,,,,,,,,,,,,,2531.1983198,2531.2096169999986,2531.2096169999986,2532.0969544,2531.2096169999986,2534.147275699999,f,1,2.929234000001088,None,right,19,"[20, 19, 20, 19, 20, 19, 20]",7,shiftedgaze_R_19.png,f,1,3,results30,001,2026-04-20_13h24.47.330,mogelijke versie adaptive staircase builder,,2026.1.3,60.03244153120417,2026-04-20 13h24.47.585592 +0200,
20.5,ecc10neg,right,10,0,10,j,0,2.0652826000005007,None,0,2,2,2,10,0,10,0,2534.2736698999997,,,,,,,,,,,,,,,2534.2628277999993,2534.2736698999997,2534.2736698999997,2535.1467978,2534.2736698999997,2536.3472040999986,j,0,2.0652826000005007,None,left,18,"[20, 19, 20, 19, 20, 19, 20, 18]",8,shiftedgaze_L_18.png,j,0,3,results30,001,2026-04-20_13h24.47.330,mogelijke versie adaptive staircase builder,,2026.1.3,60.03244153120417,2026-04-20 13h24.47.585592 +0200,
20.5,ecc10neg,right,11,0,11,f,1,3.572897899999589,None,0,2,2,2,11,0,11,0,2536.4701313999994,,,,,,,,,,,,,,,2536.4583497000003,2536.4701313999994,2536.4701313999994,2537.3468553000002,2536.4701313999994,2540.0472793999998,f,1,3.572897899999589,None,right,19,"[20, 19, 20, 19, 20, 19, 20, 18, 19]",9,shiftedgaze_R_19.png,f,1,3,results30,001,2026-04-20_13h24.47.330,mogelijke versie adaptive staircase builder,,2026.1.3,60.03244153120417,2026-04-20 13h24.47.585592 +0200,
20.5,ecc10neg,right,12,0,12,f,1,4.376382799999192,None,0,2,2,2,12,0,12,0,2540.1546844999993,,,,,,,,,,,,,,,2540.144298699999,2540.1546844999993,2540.1546844999993,2541.046767599999,2540.1546844999993,2544.5469673999996,f,1,4.376382799999192,None,right,18,"[20, 19, 20, 19, 20, 19, 20, 18, 19]",9,shiftedgaze_R_18.png,f,1,3,results30,001,2026-04-20_13h24.47.330,mogelijke versie adaptive staircase builder,,2026.1.3,60.03244153120417,2026-04-20 13h24.47.585592 +0200,
20.5,ecc10neg,right,13,0,13,j,0,1.6979274999994232,None,0,2,2,2,13,0,13,0,2544.665068299999,,,,,,,,,,,,,,,2544.6532566999995,2544.665068299999,2544.665068299999,2545.546629999999,2544.665068299999,2546.3638905999996,j,0,1.6979274999994232,None,left,17,"[20, 19, 20, 19, 20, 19, 20, 18, 19, 17]",10,shiftedgaze_L_17.png,j,0,3,results30,001,2026-04-20_13h24.47.330,mogelijke versie adaptive staircase builder,,2026.1.3,60.03244153120417,2026-04-20 13h24.47.585592 +0200,
20.5,ecc10neg,right,14,0,14,f,1,1.7706822000000102,None,0,2,2,2,14,0,14,0,2546.480328899999,,,,,,,,,,,,,,,2546.468879599999,2546.480328899999,2546.480328899999,2547.363452899999,2546.480328899999,2548.2636461,f,1,1.7706822000000102,None,right,18,"[20, 19, 20, 19, 20, 19, 20, 18, 19, 17, 18]",11,shiftedgaze_R_18.png,f,1,3,results30,001,2026-04-20_13h24.47.330,mogelijke versie adaptive staircase builder,,2026.1.3,60.03244153120417,2026-04-20 13h24.47.585592 +0200,
20.5,ecc10neg,right,15,0,15,f,1,2.5458134000000427,None,0,2,2,2,15,0,15,0,2548.3691500999994,,,,,,,,,,,,,,,2548.3560065,2548.3691500999994,2548.3691500999994,2549.263168199999,2548.3691500999994,2550.9301576999987,f,1,2.5458134000000427,None,right,17,"[20, 19, 20, 19, 20, 19, 20, 18, 19, 17, 18]",11,shiftedgaze_R_17.png,f,1,3,results30,001,2026-04-20_13h24.47.330,mogelijke versie adaptive staircase builder,,2026.1.3,60.03244153120417,2026-04-20 13h24.47.585592 +0200,
20.5,ecc10neg,right,16,0,16,f,1,2.08689349999986,None,0,2,2,2,16,0,16,0,2551.0360137999996,,,,,,,,,,,,,,,2551.0240037000003,2551.0360137999996,2551.0360137999996,2551.9299003999986,2551.0360137999996,2553.130142599999,f,1,2.08689349999986,None,right,16,"[20, 19, 20, 19, 20, 19, 20, 18, 19, 17, 18]",11,shiftedgaze_R_16.png,f,1,3,results30,001,2026-04-20_13h24.47.330,mogelijke versie adaptive staircase builder,,2026.1.3,60.03244153120417,2026-04-20 13h24.47.585592 +0200,
20.5,ecc10neg,right,17,0,17,f,0,2.096009100001538,None,0,2,2,2,17,0,17,0,2553.2429847000003,,,,,,,,,,,,,,,2553.231877299999,2553.2429847000003,2553.2429847000003,2554.1300347999986,2553.2429847000003,2555.3468424000002,f,0,2.096009100001538,None,direct,15,"[20, 19, 20, 19, 20, 19, 20, 18, 19, 17, 18, 15]",12,shifteddirectgaze.png,f,0,3,results30,001,2026-04-20_13h24.47.330,mogelijke versie adaptive staircase builder,,2026.1.3,60.03244153120417,2026-04-20 13h24.47.585592 +0200,
20.5,ecc10neg,right,18,0,18,j,0,2.556364799998846,None,0,2,2,2,18,0,18,0,2555.4471981999995,,,,,,,,,,,,,,,2555.4360596999995,2555.4471981999995,2555.4471981999995,2556.346514699999,2555.4471981999995,2558.013415899999,j,0,2.556364799998846,None,left,16,"[20, 19, 20, 19, 20, 19, 20, 18, 19, 17, 18, 15]",12,shiftedgaze_L_16.png,j,0,3,results30,001,2026-04-20_13h24.47.330,mogelijke versie adaptive staircase builder,,2026.1.3,60.03244153120417,2026-04-20 13h24.47.585592 +0200,
20.5,ecc10neg,right,19,0,19,f,1,2.278910500001075,None,0,2,2,2,19,0,19,0,2558.1321315999994,,,,,,,,,,,,,,,2558.1204589999998,2558.1321315999994,2558.1321315999994,2559.0130965999997,2558.1321315999994,2560.4134235,f,1,2.278910500001075,None,right,17,"[20, 19, 20, 19, 20, 19, 20, 18, 19, 17, 18, 15, 17]",13,shiftedgaze_R_17.png,f,1,3,results30,001,2026-04-20_13h24.47.330,mogelijke versie adaptive staircase builder,,2026.1.3,60.03244153120417,2026-04-20 13h24.47.585592 +0200,
20.5,ecc10neg,right,20,0,20,f,0,2.6774007999993046,None,0,2,2,2,20,0,20,0,2560.526172,,,,,,,,,,,,,,,2560.5139022000003,2560.526172,2560.526172,2561.4135448999987,2560.526172,2563.2134599,f,0,2.6774007999993046,None,direct,16,"[20, 19, 20, 19, 20, 19, 20, 18, 19, 17, 18, 15, 17, 16]",14,shifteddirectgaze.png,f,0,3,results30,001,2026-04-20_13h24.47.330,mogelijke versie adaptive staircase builder,,2026.1.3,60.03244153120417,2026-04-20 13h24.47.585592 +0200,
20.5,ecc10neg,right,21,0,21,f,0,1.757253199999468,None,0,2,2,2,21,0,21,0,2563.3016107000003,,,,,,,,,,,,,,,2563.2908169,2563.3016107000003,2563.3016107000003,2564.213879499999,2563.3016107000003,2565.063279799999,f,0,1.757253199999468,None,direct,17,"[20, 19, 20, 19, 20, 19, 20, 18, 19, 17, 18, 15, 17, 16]",14,shifteddirectgaze.png,f,0,3,results30,001,2026-04-20_13h24.47.330,mogelijke versie adaptive staircase builder,,2026.1.3,60.03244153120417,2026-04-20 13h24.47.585592 +0200,
20.5,ecc10neg,right,22,0,22,f,1,2.056339200000366,None,0,2,2,2,22,0,22,0,2565.1785856999995,,,,,,,,,,,,,,,2565.1667399,2565.1785856999995,2565.1785856999995,2566.0630261999995,2565.1785856999995,2567.246609599999,f,1,2.056339200000366,None,right,18,"[20, 19, 20, 19, 20, 19, 20, 18, 19, 17, 18, 15, 17, 16, 18]",15,shiftedgaze_R_18.png,f,1,3,results30,001,2026-04-20_13h24.47.330,mogelijke versie adaptive staircase builder,,2026.1.3,60.03244153120417,2026-04-20 13h24.47.585592 +0200,
20.5,ecc10neg,right,23,0,23,j,0,1.668667899999491,None,0,2,2,2,23,0,23,0,2567.3582301999995,,,,,,,,,,,,,,,2567.3464857,2567.3582301999995,2567.3582301999995,2568.2463587,2567.3582301999995,2569.0298931999987,j,0,1.668667899999491,None,left,17,"[20, 19, 20, 19, 20, 19, 20, 18, 19, 17, 18, 15, 17, 16, 18, 17]",16,shiftedgaze_L_17.png,j,0,3,results30,001,2026-04-20_13h24.47.330,mogelijke versie adaptive staircase builder,,2026.1.3,60.03244153120417,2026-04-20 13h24.47.585592 +0200,
20.5,ecc10neg,right,24,0,24,f,0,2.184566600000835,None,0,2,2,2,24,0,24,0,2569.130384799999,,,,,,,,,,,,,,,2569.119628799999,2569.130384799999,2569.130384799999,2570.029771899999,2569.130384799999,2571.3298856,f,0,2.184566600000835,None,direct,18,"[20, 19, 20, 19, 20, 19, 20, 18, 19, 17, 18, 15, 17, 16, 18, 17]",16,shifteddirectgaze.png,f,0,3,results30,001,2026-04-20_13h24.47.330,mogelijke versie adaptive staircase builder,,2026.1.3,60.03244153120417,2026-04-20 13h24.47.585592 +0200,
20.5,ecc10neg,right,25,0,25,f,1,2.7080248999991454,None,0,2,2,2,25,0,25,0,2571.4552248,,,,,,,,,,,,,,,2571.443500199999,2571.4552248,2571.4552248,2572.3297578,2571.4552248,2574.1799241999997,f,1,2.7080248999991454,None,right,19,"[20, 19, 20, 19, 20, 19, 20, 18, 19, 17, 18, 15, 17, 16, 18, 17, 19]",17,shiftedgaze_R_19.png,f,1,3,results30,001,2026-04-20_13h24.47.330,mogelijke versie adaptive staircase builder,,2026.1.3,60.03244153120417,2026-04-20 13h24.47.585592 +0200,
20.5,ecc10neg,right,26,0,26,f,0,1.9124854000001505,None,0,2,2,2,26,0,26,0,2574.2909081,,,,,,,,,,,,,,,2574.2795545999998,2574.2909081,2574.2909081,2575.179503399999,2574.2909081,2576.2133658000002,f,0,1.9124854000001505,None,direct,18,"[20, 19, 20, 19, 20, 19, 20, 18, 19, 17, 18, 15, 17, 16, 18, 17, 19, 18]",18,shifteddirectgaze.png,f,0,3,results30,001,2026-04-20_13h24.47.330,mogelijke versie adaptive staircase builder,,2026.1.3,60.03244153120417,2026-04-20 13h24.47.585592 +0200,
20.5,ecc10neg,right,27,0,27,j,0,1.8933424999995623,None,0,2,2,2,27,0,27,0,2576.3100534999994,,,,,,,,,,,,,,,2576.2992698,2576.3100534999994,2576.3100534999994,2577.2127891,2576.3100534999994,2578.2137661999986,j,0,1.8933424999995623,None,left,19,"[20, 19, 20, 19, 20, 19, 20, 18, 19, 17, 18, 15, 17, 16, 18, 17, 19, 18]",18,shiftedgaze_L_19.png,j,0,3,results30,001,2026-04-20_13h24.47.330,mogelijke versie adaptive staircase builder,,2026.1.3,60.03244153120417,2026-04-20 13h24.47.585592 +0200,
20.5,ecc10neg,right,28,0,28,f,0,3.2176730999999563,None,0,2,2,2,28,0,28,0,2578.3053278999996,,,,,,,,,,,,,,,2578.2939735,2578.3053278999996,2578.3053278999996,2579.2294624999995,2578.3053278999996,2581.5298509999993,f,0,3.2176730999999563,None,direct,20,"[20, 19, 20, 19, 20, 19, 20, 18, 19, 17, 18, 15, 17, 16, 18, 17, 19, 18]",18,shifteddirectgaze.png,f,0,3,results30,001,2026-04-20_13h24.47.330,mogelijke versie adaptive staircase builder,,2026.1.3,60.03244153120417,2026-04-20 13h24.47.585592 +0200,
20.5,ecc10neg,right,29,0,29,j,0,2.3414396999996825,None,0,2,2,2,29,0,29,0,2581.6295474,,,,,,,,,,,,,,,2581.6192935,2581.6295474,2581.6295474,2582.5294717999986,2581.6295474,2583.9797691000003,j,0,2.3414396999996825,None,left,20,"[20, 19, 20, 19, 20, 19, 20, 18, 19, 17, 18, 15, 17, 16, 18, 17, 19, 18]",18,shiftedgaze_L_20.png,j,0,3,results30,001,2026-04-20_13h24.47.330,mogelijke versie adaptive staircase builder,,2026.1.3,60.03244153120417,2026-04-20 13h24.47.585592 +0200,
20.5,ecc10neg,right,30,0,30,f,1,2.0988612000001012,None,0,2,2,2,30,0,30,0,2584.1042741,,,,,,,,,,,,,,,2584.0927092,2584.1042741,2584.1042741,2584.9793983,2584.1042741,2586.2130829999987,f,1,2.0988612000001012,None,right,20,"[20, 19, 20, 19, 20, 19, 20, 18, 19, 17, 18, 15, 17, 16, 18, 17, 19, 18, 20]",19,shiftedgaze_R_20.png,f,1,3,results30,001,2026-04-20_13h24.47.330,mogelijke versie adaptive staircase builder,,2026.1.3,60.03244153120417,2026-04-20 13h24.47.585592 +0200,
20.5,ecc10neg,right,31,0,31,j,0,2.9932564000009734,None,0,2,2,2,31,0,31,0,2586.3217366999997,,,,,,,,,,,,,,,2586.3103592999996,2586.3217366999997,2586.3217366999997,2587.212903899999,2586.3217366999997,2589.3297284,j,0,2.9932564000009734,None,left,19,"[20, 19, 20, 19, 20, 19, 20, 18, 19, 17, 18, 15, 17, 16, 18, 17, 19, 18, 20, 19]",20,shiftedgaze_L_19.png,j,0,3,results30,001,2026-04-20_13h24.47.330,mogelijke versie adaptive staircase builder,,2026.1.3,60.03244153120417,2026-04-20 13h24.47.585592 +0200,
20.5,ecc10neg,right,32,0,32,j,0,3.3034667000010813,None,0,2,2,2,32,0,32,0,2589.419628399999,,,,,,,,,,,,,,,2589.4088883999993,2589.419628399999,2589.419628399999,2590.329352999999,2589.419628399999,2592.7297230000004,j,0,3.3034667000010813,None,left,20,"[20, 19, 20, 19, 20, 19, 20, 18, 19, 17, 18, 15, 17, 16, 18, 17, 19, 18, 20, 19]",20,shiftedgaze_L_20.png,j,0,3,results30,001,2026-04-20_13h24.47.330,mogelijke versie adaptive staircase builder,,2026.1.3,60.03244153120417,2026-04-20 13h24.47.585592 +0200,
20.5,ecc10neg,right,33,0,33,j,0,2.789163900000858,None,0,2,2,2,33,0,33,0,2592.8217817999994,,,,,,,,,,,,,,,2592.8109829999994,2592.8217817999994,2592.8217817999994,2593.7295398999995,2592.8217817999994,2595.613120099999,j,0,2.789163900000858,None,left,20,"[20, 19, 20, 19, 20, 19, 20, 18, 19, 17, 18, 15, 17, 16, 18, 17, 19, 18, 20, 19]",20,shiftedgaze_L_20.png,j,0,3,results30,001,2026-04-20_13h24.47.330,mogelijke versie adaptive staircase builder,,2026.1.3,60.03244153120417,2026-04-20 13h24.47.585592 +0200,
20.5,ecc10neg,right,34,0,34,j,0,3.320106399998622,None,0,2,2,2,34,0,34,0,2595.7068867999988,,,,,,,,,,,,,,,2595.6961546,2595.7068867999988,2595.7068867999988,2596.6126943,2595.7068867999988,2599.0296548999995,j,0,3.320106399998622,None,left,20,"[20, 19, 20, 19, 20, 19, 20, 18, 19, 17, 18, 15, 17, 16, 18, 17, 19, 18, 20, 19]",20,shiftedgaze_L_20.png,j,0,3,results30,001,2026-04-20_13h24.47.330,mogelijke versie adaptive staircase builder,,2026.1.3,60.03244153120417,2026-04-20 13h24.47.585592 +0200,
20.5,ecc10neg,right,35,0,35,f,1,3.0289677000000665,None,0,2,2,2,35,0,35,0,2599.1580242,,,,,,,,,,,,,,,2599.146399199999,2599.1580242,2599.1580242,2600.029175599999,2599.1580242,2602.1964898999995,f,1,3.0289677000000665,None,right,20,"[20, 19, 20, 19, 20, 19, 20, 18, 19, 17, 18, 15, 17, 16, 18, 17, 19, 18, 20, 19, 20]",21,shiftedgaze_R_20.png,f,1,3,results30,001,2026-04-20_13h24.47.330,mogelijke versie adaptive staircase builder,,2026.1.3,60.03244153120417,2026-04-20 13h24.47.585592 +0200,
20.5,ecc10neg,right,36,0,36,j,0,4.399701700000151,None,0,2,2,2,36,0,36,0,2602.3152481999987,,,,,,,,,,,,,,,2602.304358899999,2602.3152481999987,2602.3152481999987,2603.1958128999995,2602.3152481999987,2606.729669999999,j,0,4.399701700000151,None,left,19,"[20, 19, 20, 19, 20, 19, 20, 18, 19, 17, 18, 15, 17, 16, 18, 17, 19, 18, 20, 19, 20, 19]",22,shiftedgaze_L_19.png,j,0,3,results30,001,2026-04-20_13h24.47.330,mogelijke versie adaptive staircase builder,,2026.1.3,60.03244153120417,2026-04-20 13h24.47.585592 +0200,
20.5,ecc10neg,right,37,0,37,j,0,1.984114300001238,None,0,2,2,2,37,0,37,0,2606.8269760000003,,,,,,,,,,,,,,,2606.8167974999997,2606.8269760000003,2606.8269760000003,2607.7299888,2606.8269760000003,2608.8128696999993,j,0,1.984114300001238,None,left,20,"[20, 19, 20, 19, 20, 19, 20, 18, 19, 17, 18, 15, 17, 16, 18, 17, 19, 18, 20, 19, 20, 19]",22,shiftedgaze_L_20.png,j,0,3,results30,001,2026-04-20_13h24.47.330,mogelijke versie adaptive staircase builder,,2026.1.3,60.03244153120417,2026-04-20 13h24.47.585592 +0200,
20.5,ecc10neg,right,38,0,38,j,0,1.95774689999962,None,0,2,2,2,38,0,38,0,2608.90921,,,,,,,,,,,,,,,2608.8964873999994,2608.90921,2608.90921,2609.8124489,2608.90921,2610.8795766000003,j,0,1.95774689999962,None,left,20,"[20, 19, 20, 19, 20, 19, 20, 18, 19, 17, 18, 15, 17, 16, 18, 17, 19, 18, 20, 19, 20, 19]",22,shiftedgaze_L_20.png,j,0,3,results30,001,2026-04-20_13h24.47.330,mogelijke versie adaptive staircase builder,,2026.1.3,60.03244153120417,2026-04-20 13h24.47.585592 +0200,
20.5,ecc10neg,right,39,0,39,f,1,1.9153870999998617,None,0,2,2,2,39,0,39,0,2610.999637499999,,,,,,,,,,,,,,,2610.9874776999986,2610.999637499999,2610.999637499999,2611.8790771999993,2610.999637499999,2612.9294235999987,f,1,1.9153870999998617,None,right,20,"[20, 19, 20, 19, 20, 19, 20, 18, 19, 17, 18, 15, 17, 16, 18, 17, 19, 18, 20, 19, 20, 19, 20]",23,shiftedgaze_R_20.png,f,1,3,results30,001,2026-04-20_13h24.47.330,mogelijke versie adaptive staircase builder,,2026.1.3,60.03244153120417,2026-04-20 13h24.47.585592 +0200,
20.5,ecc10neg,right,40,0,40,f,1,1.7670241999985592,None,0,2,2,2,40,0,40,0,2613.0279425999997,,,,,,,,,,,,,,,2613.0169069999993,2613.0279425999997,2613.0279425999997,2613.9289305,2613.0279425999997,2614.7962362,f,1,1.7670241999985592,None,right,19,"[20, 19, 20, 19, 20, 19, 20, 18, 19, 17, 18, 15, 17, 16, 18, 17, 19, 18, 20, 19, 20, 19, 20]",23,shiftedgaze_R_19.png,f,1,3,results30,001,2026-04-20_13h24.47.330,mogelijke versie adaptive staircase builder,,2026.1.3,60.03244153120417,2026-04-20 13h24.47.585592 +0200,
20.5,ecc10neg,right,41,0,41,f,1,2.2185203000008187,None,0,2,2,2,41,0,41,0,2614.944373999999,,,,,,,,,,,,,,,2614.8921360999993,2614.944373999999,2614.944373999999,2615.7956619999986,2614.944373999999,2617.1795028999986,f,1,2.2185203000008187,None,right,18,"[20, 19, 20, 19, 20, 19, 20, 18, 19, 17, 18, 15, 17, 16, 18, 17, 19, 18, 20, 19, 20, 19, 20]",23,shiftedgaze_R_18.png,f,1,3,results30,001,2026-04-20_13h24.47.330,mogelijke versie adaptive staircase builder,,2026.1.3,60.03244153120417,2026-04-20 13h24.47.585592 +0200,
20.5,ecc10neg,right,42,0,42,f,1,1.9593489999988378,None,0,2,2,2,42,0,42,0,2617.2836324,,,,,,,,,,,,,,,2617.2726277,2617.2836324,2617.2836324,2618.178963799999,2617.2836324,2619.2459879999988,f,1,1.9593489999988378,None,right,17,"[20, 19, 20, 19, 20, 19, 20, 18, 19, 17, 18, 15, 17, 16, 18, 17, 19, 18, 20, 19, 20, 19, 20]",23,shiftedgaze_R_17.png,f,1,3,results30,001,2026-04-20_13h24.47.330,mogelijke versie adaptive staircase builder,,2026.1.3,60.03244153120417,2026-04-20 13h24.47.585592 +0200,
20.5,ecc10neg,right,43,0,43,j,0,1.7755762000015238,None,0,2,2,2,43,0,43,0,2619.3634045,,,,,,,,,,,,,,,2619.351874,2619.3634045,2619.3634045,2620.245522899999,2619.3634045,2621.145902799999,j,0,1.7755762000015238,None,left,16,"[20, 19, 20, 19, 20, 19, 20, 18, 19, 17, 18, 15, 17, 16, 18, 17, 19, 18, 20, 19, 20, 19, 20, 16]",24,shiftedgaze_L_16.png,j,0,3,results30,001,2026-04-20_13h24.47.330,mogelijke versie adaptive staircase builder,,2026.1.3,60.03244153120417,2026-04-20 13h24.47.585592 +0200,
20.5,ecc10neg,right,44,0,44,f,0,4.014058599999771,None,0,2,2,2,44,0,44,0,2621.2449555000003,,,,,,,,,,,,,,,2621.2329986999994,2621.2449555000003,2621.2449555000003,2622.1455583999996,2621.2449555000003,2625.2625185999987,f,0,4.014058599999771,None,direct,17,"[20, 19, 20, 19, 20, 19, 20, 18, 19, 17, 18, 15, 17, 16, 18, 17, 19, 18, 20, 19, 20, 19, 20, 16]",24,shifteddirectgaze.png,f,0,3,results30,001,2026-04-20_13h24.47.330,mogelijke versie adaptive staircase builder,,2026.1.3,60.03244153120417,2026-04-20 13h24.47.585592 +0200,
20.5,ecc10neg,right,45,0,45,f,0,2.3257162000008975,None,0,2,2,2,45,0,45,0,2625.357270299999,,,,,,,,,,,,,,,2625.346430399999,2625.357270299999,2625.357270299999,2626.2631736000003,2625.357270299999,2627.6959842999986,f,0,2.3257162000008975,None,direct,18,"[20, 19, 20, 19, 20, 19, 20, 18, 19, 17, 18, 15, 17, 16, 18, 17, 19, 18, 20, 19, 20, 19, 20, 16]",24,shifteddirectgaze.png,f,0,3,results30,001,2026-04-20_13h24.47.330,mogelijke versie adaptive staircase builder,,2026.1.3,60.03244153120417,2026-04-20 13h24.47.585592 +0200,
20.5,ecc10neg,right,46,0,46,j,0,2.099658900000577,None,0,2,2,2,46,0,46,0,2627.7913489000002,,,,,,,,,,,,,,,2627.7797104,2627.7913489000002,2627.7913489000002,2628.6955018999997,2627.7913489000002,2629.896009799999,j,0,2.099658900000577,None,left,19,"[20, 19, 20, 19, 20, 19, 20, 18, 19, 17, 18, 15, 17, 16, 18, 17, 19, 18, 20, 19, 20, 19, 20, 16]",24,shiftedgaze_L_19.png,j,0,3,results30,001,2026-04-20_13h24.47.330,mogelijke versie adaptive staircase builder,,2026.1.3,60.03244153120417,2026-04-20 13h24.47.585592 +0200,
20.5,ecc10neg,right,47,0,47,f,1,2.1991593000002467,None,0,2,2,2,47,0,47,0,2630.0119606999997,,,,,,,,,,,,,,,2630.0006796999987,2630.0119606999997,2630.0119606999997,2630.895422399999,2630.0119606999997,2632.2125125000002,f,1,2.1991593000002467,None,right,20,"[20, 19, 20, 19, 20, 19, 20, 18, 19, 17, 18, 15, 17, 16, 18, 17, 19, 18, 20, 19, 20, 19, 20, 16, 20]",25,shiftedgaze_R_20.png,f,1,3,results30,001,2026-04-20_13h24.47.330,mogelijke versie adaptive staircase builder,,2026.1.3,60.03244153120417,2026-04-20 13h24.47.585592 +0200,
20.5,ecc10neg,right,48,0,48,j,0,2.0005712999991374,None,0,2,2,2,48,0,48,0,2632.3225112,,,,,,,,,,,,,,,2632.311610499999,2632.3225112,2632.3225112,2633.2123732,2632.3225112,2634.329051499999,j,0,2.0005712999991374,None,left,19,"[20, 19, 20, 19, 20, 19, 20, 18, 19, 17, 18, 15, 17, 16, 18, 17, 19, 18, 20, 19, 20, 19, 20, 16, 20, 19]",26,shiftedgaze_L_19.png,j,0,3,results30,001,2026-04-20_13h24.47.330,mogelijke versie adaptive staircase builder,,2026.1.3,60.03244153120417,2026-04-20 13h24.47.585592 +0200,
20.5,ecc10neg,right,49,0,49,f,1,2.2756721999994625,None,0,2,2,2,49,0,49,0,2634.4472924,,,,,,,,,,,,,,,2634.435689099999,2634.4472924,2634.4472924,2635.328738299999,2634.4472924,2636.7291153999995,f,1,2.2756721999994625,None,right,20,"[20, 19, 20, 19, 20, 19, 20, 18, 19, 17, 18, 15, 17, 16, 18, 17, 19, 18, 20, 19, 20, 19, 20, 16, 20, 19, 20]",27,shiftedgaze_R_20.png,f,1,3,results30,001,2026-04-20_13h24.47.330,mogelijke versie adaptive staircase builder,,2026.1.3,60.03244153120417,2026-04-20 13h24.47.585592 +0200,
20.5,ecc10neg,right,50,0,50,f,1,1.8886030000012397,None,0,2,2,2,50,0,50,0,2636.8265536,,,,,,,,,,,,,,,2636.8148605999995,2636.8265536,2636.8265536,2637.7287001999994,2636.8265536,2638.7290765,f,1,1.8886030000012397,None,right,19,"[20, 19, 20, 19, 20, 19, 20, 18, 19, 17, 18, 15, 17, 16, 18, 17, 19, 18, 20, 19, 20, 19, 20, 16, 20, 19, 20]",27,shiftedgaze_R_19.png,f,1,3,results30,001,2026-04-20_13h24.47.330,mogelijke versie adaptive staircase builder,,2026.1.3,60.03244153120417,2026-04-20 13h24.47.585592 +0200,
20.5,ecc10neg,right,51,0,51,j,1,2.124293300001227,None,0,2,2,2,51,0,51,0,2638.8387242999997,,,,,,,,,,,,,,,2638.8278147,2638.8387242999997,2638.8387242999997,2639.728694899999,2638.8387242999997,2640.9789772999993,j,1,2.124293300001227,None,direct,18,"[20, 19, 20, 19, 20, 19, 20, 18, 19, 17, 18, 15, 17, 16, 18, 17, 19, 18, 20, 19, 20, 19, 20, 16, 20, 19, 20]",27,shifteddirectgaze.png,j,1,3,results30,001,2026-04-20_13h24.47.330,mogelijke versie adaptive staircase builder,,2026.1.3,60.03244153120417,2026-04-20 13h24.47.585592 +0200,
20.5,ecc10neg,right,52,0,52,j,0,1.76504980000027,None,0,2,2,2,52,0,52,0,2641.0780053,,,,,,,,,,,,,,,2641.064654,2641.0780053,2641.0780053,2641.9786824000003,2641.0780053,2642.8457018999998,j,0,1.76504980000027,None,left,17,"[20, 19, 20, 19, 20, 19, 20, 18, 19, 17, 18, 15, 17, 16, 18, 17, 19, 18, 20, 19, 20, 19, 20, 16, 20, 19, 20, 17]",28,shiftedgaze_L_17.png,j,0,3,results30,001,2026-04-20_13h24.47.330,mogelijke versie adaptive staircase builder,,2026.1.3,60.03244153120417,2026-04-20 13h24.47.585592 +0200,
20.5,ecc10neg,right,53,0,53,f,0,2.0932919000006223,None,0,2,2,2,53,0,53,0,2642.933710899999,,,,,,,,,,,,,,,2642.9230990999986,2642.933710899999,2642.933710899999,2643.8453185,2642.933710899999,2645.0290396,f,0,2.0932919000006223,None,direct,18,"[20, 19, 20, 19, 20, 19, 20, 18, 19, 17, 18, 15, 17, 16, 18, 17, 19, 18, 20, 19, 20, 19, 20, 16, 20, 19, 20, 17]",28,shifteddirectgaze.png,f,0,3,results30,001,2026-04-20_13h24.47.330,mogelijke versie adaptive staircase builder,,2026.1.3,60.03244153120417,2026-04-20 13h24.47.585592 +0200,
20.5,ecc10neg,right,54,0,54,f,1,2.9808634000000893,None,0,2,2,2,54,0,54,0,2645.1422156999997,,,,,,,,,,,,,,,2645.1303602999997,2645.1422156999997,2645.1422156999997,2646.028602299999,2645.1422156999997,2648.1291021999987,f,1,2.9808634000000893,None,right,19,"[20, 19, 20, 19, 20, 19, 20, 18, 19, 17, 18, 15, 17, 16, 18, 17, 19, 18, 20, 19, 20, 19, 20, 16, 20, 19, 20, 17, 19]",29,shiftedgaze_R_19.png,f,1,3,results30,001,2026-04-20_13h24.47.330,mogelijke versie adaptive staircase builder,,2026.1.3,60.03244153120417,2026-04-20 13h24.47.585592 +0200,
20.5,ecc10neg,right,55,0,55,f,1,1.5636917000010726,None,0,2,2,2,55,0,55,0,2648.223303499999,,,,,,,,,,,,,,,2648.2116995999986,2648.223303499999,2648.223303499999,2649.1286377999986,2648.223303499999,2649.795556699999,f,1,1.5636917000010726,None,right,18,"[20, 19, 20, 19, 20, 19, 20, 18, 19, 17, 18, 15, 17, 16, 18, 17, 19, 18, 20, 19, 20, 19, 20, 16, 20, 19, 20, 17, 19]",29,shiftedgaze_R_18.png,f,1,3,results30,001,2026-04-20_13h24.47.330,mogelijke versie adaptive staircase builder,,2026.1.3,60.03244153120417,2026-04-20 13h24.47.585592 +0200,
20.5,ecc10neg,right,56,0,56,j,0,1.7517100999994,None,0,2,2,2,56,0,56,0,2649.915252999999,,,,,,,,,,,,,,,2649.9021369,2649.915252999999,2649.915252999999,2650.795218199999,2649.915252999999,2651.678785599999,j,0,1.7517100999994,None,left,17,"[20, 19, 20, 19, 20, 19, 20, 18, 19, 17, 18, 15, 17, 16, 18, 17, 19, 18, 20, 19, 20, 19, 20, 16, 20, 19, 20, 17, 19, 17]",30,shiftedgaze_L_17.png,j,0,3,results30,001,2026-04-20_13h24.47.330,mogelijke versie adaptive staircase builder,,2026.1.3,60.03244153120417,2026-04-20 13h24.47.585592 +0200,
20.5,ecc10neg,right,57,0,57,f,0,2.2533232999994652,None,0,2,2,2,57,0,57,0,2651.7737356,,,,,,,,,,,,,,,2651.7604813,2651.7737356,2651.7737356,2652.6785984,2651.7737356,2654.0288636999994,f,0,2.2533232999994652,None,direct,18,"[20, 19, 20, 19, 20, 19, 20, 18, 19, 17, 18, 15, 17, 16, 18, 17, 19, 18, 20, 19, 20, 19, 20, 16, 20, 19, 20, 17, 19, 17]",30,shifteddirectgaze.png,f,0,3,results30,001,2026-04-20_13h24.47.330,mogelijke versie adaptive staircase builder,,2026.1.3,60.03244153120417,2026-04-20 13h24.47.585592 +0200,
20.5,ecc10neg,right,58,0,58,f,0,2.0510211999990133,None,0,2,2,2,58,0,58,0,2654.119990199999,,,,,,,,,,,,,,,2654.1097991999995,2654.119990199999,2654.119990199999,2655.028430299999,2654.119990199999,2656.178876599999,f,0,2.0510211999990133,None,direct,19,"[20, 19, 20, 19, 20, 19, 20, 18, 19, 17, 18, 15, 17, 16, 18, 17, 19, 18, 20, 19, 20, 19, 20, 16, 20, 19, 20, 17, 19, 17]",30,shifteddirectgaze.png,f,0,3,results30,001,2026-04-20_13h24.47.330,mogelijke versie adaptive staircase builder,,2026.1.3,60.03244153120417,2026-04-20 13h24.47.585592 +0200,
20.5,ecc10neg,right,59,0,59,f,1,1.9006063999986509,None,0,2,2,2,59,0,59,0,2656.2946140999993,,,,,,,,,,,,,,,2656.2831038999993,2656.2946140999993,2656.2946140999993,2657.1784208999998,2656.2946140999993,2658.195555099999,f,1,1.9006063999986509,None,right,20,"[20, 19, 20, 19, 20, 19, 20, 18, 19, 17, 18, 15, 17, 16, 18, 17, 19, 18, 20, 19, 20, 19, 20, 16, 20, 19, 20, 17, 19, 17, 20]",31,shiftedgaze_R_20.png,f,1,3,results30,001,2026-04-20_13h24.47.330,mogelijke versie adaptive staircase builder,,2026.1.3,60.03244153120417,2026-04-20 13h24.47.585592 +0200,
20.5,ecc10neg,right,2,2,0,,,,,0,2,2,2,,,,,,,,,,,,,,,,,,,,,,,,,,,,,,,,,,,,,,results30,001,2026-04-20_13h24.47.330,mogelijke versie adaptive staircase builder,,2026.1.3,60.03244153120417,2026-04-20 13h24.47.585592 +0200,
