xPos,stimulusSet,whichImage,thisN,thisTrialN,thisRepN,key_resp.keys,key_resp.corr,key_resp.rt,key_resp.duration,blocks.thisRepN,blocks.thisTrialN,blocks.thisN,blocks.thisIndex,trials.thisRepN,trials.thisTrialN,trials.thisN,trials.thisIndex,thisRow.t,notes,piloting,intro.started,introinstructions.started,intro_key.started,demo_image_left.started,demo_image_middle.started,demo_image_right.started,intro.stopped,intro_key.keys,intro_key.rt,intro_key.duration,block_start.started,block_start.stopped,trial.started,key_resp.started,middle_image.started,right_image.started,left_image.started,trial.stopped,trials.key_resp.keys,trials.key_resp.corr,trials.key_resp.rt,trials.key_resp.duration,direction,angle,reversal_intensities,number_reversals,stimulus,response,correct,blockNumber,participant,session,date,expName,expVersion,psychopyVersion,frameRate,expStart,
,,,,,,,,,,,,,,,,,,,,False,0.07356310000000121,0.08307110000009743,0.08307110000009743,0.08307110000009743,0.08307110000009743,0.08307110000009743,964.1729814000003,space,963.9526856999998,0.1278639000001931,,,,,,,,,,,,,,,,,,,,,results1,001,2026-04-13_10h21.27.217,mogelijke versie adaptive staircase builder,,2026.1.3,59.95401527031515,2026-04-13 10h21.27.472671 +0200,
4.5,ecc10pos,left,0,0,0,j,1,21.514339400000154,None,0,0,0,0,0,0,0,0,964.5293540999999,,,,,,,,,,,,,964.4129245000001,964.4129833,964.5193510000001,964.5293540999999,964.5293540999999,964.5293540999999,965.4224076000003,986.0559586000002,j,1,21.514339400000154,None,direct,20,[],0,shifteddirectgaze.png,j,1,1,results1,001,2026-04-13_10h21.27.217,mogelijke versie adaptive staircase builder,,2026.1.3,59.95401527031515,2026-04-13 10h21.27.472671 +0200,
4.5,ecc10pos,left,1,0,1,f,1,4.292312300000049,None,0,0,0,0,1,0,1,0,986.1674304000001,,,,,,,,,,,,,,,986.1569193000003,986.1674304000001,986.1674304000001,986.1674304000001,987.0554955,990.4729206,f,1,4.292312300000049,None,right,19,[],0,shiftedgaze_R_19.png,f,1,1,results1,001,2026-04-13_10h21.27.217,mogelijke versie adaptive staircase builder,,2026.1.3,59.95401527031515,2026-04-13 10h21.27.472671 +0200,
4.5,ecc10pos,left,2,0,2,f,1,12.86305319999974,None,0,0,0,0,2,0,2,0,990.5806421,,,,,,,,,,,,,,,990.5710601000003,990.5806421,990.5806421,990.5806421,991.4887134000003,1003.4557041999999,f,1,12.86305319999974,None,right,18,[],0,shiftedgaze_R_18.png,f,1,1,results1,001,2026-04-13_10h21.27.217,mogelijke versie adaptive staircase builder,,2026.1.3,59.95401527031515,2026-04-13 10h21.27.472671 +0200,
4.5,ecc10pos,left,3,0,3,j,0,4.037392599999748,None,0,0,0,0,3,0,3,0,1003.5581857,,,,,,,,,,,,,,,1003.5464531,1003.5581857,1003.5581857,1003.5581857,1004.4552793,1007.6056432000003,j,0,4.037392599999748,None,right,17,[17],1,shiftedgaze_R_17.png,j,0,1,results1,001,2026-04-13_10h21.27.217,mogelijke versie adaptive staircase builder,,2026.1.3,59.95401527031515,2026-04-13 10h21.27.472671 +0200,
4.5,ecc10pos,left,4,0,4,f,1,4.990347799999654,None,0,0,0,0,4,0,4,0,1007.7334788999999,,,,,,,,,,,,,,,1007.7200418,1007.7334788999999,1007.7334788999999,1007.7334788999999,1008.6055282,1012.7388960000001,f,1,4.990347799999654,None,left,18,"[17, 18]",2,shiftedgaze_L_18.png,f,1,1,results1,001,2026-04-13_10h21.27.217,mogelijke versie adaptive staircase builder,,2026.1.3,59.95401527031515,2026-04-13 10h21.27.472671 +0200,
4.5,ecc10pos,left,5,0,5,j,0,11.423847099999875,None,0,0,0,0,5,0,5,0,1012.8518541000001,,,,,,,,,,,,,,,1012.8390000000002,1012.8518541000001,1012.8518541000001,1012.8518541000001,1013.7383652000001,1024.2888309000002,j,0,11.423847099999875,None,right,17,"[17, 18, 17]",3,shiftedgaze_R_17.png,j,0,1,results1,001,2026-04-13_10h21.27.217,mogelijke versie adaptive staircase builder,,2026.1.3,59.95401527031515,2026-04-13 10h21.27.472671 +0200,
4.5,ecc10pos,left,6,0,6,j,0,3.4834264999999505,None,0,0,0,0,6,0,6,0,1024.4081675,,,,,,,,,,,,,,,1024.3942048000001,1024.4081675,1024.4081675,1024.4081675,1025.2883054000001,1027.9054004000002,j,0,3.4834264999999505,None,left,18,"[17, 18, 17]",3,shiftedgaze_L_18.png,j,0,1,results1,001,2026-04-13_10h21.27.217,mogelijke versie adaptive staircase builder,,2026.1.3,59.95401527031515,2026-04-13 10h21.27.472671 +0200,
4.5,ecc10pos,left,7,0,7,j,0,3.322620899999947,None,0,0,0,0,7,0,7,0,1028.0170904,,,,,,,,,,,,,,,1028.005691,1028.0170904,1028.0170904,1028.0170904,1028.9048647000002,1031.3551773000002,j,0,3.322620899999947,None,left,19,"[17, 18, 17]",3,shiftedgaze_L_19.png,j,0,1,results1,001,2026-04-13_10h21.27.217,mogelijke versie adaptive staircase builder,,2026.1.3,59.95401527031515,2026-04-13 10h21.27.472671 +0200,
4.5,ecc10pos,left,8,0,8,f,1,8.409980500000074,None,0,0,0,0,8,0,8,0,1031.4740819,,,,,,,,,,,,,,,1031.4629200000002,1031.4740819,1031.4740819,1031.4740819,1032.3548614,1039.8885815,f,1,8.409980500000074,None,right,20,"[17, 18, 17, 20]",4,shiftedgaze_R_20.png,f,1,1,results1,001,2026-04-13_10h21.27.217,mogelijke versie adaptive staircase builder,,2026.1.3,59.95401527031515,2026-04-13 10h21.27.472671 +0200,
4.5,ecc10pos,left,9,0,9,j,0,12.5817076000003,None,0,0,0,0,9,0,9,0,1040.0218957,,,,,,,,,,,,,,,1040.0105283999999,1040.0218957,1040.0218957,1040.0218957,1040.8881604,1052.6049074,j,0,12.5817076000003,None,left,19,"[17, 18, 17, 20, 19]",5,shiftedgaze_L_19.png,j,0,1,results1,001,2026-04-13_10h21.27.217,mogelijke versie adaptive staircase builder,,2026.1.3,59.95401527031515,2026-04-13 10h21.27.472671 +0200,
4.5,ecc10pos,left,10,0,10,j,0,11.958749500000067,None,0,0,0,0,10,0,10,0,1052.7169102999999,,,,,,,,,,,,,,,1052.7052003000001,1052.7169102999999,1052.7169102999999,1052.7169102999999,1053.604595,1064.6880057,j,0,11.958749500000067,None,right,20,"[17, 18, 17, 20, 19]",5,shiftedgaze_R_20.png,j,0,1,results1,001,2026-04-13_10h21.27.217,mogelijke versie adaptive staircase builder,,2026.1.3,59.95401527031515,2026-04-13 10h21.27.472671 +0200,
4.5,ecc10pos,left,11,0,11,f,0,8.502846599999884,None,0,0,0,0,11,0,11,0,1064.7811389,,,,,,,,,,,,,,,1064.7700375000002,1064.7811389,1064.7811389,1064.7811389,1065.6875966999999,1073.2879618,f,0,8.502846599999884,None,direct,20,"[17, 18, 17, 20, 19]",5,shifteddirectgaze.png,f,0,1,results1,001,2026-04-13_10h21.27.217,mogelijke versie adaptive staircase builder,,2026.1.3,59.95401527031515,2026-04-13 10h21.27.472671 +0200,
4.5,ecc10pos,left,12,0,12,j,0,8.726825799999915,None,0,0,0,0,12,0,12,0,1073.3808440999999,,,,,,,,,,,,,,,1073.3691158,1073.3808440999999,1073.3808440999999,1073.3808440999999,1074.28767,1082.1212954999999,j,0,8.726825799999915,None,right,20,"[17, 18, 17, 20, 19]",5,shiftedgaze_R_20.png,j,0,1,results1,001,2026-04-13_10h21.27.217,mogelijke versie adaptive staircase builder,,2026.1.3,59.95401527031515,2026-04-13 10h21.27.472671 +0200,
4.5,ecc10pos,left,13,0,13,f,1,8.557034599999952,None,0,0,0,0,13,0,13,0,1082.2146276,,,,,,,,,,,,,,,1082.2036031999999,1082.2146276,1082.2146276,1082.2146276,1083.1208024,1090.7876957,f,1,8.557034599999952,None,right,20,"[17, 18, 17, 20, 19, 20]",6,shiftedgaze_R_20.png,f,1,1,results1,001,2026-04-13_10h21.27.217,mogelijke versie adaptive staircase builder,,2026.1.3,59.95401527031515,2026-04-13 10h21.27.472671 +0200,
4.5,ecc10pos,left,14,0,14,j,0,4.453625900000134,None,0,0,0,0,14,0,14,0,1090.9020679000002,,,,,,,,,,,,,,,1090.8907439000002,1090.9020679000002,1090.9020679000002,1090.9020679000002,1091.7872551000003,1095.3712774000003,j,0,4.453625900000134,None,left,19,"[17, 18, 17, 20, 19, 20, 19]",7,shiftedgaze_L_19.png,j,0,1,results1,001,2026-04-13_10h21.27.217,mogelijke versie adaptive staircase builder,,2026.1.3,59.95401527031515,2026-04-13 10h21.27.472671 +0200,
4.5,ecc10pos,left,15,0,15,j,0,4.346666800000094,None,0,0,0,0,15,0,15,0,1095.4809160000002,,,,,,,,,,,,,,,1095.4698187000001,1095.4809160000002,1095.4809160000002,1095.4809160000002,1096.3708087000002,1099.8375399,j,0,4.346666800000094,None,right,20,"[17, 18, 17, 20, 19, 20, 19]",7,shiftedgaze_R_20.png,j,0,1,results1,001,2026-04-13_10h21.27.217,mogelijke versie adaptive staircase builder,,2026.1.3,59.95401527031515,2026-04-13 10h21.27.472671 +0200,
4.5,ecc10pos,left,16,0,16,j,0,2.5896048000004157,None,0,0,0,0,16,0,16,0,1099.9659941000002,,,,,,,,,,,,,,,1099.9541677,1099.9659941000002,1099.9659941000002,1099.9659941000002,1100.8372422,1102.5706791999999,j,0,2.5896048000004157,None,left,20,"[17, 18, 17, 20, 19, 20, 19]",7,shiftedgaze_L_20.png,j,0,1,results1,001,2026-04-13_10h21.27.217,mogelijke versie adaptive staircase builder,,2026.1.3,59.95401527031515,2026-04-13 10h21.27.472671 +0200,
4.5,ecc10pos,left,17,0,17,f,1,4.735110000000077,None,0,0,0,0,17,0,17,0,1102.6688065,,,,,,,,,,,,,,,1102.6578702,1102.6688065,1102.6688065,1102.6688065,1103.5705243,1107.4206569,f,1,4.735110000000077,None,left,20,"[17, 18, 17, 20, 19, 20, 19, 20]",8,shiftedgaze_L_20.png,f,1,1,results1,001,2026-04-13_10h21.27.217,mogelijke versie adaptive staircase builder,,2026.1.3,59.95401527031515,2026-04-13 10h21.27.472671 +0200,
4.5,ecc10pos,left,18,0,18,f,1,8.217114499999752,None,0,0,0,0,18,0,18,0,1107.5305092,,,,,,,,,,,,,,,1107.5190414,1107.5305092,1107.5305092,1107.5305092,1108.4204143,1115.7540516000001,f,1,8.217114499999752,None,right,19,"[17, 18, 17, 20, 19, 20, 19, 20]",8,shiftedgaze_R_19.png,f,1,1,results1,001,2026-04-13_10h21.27.217,mogelijke versie adaptive staircase builder,,2026.1.3,59.95401527031515,2026-04-13 10h21.27.472671 +0200,
4.5,ecc10pos,left,19,0,19,j,1,6.228017800000089,None,0,0,0,0,19,0,19,0,1115.8558309000002,,,,,,,,,,,,,,,1115.846522,1115.8558309000002,1115.8558309000002,1115.8558309000002,1116.7536998000003,1122.0872062,j,1,6.228017800000089,None,direct,18,"[17, 18, 17, 20, 19, 20, 19, 20]",8,shifteddirectgaze.png,j,1,1,results1,001,2026-04-13_10h21.27.217,mogelijke versie adaptive staircase builder,,2026.1.3,59.95401527031515,2026-04-13 10h21.27.472671 +0200,
4.5,ecc10pos,left,20,0,20,j,1,2.6071160000001328,None,0,0,0,0,20,0,20,0,1122.1804534,,,,,,,,,,,,,,,1122.1685452,1122.1804534,1122.1804534,1122.1804534,1123.0867986,1124.8039027000002,j,1,2.6071160000001328,None,direct,17,"[17, 18, 17, 20, 19, 20, 19, 20]",8,shifteddirectgaze.png,j,1,1,results1,001,2026-04-13_10h21.27.217,mogelijke versie adaptive staircase builder,,2026.1.3,59.95401527031515,2026-04-13 10h21.27.472671 +0200,
4.5,ecc10pos,left,21,0,21,f,1,7.706813700000112,None,0,0,0,0,21,0,21,0,1124.9367447000002,,,,,,,,,,,,,,,1124.9262701,1124.9367447000002,1124.9367447000002,1124.9367447000002,1125.8034373000003,1132.6535635000002,f,1,7.706813700000112,None,right,16,"[17, 18, 17, 20, 19, 20, 19, 20]",8,shiftedgaze_R_16.png,f,1,1,results1,001,2026-04-13_10h21.27.217,mogelijke versie adaptive staircase builder,,2026.1.3,59.95401527031515,2026-04-13 10h21.27.472671 +0200,
4.5,ecc10pos,left,22,0,22,j,1,9.617983300000105,None,0,0,0,0,22,0,22,0,1132.7456194,,,,,,,,,,,,,,,1132.7348196,1132.7456194,1132.7456194,1132.7456194,1133.6531561,1142.3701957,j,1,9.617983300000105,None,direct,15,"[17, 18, 17, 20, 19, 20, 19, 20]",8,shifteddirectgaze.png,j,1,1,results1,001,2026-04-13_10h21.27.217,mogelijke versie adaptive staircase builder,,2026.1.3,59.95401527031515,2026-04-13 10h21.27.472671 +0200,
4.5,ecc10pos,left,23,0,23,j,0,7.497617800000171,None,0,0,0,0,23,0,23,0,1142.5540214,,,,,,,,,,,,,,,1142.5422578,1142.5540214,1142.5540214,1142.5540214,1143.3698494000002,1150.0532153000001,j,0,7.497617800000171,None,right,14,"[17, 18, 17, 20, 19, 20, 19, 20, 14]",9,shiftedgaze_R_14.png,j,0,1,results1,001,2026-04-13_10h21.27.217,mogelijke versie adaptive staircase builder,,2026.1.3,59.95401527031515,2026-04-13 10h21.27.472671 +0200,
4.5,ecc10pos,left,24,0,24,f,1,4.210050799999863,None,0,0,0,0,24,0,24,0,1150.1856537,,,,,,,,,,,,,,,1150.1718051,1150.1856537,1150.1856537,1150.1856537,1151.0530128000003,1154.4034014000001,f,1,4.210050799999863,None,right,15,"[17, 18, 17, 20, 19, 20, 19, 20, 14, 15]",10,shiftedgaze_R_15.png,f,1,1,results1,001,2026-04-13_10h21.27.217,mogelijke versie adaptive staircase builder,,2026.1.3,59.95401527031515,2026-04-13 10h21.27.472671 +0200,
4.5,ecc10pos,left,25,0,25,j,0,5.9053978000001734,None,0,0,0,0,25,0,25,0,1154.5862903,,,,,,,,,,,,,,,1154.575254,1154.5862903,1154.5862903,1154.5862903,1155.4028693000002,1160.5031850000003,j,0,5.9053978000001734,None,left,14,"[17, 18, 17, 20, 19, 20, 19, 20, 14, 15, 14]",11,shiftedgaze_L_14.png,j,0,1,results1,001,2026-04-13_10h21.27.217,mogelijke versie adaptive staircase builder,,2026.1.3,59.95401527031515,2026-04-13 10h21.27.472671 +0200,
4.5,ecc10pos,left,26,0,26,f,0,7.127589700000044,None,0,0,0,0,26,0,26,0,1160.5961819000001,,,,,,,,,,,,,,,1160.5853459000002,1160.5961819000001,1160.5961819000001,1160.5961819000001,1161.5028358000002,1167.7365413999999,f,0,7.127589700000044,None,direct,15,"[17, 18, 17, 20, 19, 20, 19, 20, 14, 15, 14]",11,shifteddirectgaze.png,f,0,1,results1,001,2026-04-13_10h21.27.217,mogelijke versie adaptive staircase builder,,2026.1.3,59.95401527031515,2026-04-13 10h21.27.472671 +0200,
4.5,ecc10pos,left,27,0,27,j,0,2.1200097999999343,None,0,0,0,0,27,0,27,0,1167.8275717,,,,,,,,,,,,,,,1167.8169745000002,1167.8275717,1167.8275717,1167.8275717,1168.7361276,1169.9532861,j,0,2.1200097999999343,None,right,16,"[17, 18, 17, 20, 19, 20, 19, 20, 14, 15, 14]",11,shiftedgaze_R_16.png,j,0,1,results1,001,2026-04-13_10h21.27.217,mogelijke versie adaptive staircase builder,,2026.1.3,59.95401527031515,2026-04-13 10h21.27.472671 +0200,
4.5,ecc10pos,left,28,0,28,j,0,2.5487379000001056,None,0,0,0,0,28,0,28,0,1170.0788836,,,,,,,,,,,,,,,1170.0652283000002,1170.0788836,1170.0788836,1170.0788836,1170.952567,1172.6360806,j,0,2.5487379000001056,None,left,17,"[17, 18, 17, 20, 19, 20, 19, 20, 14, 15, 14]",11,shiftedgaze_L_17.png,j,0,1,results1,001,2026-04-13_10h21.27.217,mogelijke versie adaptive staircase builder,,2026.1.3,59.95401527031515,2026-04-13 10h21.27.472671 +0200,
4.5,ecc10pos,left,29,0,29,f,0,4.511123700000098,None,0,0,0,0,29,0,29,0,1172.7487345000002,,,,,,,,,,,,,,,1172.7373253000003,1172.7487345000002,1172.7487345000002,1172.7487345000002,1173.6361596,1177.2697784,f,0,4.511123700000098,None,direct,18,"[17, 18, 17, 20, 19, 20, 19, 20, 14, 15, 14]",11,shifteddirectgaze.png,f,0,1,results1,001,2026-04-13_10h21.27.217,mogelijke versie adaptive staircase builder,,2026.1.3,59.95401527031515,2026-04-13 10h21.27.472671 +0200,
4.5,ecc10pos,left,30,0,30,f,0,3.0324181999999382,None,0,0,0,0,30,0,30,0,1177.3632017000002,,,,,,,,,,,,,,,1177.3520509000002,1177.3632017000002,1177.3632017000002,1177.3632017000002,1178.2695592000002,1180.4029688000003,f,0,3.0324181999999382,None,direct,19,"[17, 18, 17, 20, 19, 20, 19, 20, 14, 15, 14]",11,shifteddirectgaze.png,f,0,1,results1,001,2026-04-13_10h21.27.217,mogelijke versie adaptive staircase builder,,2026.1.3,59.95401527031515,2026-04-13 10h21.27.472671 +0200,
4.5,ecc10pos,left,31,0,31,j,1,2.4266865999998117,None,0,0,0,0,31,0,31,0,1180.4969339000002,,,,,,,,,,,,,,,1180.4862807000002,1180.4969339000002,1180.4969339000002,1180.4969339000002,1181.4026062,1182.9362071000003,j,1,2.4266865999998117,None,direct,20,"[17, 18, 17, 20, 19, 20, 19, 20, 14, 15, 14, 20]",12,shifteddirectgaze.png,j,1,1,results1,001,2026-04-13_10h21.27.217,mogelijke versie adaptive staircase builder,,2026.1.3,59.95401527031515,2026-04-13 10h21.27.472671 +0200,
4.5,ecc10pos,left,32,0,32,j,0,3.1891484000002492,None,0,0,0,0,32,0,32,0,1183.0544314,,,,,,,,,,,,,,,1183.0434373,1183.0544314,1183.0544314,1183.0544314,1183.9359398,1186.2528939000001,j,0,3.1891484000002492,None,left,19,"[17, 18, 17, 20, 19, 20, 19, 20, 14, 15, 14, 20, 19]",13,shiftedgaze_L_19.png,j,0,1,results1,001,2026-04-13_10h21.27.217,mogelijke versie adaptive staircase builder,,2026.1.3,59.95401527031515,2026-04-13 10h21.27.472671 +0200,
4.5,ecc10pos,left,33,0,33,j,1,2.958008300000074,None,0,0,0,0,33,0,33,0,1186.3655718000002,,,,,,,,,,,,,,,1186.353762,1186.3655718000002,1186.3655718000002,1186.3655718000002,1187.2523328,1189.3362130000003,j,1,2.958008300000074,None,direct,20,"[17, 18, 17, 20, 19, 20, 19, 20, 14, 15, 14, 20, 19, 20]",14,shifteddirectgaze.png,j,1,1,results1,001,2026-04-13_10h21.27.217,mogelijke versie adaptive staircase builder,,2026.1.3,59.95401527031515,2026-04-13 10h21.27.472671 +0200,
4.5,ecc10pos,left,34,0,34,j,0,7.820843200000127,None,0,0,0,0,34,0,34,0,1189.4387579000002,,,,,,,,,,,,,,,1189.4289598000003,1189.4387579000002,1189.4387579000002,1189.4387579000002,1190.3358206999999,1197.2694070999999,j,0,7.820843200000127,None,right,19,"[17, 18, 17, 20, 19, 20, 19, 20, 14, 15, 14, 20, 19, 20, 19]",15,shiftedgaze_R_19.png,j,0,1,results1,001,2026-04-13_10h21.27.217,mogelijke versie adaptive staircase builder,,2026.1.3,59.95401527031515,2026-04-13 10h21.27.472671 +0200,
4.5,ecc10pos,left,35,0,35,j,1,4.670085299999755,None,0,0,0,0,35,0,35,0,1197.3735104,,,,,,,,,,,,,,,1197.3632225,1197.3735104,1197.3735104,1197.3735104,1198.2691698,1202.0525197,j,1,4.670085299999755,None,direct,20,"[17, 18, 17, 20, 19, 20, 19, 20, 14, 15, 14, 20, 19, 20, 19, 20]",16,shifteddirectgaze.png,j,1,1,results1,001,2026-04-13_10h21.27.217,mogelijke versie adaptive staircase builder,,2026.1.3,59.95401527031515,2026-04-13 10h21.27.472671 +0200,
4.5,ecc10pos,left,36,0,36,j,1,2.5878662999998596,None,0,0,0,0,36,0,36,0,1202.1437832,,,,,,,,,,,,,,,1202.132734,1202.1437832,1202.1437832,1202.1437832,1203.0523111,1204.7359169,j,1,2.5878662999998596,None,direct,19,"[17, 18, 17, 20, 19, 20, 19, 20, 14, 15, 14, 20, 19, 20, 19, 20]",16,shifteddirectgaze.png,j,1,1,results1,001,2026-04-13_10h21.27.217,mogelijke versie adaptive staircase builder,,2026.1.3,59.95401527031515,2026-04-13 10h21.27.472671 +0200,
4.5,ecc10pos,left,37,0,37,j,0,3.011956100000134,None,0,0,0,0,37,0,37,0,1204.8316132000002,,,,,,,,,,,,,,,1204.8196095,1204.8316132000002,1204.8316132000002,1204.8316132000002,1205.73557,1207.8525054,j,0,3.011956100000134,None,right,18,"[17, 18, 17, 20, 19, 20, 19, 20, 14, 15, 14, 20, 19, 20, 19, 20, 18]",17,shiftedgaze_R_18.png,j,0,1,results1,001,2026-04-13_10h21.27.217,mogelijke versie adaptive staircase builder,,2026.1.3,59.95401527031515,2026-04-13 10h21.27.472671 +0200,
4.5,ecc10pos,left,38,0,38,f,1,2.3149985000000015,None,0,0,0,0,38,0,38,0,1207.968955,,,,,,,,,,,,,,,1207.9572894,1207.968955,1207.968955,1207.968955,1208.852181,1210.2858613,f,1,2.3149985000000015,None,left,19,"[17, 18, 17, 20, 19, 20, 19, 20, 14, 15, 14, 20, 19, 20, 19, 20, 18, 19]",18,shiftedgaze_L_19.png,f,1,1,results1,001,2026-04-13_10h21.27.217,mogelijke versie adaptive staircase builder,,2026.1.3,59.95401527031515,2026-04-13 10h21.27.472671 +0200,
4.5,ecc10pos,left,39,0,39,f,1,1.9740693000003375,None,0,0,0,0,39,0,39,0,1210.3974916,,,,,,,,,,,,,,,1210.3860674999999,1210.3974916,1210.3974916,1210.3974916,1211.2855166000002,1212.3858344000002,f,1,1.9740693000003375,None,right,18,"[17, 18, 17, 20, 19, 20, 19, 20, 14, 15, 14, 20, 19, 20, 19, 20, 18, 19]",18,shiftedgaze_R_18.png,f,1,1,results1,001,2026-04-13_10h21.27.217,mogelijke versie adaptive staircase builder,,2026.1.3,59.95401527031515,2026-04-13 10h21.27.472671 +0200,
4.5,ecc10pos,left,40,0,40,f,0,4.944307799999933,None,0,0,0,0,40,0,40,0,1212.4752594,,,,,,,,,,,,,,,1212.4640035,1212.4752594,1212.4752594,1212.4752594,1213.3856406000002,1217.4357019000001,f,0,4.944307799999933,None,direct,17,"[17, 18, 17, 20, 19, 20, 19, 20, 14, 15, 14, 20, 19, 20, 19, 20, 18, 19, 17]",19,shifteddirectgaze.png,f,0,1,results1,001,2026-04-13_10h21.27.217,mogelijke versie adaptive staircase builder,,2026.1.3,59.95401527031515,2026-04-13 10h21.27.472671 +0200,
4.5,ecc10pos,left,41,0,41,j,0,2.153829500000029,None,0,0,0,0,41,0,41,0,1217.5301500000003,,,,,,,,,,,,,,,1217.519594,1217.5301500000003,1217.5301500000003,1217.5301500000003,1218.4351238000002,1219.6857464000002,j,0,2.153829500000029,None,right,18,"[17, 18, 17, 20, 19, 20, 19, 20, 14, 15, 14, 20, 19, 20, 19, 20, 18, 19, 17]",19,shiftedgaze_R_18.png,j,0,1,results1,001,2026-04-13_10h21.27.217,mogelijke versie adaptive staircase builder,,2026.1.3,59.95401527031515,2026-04-13 10h21.27.472671 +0200,
4.5,ecc10pos,left,42,0,42,f,1,2.5648378999999295,None,0,0,0,0,42,0,42,0,1219.7907839000002,,,,,,,,,,,,,,,1219.7792935,1219.7907839000002,1219.7907839000002,1219.7907839000002,1220.6852025,1222.3691194,f,1,2.5648378999999295,None,right,19,"[17, 18, 17, 20, 19, 20, 19, 20, 14, 15, 14, 20, 19, 20, 19, 20, 18, 19, 17, 19]",20,shiftedgaze_R_19.png,f,1,1,results1,001,2026-04-13_10h21.27.217,mogelijke versie adaptive staircase builder,,2026.1.3,59.95401527031515,2026-04-13 10h21.27.472671 +0200,
4.5,ecc10pos,left,43,0,43,j,0,5.621950300000208,None,0,0,0,0,43,0,43,0,1222.4858299999999,,,,,,,,,,,,,,,1222.4743031,1222.4858299999999,1222.4858299999999,1222.4858299999999,1223.3685034000002,1228.1190553,j,0,5.621950300000208,None,left,18,"[17, 18, 17, 20, 19, 20, 19, 20, 14, 15, 14, 20, 19, 20, 19, 20, 18, 19, 17, 19, 18]",21,shiftedgaze_L_18.png,j,0,1,results1,001,2026-04-13_10h21.27.217,mogelijke versie adaptive staircase builder,,2026.1.3,59.95401527031515,2026-04-13 10h21.27.472671 +0200,
4.5,ecc10pos,left,44,0,44,f,1,5.451081499999873,None,0,0,0,0,44,0,44,0,1228.2165647,,,,,,,,,,,,,,,1228.2060149000001,1228.2165647,1228.2165647,1228.2165647,1229.1186257000002,1233.6686806,f,1,5.451081499999873,None,left,19,"[17, 18, 17, 20, 19, 20, 19, 20, 14, 15, 14, 20, 19, 20, 19, 20, 18, 19, 17, 19, 18, 19]",22,shiftedgaze_L_19.png,f,1,1,results1,001,2026-04-13_10h21.27.217,mogelijke versie adaptive staircase builder,,2026.1.3,59.95401527031515,2026-04-13 10h21.27.472671 +0200,
4.5,ecc10pos,left,45,0,45,f,1,3.298074700000143,None,0,0,0,0,45,0,45,0,1233.7775146000001,,,,,,,,,,,,,,,1233.7667653,1233.7775146000001,1233.7775146000001,1233.7775146000001,1234.6683969000003,1237.0854462,f,1,3.298074700000143,None,right,18,"[17, 18, 17, 20, 19, 20, 19, 20, 14, 15, 14, 20, 19, 20, 19, 20, 18, 19, 17, 19, 18, 19]",22,shiftedgaze_R_18.png,f,1,1,results1,001,2026-04-13_10h21.27.217,mogelijke versie adaptive staircase builder,,2026.1.3,59.95401527031515,2026-04-13 10h21.27.472671 +0200,
4.5,ecc10pos,left,46,0,46,f,1,1.9767953000000489,None,0,0,0,0,46,0,46,0,1237.1788072000002,,,,,,,,,,,,,,,1237.167959,1237.1788072000002,1237.1788072000002,1237.1788072000002,1238.0848922000002,1239.1688259,f,1,1.9767953000000489,None,right,17,"[17, 18, 17, 20, 19, 20, 19, 20, 14, 15, 14, 20, 19, 20, 19, 20, 18, 19, 17, 19, 18, 19]",22,shiftedgaze_R_17.png,f,1,1,results1,001,2026-04-13_10h21.27.217,mogelijke versie adaptive staircase builder,,2026.1.3,59.95401527031515,2026-04-13 10h21.27.472671 +0200,
4.5,ecc10pos,left,47,0,47,f,0,2.735924100000375,None,0,0,0,0,47,0,47,0,1239.2595939,,,,,,,,,,,,,,,1239.2488785000003,1239.2595939,1239.2595939,1239.2595939,1240.1683863,1242.0021086,f,0,2.735924100000375,None,direct,16,"[17, 18, 17, 20, 19, 20, 19, 20, 14, 15, 14, 20, 19, 20, 19, 20, 18, 19, 17, 19, 18, 19, 16]",23,shifteddirectgaze.png,f,0,1,results1,001,2026-04-13_10h21.27.217,mogelijke versie adaptive staircase builder,,2026.1.3,59.95401527031515,2026-04-13 10h21.27.472671 +0200,
4.5,ecc10pos,left,48,0,48,f,1,3.9690620999999737,None,0,0,0,0,48,0,48,0,1242.1234728000002,,,,,,,,,,,,,,,1242.1114828000002,1242.1234728000002,1242.1234728000002,1242.1234728000002,1243.0017618,1246.1021623,f,1,3.9690620999999737,None,left,17,"[17, 18, 17, 20, 19, 20, 19, 20, 14, 15, 14, 20, 19, 20, 19, 20, 18, 19, 17, 19, 18, 19, 16, 17]",24,shiftedgaze_L_17.png,f,1,1,results1,001,2026-04-13_10h21.27.217,mogelijke versie adaptive staircase builder,,2026.1.3,59.95401527031515,2026-04-13 10h21.27.472671 +0200,
4.5,ecc10pos,left,49,0,49,j,0,4.890512800000124,None,0,0,0,0,49,0,49,0,1246.2090533000003,,,,,,,,,,,,,,,1246.1976064000003,1246.2090533000003,1246.2090533000003,1246.2090533000003,1247.1184190000001,1251.1019821000002,j,0,4.890512800000124,None,left,16,"[17, 18, 17, 20, 19, 20, 19, 20, 14, 15, 14, 20, 19, 20, 19, 20, 18, 19, 17, 19, 18, 19, 16, 17, 16]",25,shiftedgaze_L_16.png,j,0,1,results1,001,2026-04-13_10h21.27.217,mogelijke versie adaptive staircase builder,,2026.1.3,59.95401527031515,2026-04-13 10h21.27.472671 +0200,
4.5,ecc10pos,left,50,0,50,j,1,2.8930073999999877,None,0,0,0,0,50,0,50,0,1251.2145822999998,,,,,,,,,,,,,,,1251.2029608999999,1251.2145822999998,1251.2145822999998,1251.2145822999998,1252.1014807,1254.1187061000003,j,1,2.8930073999999877,None,direct,17,"[17, 18, 17, 20, 19, 20, 19, 20, 14, 15, 14, 20, 19, 20, 19, 20, 18, 19, 17, 19, 18, 19, 16, 17, 16, 17]",26,shifteddirectgaze.png,j,1,1,results1,001,2026-04-13_10h21.27.217,mogelijke versie adaptive staircase builder,,2026.1.3,59.95401527031515,2026-04-13 10h21.27.472671 +0200,
4.5,ecc10pos,left,51,0,51,f,1,2.1832540000000336,None,0,0,0,0,51,0,51,0,1254.2362605,,,,,,,,,,,,,,,1254.2246450999999,1254.2362605,1254.2362605,1254.2362605,1255.1183822,1256.435248,f,1,2.1832540000000336,None,left,16,"[17, 18, 17, 20, 19, 20, 19, 20, 14, 15, 14, 20, 19, 20, 19, 20, 18, 19, 17, 19, 18, 19, 16, 17, 16, 17]",26,shiftedgaze_L_16.png,f,1,1,results1,001,2026-04-13_10h21.27.217,mogelijke versie adaptive staircase builder,,2026.1.3,59.95401527031515,2026-04-13 10h21.27.472671 +0200,
4.5,ecc10pos,left,52,0,52,f,0,8.985205699999824,None,0,0,0,0,52,0,52,0,1256.5544693,,,,,,,,,,,,,,,1256.5433624,1256.5544693,1256.5544693,1256.5544693,1257.4348532000001,1265.5516621,f,0,8.985205699999824,None,direct,15,"[17, 18, 17, 20, 19, 20, 19, 20, 14, 15, 14, 20, 19, 20, 19, 20, 18, 19, 17, 19, 18, 19, 16, 17, 16, 17, 15]",27,shifteddirectgaze.png,f,0,1,results1,001,2026-04-13_10h21.27.217,mogelijke versie adaptive staircase builder,,2026.1.3,59.95401527031515,2026-04-13 10h21.27.472671 +0200,
4.5,ecc10pos,left,53,0,53,f,1,2.4468980999999985,None,0,0,0,0,53,0,53,0,1265.6688046000002,,,,,,,,,,,,,,,1265.6569630000001,1265.6688046000002,1265.6688046000002,1265.6688046000002,1266.5514894,1268.1184142,f,1,2.4468980999999985,None,left,16,"[17, 18, 17, 20, 19, 20, 19, 20, 14, 15, 14, 20, 19, 20, 19, 20, 18, 19, 17, 19, 18, 19, 16, 17, 16, 17, 15, 16]",28,shiftedgaze_L_16.png,f,1,1,results1,001,2026-04-13_10h21.27.217,mogelijke versie adaptive staircase builder,,2026.1.3,59.95401527031515,2026-04-13 10h21.27.472671 +0200,
4.5,ecc10pos,left,54,0,54,f,0,3.495750499999758,None,0,0,0,0,54,0,54,0,1268.2278750000003,,,,,,,,,,,,,,,1268.2162229000003,1268.2278750000003,1268.2278750000003,1268.2278750000003,1269.1182443999999,1271.7348143000002,f,0,3.495750499999758,None,direct,15,"[17, 18, 17, 20, 19, 20, 19, 20, 14, 15, 14, 20, 19, 20, 19, 20, 18, 19, 17, 19, 18, 19, 16, 17, 16, 17, 15, 16, 15]",29,shifteddirectgaze.png,f,0,1,results1,001,2026-04-13_10h21.27.217,mogelijke versie adaptive staircase builder,,2026.1.3,59.95401527031515,2026-04-13 10h21.27.472671 +0200,
4.5,ecc10pos,left,55,0,55,f,1,2.8228737999997975,None,0,0,0,0,55,0,55,0,1271.8528314000002,,,,,,,,,,,,,,,1271.8410271,1271.8528314000002,1271.8528314000002,1271.8528314000002,1272.7348103000002,1274.6850591,f,1,2.8228737999997975,None,left,16,"[17, 18, 17, 20, 19, 20, 19, 20, 14, 15, 14, 20, 19, 20, 19, 20, 18, 19, 17, 19, 18, 19, 16, 17, 16, 17, 15, 16, 15, 16]",30,shiftedgaze_L_16.png,f,1,1,results1,001,2026-04-13_10h21.27.217,mogelijke versie adaptive staircase builder,,2026.1.3,59.95401527031515,2026-04-13 10h21.27.472671 +0200,
4.5,ecc10pos,left,56,0,56,j,0,3.72064169999976,None,0,0,0,0,56,0,56,0,1274.8029813,,,,,,,,,,,,,,,1274.7900270000002,1274.8029813,1274.8029813,1274.8029813,1275.6844097,1278.5350943,j,0,3.72064169999976,None,left,15,"[17, 18, 17, 20, 19, 20, 19, 20, 14, 15, 14, 20, 19, 20, 19, 20, 18, 19, 17, 19, 18, 19, 16, 17, 16, 17, 15, 16, 15, 16, 15]",31,shiftedgaze_L_15.png,j,0,1,results1,001,2026-04-13_10h21.27.217,mogelijke versie adaptive staircase builder,,2026.1.3,59.95401527031515,2026-04-13 10h21.27.472671 +0200,
4.5,ecc10pos,left,57,0,57,j,1,3.0630581000000348,None,0,0,0,0,57,0,57,0,1278.6365619,,,,,,,,,,,,,,,1278.6268235,1278.6365619,1278.6365619,1278.6365619,1279.5348260000003,1281.7012278,j,1,3.0630581000000348,None,direct,16,"[17, 18, 17, 20, 19, 20, 19, 20, 14, 15, 14, 20, 19, 20, 19, 20, 18, 19, 17, 19, 18, 19, 16, 17, 16, 17, 15, 16, 15, 16, 15, 16]",32,shifteddirectgaze.png,j,1,1,results1,001,2026-04-13_10h21.27.217,mogelijke versie adaptive staircase builder,,2026.1.3,59.95401527031515,2026-04-13 10h21.27.472671 +0200,
4.5,ecc10pos,left,58,0,58,f,1,2.5941004000001158,None,0,0,0,0,58,0,58,0,1281.7935380000001,,,,,,,,,,,,,,,1281.7820188000003,1281.7935380000001,1281.7935380000001,1281.7935380000001,1282.7011038000003,1284.4013075999999,f,1,2.5941004000001158,None,right,15,"[17, 18, 17, 20, 19, 20, 19, 20, 14, 15, 14, 20, 19, 20, 19, 20, 18, 19, 17, 19, 18, 19, 16, 17, 16, 17, 15, 16, 15, 16, 15, 16]",32,shiftedgaze_R_15.png,f,1,1,results1,001,2026-04-13_10h21.27.217,mogelijke versie adaptive staircase builder,,2026.1.3,59.95401527031515,2026-04-13 10h21.27.472671 +0200,
4.5,ecc10pos,left,59,0,59,f,1,2.1283284999999523,None,0,0,0,0,59,0,59,0,1284.4913579000001,,,,,,,,,,,,,,,1284.4809119,1284.4913579000001,1284.4913579000001,1284.4913579000001,1285.4008618,1286.6347627000002,f,1,2.1283284999999523,None,right,14,"[17, 18, 17, 20, 19, 20, 19, 20, 14, 15, 14, 20, 19, 20, 19, 20, 18, 19, 17, 19, 18, 19, 16, 17, 16, 17, 15, 16, 15, 16, 15, 16]",32,shiftedgaze_R_14.png,f,1,1,results1,001,2026-04-13_10h21.27.217,mogelijke versie adaptive staircase builder,,2026.1.3,59.95401527031515,2026-04-13 10h21.27.472671 +0200,
4.5,ecc10pos,left,0,0,0,,,,,0,0,0,0,,,,,,,,,,,,,,,,,,,,,,,,,,,,,,,,,,,,,,results1,001,2026-04-13_10h21.27.217,mogelijke versie adaptive staircase builder,,2026.1.3,59.95401527031515,2026-04-13 10h21.27.472671 +0200,
12.5,ecc0,mid,0,0,0,j,0,14.325454000000263,None,0,1,1,1,0,0,0,0,1286.7341454,,,,,,,,,,,,,1286.637481,1286.6375174000002,1286.7228184000003,1286.7341454,1287.650984,1286.7341454,1286.7341454,1301.067668,j,0,14.325454000000263,None,right,20,[],0,gaze_R_20.png,j,0,2,results1,001,2026-04-13_10h21.27.217,mogelijke versie adaptive staircase builder,,2026.1.3,59.95401527031515,2026-04-13 10h21.27.472671 +0200,
12.5,ecc0,mid,1,0,1,j,0,4.825834400000076,None,0,1,1,1,1,0,1,0,1301.1697199000002,,,,,,,,,,,,,,,1301.1587127999999,1301.1697199000002,1302.0672852,1301.1697199000002,1301.1697199000002,1306.001074,j,0,4.825834400000076,None,left,20,[],0,gaze_L_20.png,j,0,2,results1,001,2026-04-13_10h21.27.217,mogelijke versie adaptive staircase builder,,2026.1.3,59.95401527031515,2026-04-13 10h21.27.472671 +0200,
12.5,ecc0,mid,2,0,2,j,0,5.959920299999794,None,0,1,1,1,2,0,2,0,1306.0917102,,,,,,,,,,,,,,,1306.0813123,1306.0917102,1307.0185639,1306.0917102,1306.0917102,1312.0674907,j,0,5.959920299999794,None,left,20,[],0,gaze_L_20.png,j,0,2,results1,001,2026-04-13_10h21.27.217,mogelijke versie adaptive staircase builder,,2026.1.3,59.95401527031515,2026-04-13 10h21.27.472671 +0200,
12.5,ecc0,mid,3,0,3,f,1,2.6526773000000503,None,0,1,1,1,3,0,3,0,1312.1588696000001,,,,,,,,,,,,,,,1312.1475753000002,1312.1588696000001,1313.0672131,1312.1588696000001,1312.1588696000001,1314.8175561,f,1,2.6526773000000503,None,right,20,[20],1,gaze_R_20.png,f,1,2,results1,001,2026-04-13_10h21.27.217,mogelijke versie adaptive staircase builder,,2026.1.3,59.95401527031515,2026-04-13 10h21.27.472671 +0200,
12.5,ecc0,mid,4,0,4,j,0,1.8933326000001216,None,0,1,1,1,4,0,4,0,1314.9182643000001,,,,,,,,,,,,,,,1314.9078854000002,1314.9182643000001,1315.8171583,1314.9182643000001,1314.9182643000001,1316.8177523000002,j,0,1.8933326000001216,None,left,19,"[20, 19]",2,gaze_L_19.png,j,0,2,results1,001,2026-04-13_10h21.27.217,mogelijke versie adaptive staircase builder,,2026.1.3,59.95401527031515,2026-04-13 10h21.27.472671 +0200,
12.5,ecc0,mid,5,0,5,j,1,1.6803058999998939,None,0,1,1,1,5,0,5,0,1316.9152510000001,,,,,,,,,,,,,,,1316.9048073000001,1316.9152510000001,1317.8169491,1316.9152510000001,1316.9152510000001,1318.6006792,j,1,1.6803058999998939,None,direct,20,"[20, 19, 20]",3,direct_gaze.png,j,1,2,results1,001,2026-04-13_10h21.27.217,mogelijke versie adaptive staircase builder,,2026.1.3,59.95401527031515,2026-04-13 10h21.27.472671 +0200,
12.5,ecc0,mid,6,0,6,j,0,3.2153435000000172,None,0,1,1,1,6,0,6,0,1318.6925026000001,,,,,,,,,,,,,,,1318.6813052999998,1318.6925026000001,1319.6005313000003,1318.6925026000001,1318.6925026000001,1321.917611,j,0,3.2153435000000172,None,left,19,"[20, 19, 20, 19]",4,gaze_L_19.png,j,0,2,results1,001,2026-04-13_10h21.27.217,mogelijke versie adaptive staircase builder,,2026.1.3,59.95401527031515,2026-04-13 10h21.27.472671 +0200,
12.5,ecc0,mid,7,0,7,f,1,2.0912616000000526,None,0,1,1,1,7,0,7,0,1322.008403,,,,,,,,,,,,,,,1321.9979645,1322.008403,1322.9176033,1322.008403,1322.008403,1324.1005983000002,f,1,2.0912616000000526,None,right,20,"[20, 19, 20, 19, 20]",5,gaze_R_20.png,f,1,2,results1,001,2026-04-13_10h21.27.217,mogelijke versie adaptive staircase builder,,2026.1.3,59.95401527031515,2026-04-13 10h21.27.472671 +0200,
12.5,ecc0,mid,8,0,8,f,1,2.123280600000271,None,0,1,1,1,8,0,8,0,1324.1922817000002,,,,,,,,,,,,,,,1324.1813217000001,1324.1922817000002,1325.1003980000003,1324.1922817000002,1324.1922817000002,1326.3172663000003,f,1,2.123280600000271,None,left,19,"[20, 19, 20, 19, 20]",5,gaze_L_19.png,f,1,2,results1,001,2026-04-13_10h21.27.217,mogelijke versie adaptive staircase builder,,2026.1.3,59.95401527031515,2026-04-13 10h21.27.472671 +0200,
12.5,ecc0,mid,9,0,9,j,0,2.003391300000203,None,0,1,1,1,9,0,9,0,1326.4162847,,,,,,,,,,,,,,,1326.4058804,1326.4162847,1327.3167922,1326.4162847,1326.4162847,1328.4339104000003,j,0,2.003391300000203,None,right,18,"[20, 19, 20, 19, 20, 18]",6,gaze_R_18.png,j,0,2,results1,001,2026-04-13_10h21.27.217,mogelijke versie adaptive staircase builder,,2026.1.3,59.95401527031515,2026-04-13 10h21.27.472671 +0200,
12.5,ecc0,mid,10,0,10,j,1,2.5503198999999768,None,0,1,1,1,10,0,10,0,1328.5253075000003,,,,,,,,,,,,,,,1328.5127482999999,1328.5253075000003,1329.4335174999999,1328.5253075000003,1328.5253075000003,1331.0837224,j,1,2.5503198999999768,None,direct,19,"[20, 19, 20, 19, 20, 18, 19]",7,direct_gaze.png,j,1,2,results1,001,2026-04-13_10h21.27.217,mogelijke versie adaptive staircase builder,,2026.1.3,59.95401527031515,2026-04-13 10h21.27.472671 +0200,
12.5,ecc0,mid,11,0,11,f,1,1.9955423999999766,None,0,1,1,1,11,0,11,0,1331.1761159999999,,,,,,,,,,,,,,,1331.1642943,1331.1761159999999,1332.0835743,1331.1761159999999,1331.1761159999999,1333.1839706000003,f,1,1.9955423999999766,None,right,18,"[20, 19, 20, 19, 20, 18, 19]",7,gaze_R_18.png,f,1,2,results1,001,2026-04-13_10h21.27.217,mogelijke versie adaptive staircase builder,,2026.1.3,59.95401527031515,2026-04-13 10h21.27.472671 +0200,
12.5,ecc0,mid,12,0,12,j,0,1.8887958000000253,None,0,1,1,1,12,0,12,0,1333.2827889000002,,,,,,,,,,,,,,,1333.2709545999999,1333.2827889000002,1334.1833707000003,1333.2827889000002,1333.2827889000002,1335.1839697000003,j,0,1.8887958000000253,None,right,17,"[20, 19, 20, 19, 20, 18, 19, 17]",8,gaze_R_17.png,j,0,2,results1,001,2026-04-13_10h21.27.217,mogelijke versie adaptive staircase builder,,2026.1.3,59.95401527031515,2026-04-13 10h21.27.472671 +0200,
12.5,ecc0,mid,13,0,13,j,1,1.8478876999997738,None,0,1,1,1,13,0,13,0,1335.2762516999999,,,,,,,,,,,,,,,1335.2650975,1335.2762516999999,1336.1835586,1335.2762516999999,1335.2762516999999,1337.1339647000002,j,1,1.8478876999997738,None,direct,18,"[20, 19, 20, 19, 20, 18, 19, 17, 18]",9,direct_gaze.png,j,1,2,results1,001,2026-04-13_10h21.27.217,mogelijke versie adaptive staircase builder,,2026.1.3,59.95401527031515,2026-04-13 10h21.27.472671 +0200,
12.5,ecc0,mid,14,0,14,j,0,4.442460499999925,None,0,1,1,1,14,0,14,0,1337.2251320000003,,,,,,,,,,,,,,,1337.2136062000002,1337.2251320000003,1338.1334327000002,1337.2251320000003,1337.2251320000003,1341.6837309999999,j,0,4.442460499999925,None,right,17,"[20, 19, 20, 19, 20, 18, 19, 17, 18, 17]",10,gaze_R_17.png,j,0,2,results1,001,2026-04-13_10h21.27.217,mogelijke versie adaptive staircase builder,,2026.1.3,59.95401527031515,2026-04-13 10h21.27.472671 +0200,
12.5,ecc0,mid,15,0,15,j,0,5.838010099999792,None,0,1,1,1,15,0,15,0,1341.7816070000001,,,,,,,,,,,,,,,1341.7713433000001,1341.7816070000001,1342.6835379000001,1341.7816070000001,1341.7816070000001,1347.6338142000002,j,0,5.838010099999792,None,left,18,"[20, 19, 20, 19, 20, 18, 19, 17, 18, 17]",10,gaze_L_18.png,j,0,2,results1,001,2026-04-13_10h21.27.217,mogelijke versie adaptive staircase builder,,2026.1.3,59.95401527031515,2026-04-13 10h21.27.472671 +0200,
12.5,ecc0,mid,16,0,16,j,0,2.4873344999996334,None,0,1,1,1,16,0,16,0,1347.7322043000001,,,,,,,,,,,,,,,1347.72142,1347.7322043000001,1348.6334020000002,1347.7322043000001,1347.7322043000001,1350.2338561,j,0,2.4873344999996334,None,right,19,"[20, 19, 20, 19, 20, 18, 19, 17, 18, 17]",10,gaze_R_19.png,j,0,2,results1,001,2026-04-13_10h21.27.217,mogelijke versie adaptive staircase builder,,2026.1.3,59.95401527031515,2026-04-13 10h21.27.472671 +0200,
12.5,ecc0,mid,17,0,17,f,1,1.9992571999996471,None,0,1,1,1,17,0,17,0,1350.3244544000001,,,,,,,,,,,,,,,1350.3142891,1350.3244544000001,1351.2333061000002,1350.3244544000001,1350.3244544000001,1352.3337973999999,f,1,1.9992571999996471,None,right,20,"[20, 19, 20, 19, 20, 18, 19, 17, 18, 17, 20]",11,gaze_R_20.png,f,1,2,results1,001,2026-04-13_10h21.27.217,mogelijke versie adaptive staircase builder,,2026.1.3,59.95401527031515,2026-04-13 10h21.27.472671 +0200,
12.5,ecc0,mid,18,0,18,f,1,6.4734716999996635,None,0,1,1,1,18,0,18,0,1352.4262611000001,,,,,,,,,,,,,,,1352.4156582000003,1352.4262611000001,1353.3334724,1352.4262611000001,1352.4262611000001,1358.900495,f,1,6.4734716999996635,None,right,19,"[20, 19, 20, 19, 20, 18, 19, 17, 18, 17, 20]",11,gaze_R_19.png,f,1,2,results1,001,2026-04-13_10h21.27.217,mogelijke versie adaptive staircase builder,,2026.1.3,59.95401527031515,2026-04-13 10h21.27.472671 +0200,
12.5,ecc0,mid,19,0,19,j,1,2.011357500000031,None,0,1,1,1,19,0,19,0,1358.9922841,,,,,,,,,,,,,,,1358.9817006,1358.9922841,1359.8999876,1358.9922841,1358.9922841,1361.0166505,j,1,2.011357500000031,None,direct,18,"[20, 19, 20, 19, 20, 18, 19, 17, 18, 17, 20]",11,direct_gaze.png,j,1,2,results1,001,2026-04-13_10h21.27.217,mogelijke versie adaptive staircase builder,,2026.1.3,59.95401527031515,2026-04-13 10h21.27.472671 +0200,
12.5,ecc0,mid,20,0,20,j,0,1.8480036999999356,None,0,1,1,1,20,0,20,0,1361.1158199,,,,,,,,,,,,,,,1361.1049374000002,1361.1158199,1362.0167208,1361.1158199,1361.1158199,1362.9668241000002,j,0,1.8480036999999356,None,left,17,"[20, 19, 20, 19, 20, 18, 19, 17, 18, 17, 20, 17]",12,gaze_L_17.png,j,0,2,results1,001,2026-04-13_10h21.27.217,mogelijke versie adaptive staircase builder,,2026.1.3,59.95401527031515,2026-04-13 10h21.27.472671 +0200,
12.5,ecc0,mid,21,0,21,j,0,1.6057605999999396,None,0,1,1,1,21,0,21,0,1363.061802,,,,,,,,,,,,,,,1363.0512889,1363.061802,1363.9663536,1363.061802,1363.061802,1364.683674,j,0,1.6057605999999396,None,left,18,"[20, 19, 20, 19, 20, 18, 19, 17, 18, 17, 20, 17]",12,gaze_L_18.png,j,0,2,results1,001,2026-04-13_10h21.27.217,mogelijke versie adaptive staircase builder,,2026.1.3,59.95401527031515,2026-04-13 10h21.27.472671 +0200,
12.5,ecc0,mid,22,0,22,f,1,2.4986409999996795,None,0,1,1,1,22,0,22,0,1364.7769785000003,,,,,,,,,,,,,,,1364.7650624999999,1364.7769785000003,1365.6830917,1364.7769785000003,1364.7769785000003,1367.2836897,f,1,2.4986409999996795,None,right,19,"[20, 19, 20, 19, 20, 18, 19, 17, 18, 17, 20, 17, 19]",13,gaze_R_19.png,f,1,2,results1,001,2026-04-13_10h21.27.217,mogelijke versie adaptive staircase builder,,2026.1.3,59.95401527031515,2026-04-13 10h21.27.472671 +0200,
12.5,ecc0,mid,23,0,23,j,0,1.7257922000003418,None,0,1,1,1,23,0,23,0,1367.3744156999999,,,,,,,,,,,,,,,1367.3639059,1367.3744156999999,1368.2831496000001,1367.3744156999999,1367.3744156999999,1369.1170911000002,j,0,1.7257922000003418,None,right,18,"[20, 19, 20, 19, 20, 18, 19, 17, 18, 17, 20, 17, 19, 18]",14,gaze_R_18.png,j,0,2,results1,001,2026-04-13_10h21.27.217,mogelijke versie adaptive staircase builder,,2026.1.3,59.95401527031515,2026-04-13 10h21.27.472671 +0200,
12.5,ecc0,mid,24,0,24,j,0,1.8555648999999903,None,0,1,1,1,24,0,24,0,1369.2120584000002,,,,,,,,,,,,,,,1369.1994858,1369.2120584000002,1370.1333548999999,1369.2120584000002,1369.2120584000002,1371.0836270000002,j,0,1.8555648999999903,None,right,19,"[20, 19, 20, 19, 20, 18, 19, 17, 18, 17, 20, 17, 19, 18]",14,gaze_R_19.png,j,0,2,results1,001,2026-04-13_10h21.27.217,mogelijke versie adaptive staircase builder,,2026.1.3,59.95401527031515,2026-04-13 10h21.27.472671 +0200,
12.5,ecc0,mid,25,0,25,j,1,2.098478200000045,None,0,1,1,1,25,0,25,0,1371.1771438000003,,,,,,,,,,,,,,,1371.1661934,1371.1771438000003,1372.0831626000002,1371.1771438000003,1371.1771438000003,1373.2834156000001,j,1,2.098478200000045,None,direct,20,"[20, 19, 20, 19, 20, 18, 19, 17, 18, 17, 20, 17, 19, 18, 20]",15,direct_gaze.png,j,1,2,results1,001,2026-04-13_10h21.27.217,mogelijke versie adaptive staircase builder,,2026.1.3,59.95401527031515,2026-04-13 10h21.27.472671 +0200,
12.5,ecc0,mid,26,0,26,j,0,2.1413861000000907,None,0,1,1,1,26,0,26,0,1373.3742846000002,,,,,,,,,,,,,,,1373.3636159,1373.3742846000002,1374.282994,1373.3742846000002,1373.3742846000002,1375.5168377000002,j,0,2.1413861000000907,None,left,19,"[20, 19, 20, 19, 20, 18, 19, 17, 18, 17, 20, 17, 19, 18, 20, 19]",16,gaze_L_19.png,j,0,2,results1,001,2026-04-13_10h21.27.217,mogelijke versie adaptive staircase builder,,2026.1.3,59.95401527031515,2026-04-13 10h21.27.472671 +0200,
12.5,ecc0,mid,27,0,27,j,0,3.289452900000015,None,0,1,1,1,27,0,27,0,1375.6106929999999,,,,,,,,,,,,,,,1375.5976548,1375.6106929999999,1376.5166922,1375.6106929999999,1375.6106929999999,1378.9167249,j,0,3.289452900000015,None,right,20,"[20, 19, 20, 19, 20, 18, 19, 17, 18, 17, 20, 17, 19, 18, 20, 19]",16,gaze_R_20.png,j,0,2,results1,001,2026-04-13_10h21.27.217,mogelijke versie adaptive staircase builder,,2026.1.3,59.95401527031515,2026-04-13 10h21.27.472671 +0200,
12.5,ecc0,mid,28,0,28,j,1,1.9056462999997166,None,0,1,1,1,28,0,28,0,1379.010055,,,,,,,,,,,,,,,1378.9992310999999,1379.010055,1379.9162703,1379.010055,1379.010055,1380.9166769,j,1,1.9056462999997166,None,direct,20,"[20, 19, 20, 19, 20, 18, 19, 17, 18, 17, 20, 17, 19, 18, 20, 19, 20]",17,direct_gaze.png,j,1,2,results1,001,2026-04-13_10h21.27.217,mogelijke versie adaptive staircase builder,,2026.1.3,59.95401527031515,2026-04-13 10h21.27.472671 +0200,
12.5,ecc0,mid,29,0,29,j,0,2.0835870999999315,None,0,1,1,1,29,0,29,0,1381.0080934,,,,,,,,,,,,,,,1380.9971448,1381.0080934,1381.9163271,1381.0080934,1381.0080934,1383.1001395,j,0,2.0835870999999315,None,right,19,"[20, 19, 20, 19, 20, 18, 19, 17, 18, 17, 20, 17, 19, 18, 20, 19, 20, 19]",18,gaze_R_19.png,j,0,2,results1,001,2026-04-13_10h21.27.217,mogelijke versie adaptive staircase builder,,2026.1.3,59.95401527031515,2026-04-13 10h21.27.472671 +0200,
12.5,ecc0,mid,30,0,30,j,0,3.274217900000167,None,0,1,1,1,30,0,30,0,1383.1935597,,,,,,,,,,,,,,,1383.1817497,1383.1935597,1384.1000973000002,1383.1935597,1383.1935597,1386.4832325,j,0,3.274217900000167,None,left,20,"[20, 19, 20, 19, 20, 18, 19, 17, 18, 17, 20, 17, 19, 18, 20, 19, 20, 19]",18,gaze_L_20.png,j,0,2,results1,001,2026-04-13_10h21.27.217,mogelijke versie adaptive staircase builder,,2026.1.3,59.95401527031515,2026-04-13 10h21.27.472671 +0200,
12.5,ecc0,mid,31,0,31,j,1,3.156911300000047,None,0,1,1,1,31,0,31,0,1386.5746324,,,,,,,,,,,,,,,1386.5641232,1386.5746324,1387.4828804,1386.5746324,1386.5746324,1389.7331828,j,1,3.156911300000047,None,direct,20,"[20, 19, 20, 19, 20, 18, 19, 17, 18, 17, 20, 17, 19, 18, 20, 19, 20, 19, 20]",19,direct_gaze.png,j,1,2,results1,001,2026-04-13_10h21.27.217,mogelijke versie adaptive staircase builder,,2026.1.3,59.95401527031515,2026-04-13 10h21.27.472671 +0200,
12.5,ecc0,mid,32,0,32,j,0,2.058465399999932,None,0,1,1,1,32,0,32,0,1389.8252909999999,,,,,,,,,,,,,,,1389.8145218000002,1389.8252909999999,1390.7328946999999,1389.8252909999999,1389.8252909999999,1391.8997818,j,0,2.058465399999932,None,right,19,"[20, 19, 20, 19, 20, 18, 19, 17, 18, 17, 20, 17, 19, 18, 20, 19, 20, 19, 20, 19]",20,gaze_R_19.png,j,0,2,results1,001,2026-04-13_10h21.27.217,mogelijke versie adaptive staircase builder,,2026.1.3,59.95401527031515,2026-04-13 10h21.27.472671 +0200,
12.5,ecc0,mid,33,0,33,j,0,9.20450989999972,None,0,1,1,1,33,0,33,0,1391.9909960000002,,,,,,,,,,,,,,,1391.9802338000002,1391.9909960000002,1392.8994948000002,1391.9909960000002,1391.9909960000002,1401.1996906000002,j,0,9.20450989999972,None,left,20,"[20, 19, 20, 19, 20, 18, 19, 17, 18, 17, 20, 17, 19, 18, 20, 19, 20, 19, 20, 19]",20,gaze_L_20.png,j,0,2,results1,001,2026-04-13_10h21.27.217,mogelijke versie adaptive staircase builder,,2026.1.3,59.95401527031515,2026-04-13 10h21.27.472671 +0200,
12.5,ecc0,mid,34,0,34,j,0,3.6559916999999587,None,0,1,1,1,34,0,34,0,1401.2916926,,,,,,,,,,,,,,,1401.2805148,1401.2916926,1402.1993252,1401.2916926,1401.2916926,1404.9497315,j,0,3.6559916999999587,None,left,20,"[20, 19, 20, 19, 20, 18, 19, 17, 18, 17, 20, 17, 19, 18, 20, 19, 20, 19, 20, 19]",20,gaze_L_20.png,j,0,2,results1,001,2026-04-13_10h21.27.217,mogelijke versie adaptive staircase builder,,2026.1.3,59.95401527031515,2026-04-13 10h21.27.472671 +0200,
12.5,ecc0,mid,35,0,35,j,0,2.6897884999998496,None,0,1,1,1,35,0,35,0,1405.0418937000002,,,,,,,,,,,,,,,1405.0302967999999,1405.0418937000002,1405.9492121,1405.0418937000002,1405.0418937000002,1407.7329834,j,0,2.6897884999998496,None,left,20,"[20, 19, 20, 19, 20, 18, 19, 17, 18, 17, 20, 17, 19, 18, 20, 19, 20, 19, 20, 19]",20,gaze_L_20.png,j,0,2,results1,001,2026-04-13_10h21.27.217,mogelijke versie adaptive staircase builder,,2026.1.3,59.95401527031515,2026-04-13 10h21.27.472671 +0200,
12.5,ecc0,mid,36,0,36,j,1,6.140797099999872,None,0,1,1,1,36,0,36,0,1407.8228235,,,,,,,,,,,,,,,1407.8123246000002,1407.8228235,1408.7324454000002,1407.8228235,1407.8228235,1413.9661741000002,j,1,6.140797099999872,None,direct,20,"[20, 19, 20, 19, 20, 18, 19, 17, 18, 17, 20, 17, 19, 18, 20, 19, 20, 19, 20, 19, 20]",21,direct_gaze.png,j,1,2,results1,001,2026-04-13_10h21.27.217,mogelijke versie adaptive staircase builder,,2026.1.3,59.95401527031515,2026-04-13 10h21.27.472671 +0200,
12.5,ecc0,mid,37,0,37,j,0,5.151731400000244,None,0,1,1,1,37,0,37,0,1414.0597636,,,,,,,,,,,,,,,1414.0488312999998,1414.0597636,1414.9659598,1414.0597636,1414.0597636,1419.2160344000001,j,0,5.151731400000244,None,right,19,"[20, 19, 20, 19, 20, 18, 19, 17, 18, 17, 20, 17, 19, 18, 20, 19, 20, 19, 20, 19, 20, 19]",22,gaze_R_19.png,j,0,2,results1,001,2026-04-13_10h21.27.217,mogelijke versie adaptive staircase builder,,2026.1.3,59.95401527031515,2026-04-13 10h21.27.472671 +0200,
12.5,ecc0,mid,38,0,38,f,1,9.49258860000009,None,0,1,1,1,38,0,38,0,1419.3109044,,,,,,,,,,,,,,,1419.2996276000001,1419.3109044,1420.2157235000002,1419.3109044,1419.3109044,1428.8159797,f,1,9.49258860000009,None,left,20,"[20, 19, 20, 19, 20, 18, 19, 17, 18, 17, 20, 17, 19, 18, 20, 19, 20, 19, 20, 19, 20, 19, 20]",23,gaze_L_20.png,f,1,2,results1,001,2026-04-13_10h21.27.217,mogelijke versie adaptive staircase builder,,2026.1.3,59.95401527031515,2026-04-13 10h21.27.472671 +0200,
12.5,ecc0,mid,39,0,39,f,1,6.810220700000173,None,0,1,1,1,39,0,39,0,1428.9056870000002,,,,,,,,,,,,,,,1428.8951378,1428.9056870000002,1429.8320892,1428.9056870000002,1428.9056870000002,1435.7325373,f,1,6.810220700000173,None,left,19,"[20, 19, 20, 19, 20, 18, 19, 17, 18, 17, 20, 17, 19, 18, 20, 19, 20, 19, 20, 19, 20, 19, 20]",23,gaze_L_19.png,f,1,2,results1,001,2026-04-13_10h21.27.217,mogelijke versie adaptive staircase builder,,2026.1.3,59.95401527031515,2026-04-13 10h21.27.472671 +0200,
12.5,ecc0,mid,40,0,40,j,1,3.561894399999801,None,0,1,1,1,40,0,40,0,1435.8256384,,,,,,,,,,,,,,,1435.8143216,1435.8256384,1436.7318750000002,1435.8256384,1435.8256384,1439.3991091999999,j,1,3.561894399999801,None,direct,18,"[20, 19, 20, 19, 20, 18, 19, 17, 18, 17, 20, 17, 19, 18, 20, 19, 20, 19, 20, 19, 20, 19, 20]",23,direct_gaze.png,j,1,2,results1,001,2026-04-13_10h21.27.217,mogelijke versie adaptive staircase builder,,2026.1.3,59.95401527031515,2026-04-13 10h21.27.472671 +0200,
12.5,ecc0,mid,41,0,41,j,0,3.911528900000121,None,0,1,1,1,41,0,41,0,1439.4920800000002,,,,,,,,,,,,,,,1439.4817045000002,1439.4920800000002,1440.3987372,1439.4920800000002,1439.4920800000002,1443.4157723,j,0,3.911528900000121,None,right,17,"[20, 19, 20, 19, 20, 18, 19, 17, 18, 17, 20, 17, 19, 18, 20, 19, 20, 19, 20, 19, 20, 19, 20, 17]",24,gaze_R_17.png,j,0,2,results1,001,2026-04-13_10h21.27.217,mogelijke versie adaptive staircase builder,,2026.1.3,59.95401527031515,2026-04-13 10h21.27.472671 +0200,
12.5,ecc0,mid,42,0,42,j,0,4.575871300000017,None,0,1,1,1,42,0,42,0,1443.5078064000002,,,,,,,,,,,,,,,1443.4973016000001,1443.5078064000002,1444.4153669,1443.5078064000002,1443.5078064000002,1448.098855,j,0,4.575871300000017,None,right,18,"[20, 19, 20, 19, 20, 18, 19, 17, 18, 17, 20, 17, 19, 18, 20, 19, 20, 19, 20, 19, 20, 19, 20, 17]",24,gaze_R_18.png,j,0,2,results1,001,2026-04-13_10h21.27.217,mogelijke versie adaptive staircase builder,,2026.1.3,59.95401527031515,2026-04-13 10h21.27.472671 +0200,
12.5,ecc0,mid,43,0,43,j,0,4.482874100000117,None,0,1,1,1,43,0,43,0,1448.1926946,,,,,,,,,,,,,,,1448.1815692000002,1448.1926946,1449.0986878,1448.1926946,1448.1926946,1452.6822416000002,j,0,4.482874100000117,None,right,19,"[20, 19, 20, 19, 20, 18, 19, 17, 18, 17, 20, 17, 19, 18, 20, 19, 20, 19, 20, 19, 20, 19, 20, 17]",24,gaze_R_19.png,j,0,2,results1,001,2026-04-13_10h21.27.217,mogelijke versie adaptive staircase builder,,2026.1.3,59.95401527031515,2026-04-13 10h21.27.472671 +0200,
12.5,ecc0,mid,44,0,44,j,0,1.8625017999997908,None,0,1,1,1,44,0,44,0,1452.7731522000001,,,,,,,,,,,,,,,1452.7624819,1452.7731522000001,1453.6819391000001,1452.7731522000001,1452.7731522000001,1454.6489437000002,j,0,1.8625017999997908,None,right,20,"[20, 19, 20, 19, 20, 18, 19, 17, 18, 17, 20, 17, 19, 18, 20, 19, 20, 19, 20, 19, 20, 19, 20, 17]",24,gaze_R_20.png,j,0,2,results1,001,2026-04-13_10h21.27.217,mogelijke versie adaptive staircase builder,,2026.1.3,59.95401527031515,2026-04-13 10h21.27.472671 +0200,
12.5,ecc0,mid,45,0,45,f,1,9.213575700000092,None,0,1,1,1,45,0,45,0,1454.7420391000003,,,,,,,,,,,,,,,1454.7302993,1454.7420391000003,1455.6652059,1454.7420391000003,1454.7420391000003,1463.9654921,f,1,9.213575700000092,None,left,20,"[20, 19, 20, 19, 20, 18, 19, 17, 18, 17, 20, 17, 19, 18, 20, 19, 20, 19, 20, 19, 20, 19, 20, 17, 20]",25,gaze_L_20.png,f,1,2,results1,001,2026-04-13_10h21.27.217,mogelijke versie adaptive staircase builder,,2026.1.3,59.95401527031515,2026-04-13 10h21.27.472671 +0200,
12.5,ecc0,mid,46,0,46,j,0,5.371439699999883,None,0,1,1,1,46,0,46,0,1464.0561594000003,,,,,,,,,,,,,,,1464.0451638000002,1464.0561594000003,1464.9650336000002,1464.0561594000003,1464.0561594000003,1469.4320019,j,0,5.371439699999883,None,left,19,"[20, 19, 20, 19, 20, 18, 19, 17, 18, 17, 20, 17, 19, 18, 20, 19, 20, 19, 20, 19, 20, 19, 20, 17, 20, 19]",26,gaze_L_19.png,j,0,2,results1,001,2026-04-13_10h21.27.217,mogelijke versie adaptive staircase builder,,2026.1.3,59.95401527031515,2026-04-13 10h21.27.472671 +0200,
12.5,ecc0,mid,47,0,47,j,1,3.328611500000079,None,0,1,1,1,47,0,47,0,1469.5228343,,,,,,,,,,,,,,,1469.5124574,1469.5228343,1470.431535,1469.5228343,1469.5228343,1472.8652809000002,j,1,3.328611500000079,None,direct,20,"[20, 19, 20, 19, 20, 18, 19, 17, 18, 17, 20, 17, 19, 18, 20, 19, 20, 19, 20, 19, 20, 19, 20, 17, 20, 19, 20]",27,direct_gaze.png,j,1,2,results1,001,2026-04-13_10h21.27.217,mogelijke versie adaptive staircase builder,,2026.1.3,59.95401527031515,2026-04-13 10h21.27.472671 +0200,
12.5,ecc0,mid,48,0,48,f,0,2.6223823999998785,None,0,1,1,1,48,0,48,0,1472.9571286000003,,,,,,,,,,,,,,,1472.9464507,1472.9571286000003,1473.8646354,1472.9571286000003,1472.9571286000003,1475.5818772,f,0,2.6223823999998785,None,direct,19,"[20, 19, 20, 19, 20, 18, 19, 17, 18, 17, 20, 17, 19, 18, 20, 19, 20, 19, 20, 19, 20, 19, 20, 17, 20, 19, 20, 19]",28,direct_gaze.png,f,0,2,results1,001,2026-04-13_10h21.27.217,mogelijke versie adaptive staircase builder,,2026.1.3,59.95401527031515,2026-04-13 10h21.27.472671 +0200,
12.5,ecc0,mid,49,0,49,j,1,2.328542600000219,None,0,1,1,1,49,0,49,0,1475.6749554,,,,,,,,,,,,,,,1475.6645374000002,1475.6749554,1476.5817955,1475.6749554,1475.6749554,1478.0148229,j,1,2.328542600000219,None,direct,20,"[20, 19, 20, 19, 20, 18, 19, 17, 18, 17, 20, 17, 19, 18, 20, 19, 20, 19, 20, 19, 20, 19, 20, 17, 20, 19, 20, 19, 20]",29,direct_gaze.png,j,1,2,results1,001,2026-04-13_10h21.27.217,mogelijke versie adaptive staircase builder,,2026.1.3,59.95401527031515,2026-04-13 10h21.27.472671 +0200,
12.5,ecc0,mid,50,0,50,j,0,2.3933967000002667,None,0,1,1,1,50,0,50,0,1478.106122,,,,,,,,,,,,,,,1478.0954437000003,1478.106122,1479.0146587000002,1478.106122,1478.106122,1480.5151182000002,j,0,2.3933967000002667,None,left,19,"[20, 19, 20, 19, 20, 18, 19, 17, 18, 17, 20, 17, 19, 18, 20, 19, 20, 19, 20, 19, 20, 19, 20, 17, 20, 19, 20, 19, 20, 19]",30,gaze_L_19.png,j,0,2,results1,001,2026-04-13_10h21.27.217,mogelijke versie adaptive staircase builder,,2026.1.3,59.95401527031515,2026-04-13 10h21.27.472671 +0200,
12.5,ecc0,mid,51,0,51,j,1,2.3249526999998125,None,0,1,1,1,51,0,51,0,1480.6069635000001,,,,,,,,,,,,,,,1480.5962032,1480.6069635000001,1481.5145459000003,1480.6069635000001,1480.6069635000001,1482.9485964000003,j,1,2.3249526999998125,None,direct,20,"[20, 19, 20, 19, 20, 18, 19, 17, 18, 17, 20, 17, 19, 18, 20, 19, 20, 19, 20, 19, 20, 19, 20, 17, 20, 19, 20, 19, 20, 19, 20]",31,direct_gaze.png,j,1,2,results1,001,2026-04-13_10h21.27.217,mogelijke versie adaptive staircase builder,,2026.1.3,59.95401527031515,2026-04-13 10h21.27.472671 +0200,
12.5,ecc0,mid,52,0,52,j,0,5.489583900000071,None,0,1,1,1,52,0,52,0,1483.0422979000002,,,,,,,,,,,,,,,1483.0312902000003,1483.0422979000002,1483.9481445,1483.0422979000002,1483.0422979000002,1488.5483375000001,j,0,5.489583900000071,None,right,19,"[20, 19, 20, 19, 20, 18, 19, 17, 18, 17, 20, 17, 19, 18, 20, 19, 20, 19, 20, 19, 20, 19, 20, 17, 20, 19, 20, 19, 20, 19, 20, 19]",32,gaze_R_19.png,j,0,2,results1,001,2026-04-13_10h21.27.217,mogelijke versie adaptive staircase builder,,2026.1.3,59.95401527031515,2026-04-13 10h21.27.472671 +0200,
12.5,ecc0,mid,53,0,53,j,0,6.275856799999929,None,0,1,1,1,53,0,53,0,1488.6396032999999,,,,,,,,,,,,,,,1488.6287509000001,1488.6396032999999,1489.5479873000002,1488.6396032999999,1488.6396032999999,1494.9314995000002,j,0,6.275856799999929,None,left,20,"[20, 19, 20, 19, 20, 18, 19, 17, 18, 17, 20, 17, 19, 18, 20, 19, 20, 19, 20, 19, 20, 19, 20, 17, 20, 19, 20, 19, 20, 19, 20, 19]",32,gaze_L_20.png,j,0,2,results1,001,2026-04-13_10h21.27.217,mogelijke versie adaptive staircase builder,,2026.1.3,59.95401527031515,2026-04-13 10h21.27.472671 +0200,
12.5,ecc0,mid,54,0,54,j,1,5.620839400000023,None,0,1,1,1,54,0,54,0,1495.0227994,,,,,,,,,,,,,,,1495.0115533,1495.0227994,1495.9310607,1495.0227994,1495.0227994,1500.6481913,j,1,5.620839400000023,None,direct,20,"[20, 19, 20, 19, 20, 18, 19, 17, 18, 17, 20, 17, 19, 18, 20, 19, 20, 19, 20, 19, 20, 19, 20, 17, 20, 19, 20, 19, 20, 19, 20, 19, 20]",33,direct_gaze.png,j,1,2,results1,001,2026-04-13_10h21.27.217,mogelijke versie adaptive staircase builder,,2026.1.3,59.95401527031515,2026-04-13 10h21.27.472671 +0200,
12.5,ecc0,mid,55,0,55,j,1,5.158115299999736,None,0,1,1,1,55,0,55,0,1500.7413788000001,,,,,,,,,,,,,,,1500.7304595000003,1500.7413788000001,1501.6478625000002,1500.7413788000001,1500.7413788000001,1505.9146016000002,j,1,5.158115299999736,None,direct,19,"[20, 19, 20, 19, 20, 18, 19, 17, 18, 17, 20, 17, 19, 18, 20, 19, 20, 19, 20, 19, 20, 19, 20, 17, 20, 19, 20, 19, 20, 19, 20, 19, 20]",33,direct_gaze.png,j,1,2,results1,001,2026-04-13_10h21.27.217,mogelijke versie adaptive staircase builder,,2026.1.3,59.95401527031515,2026-04-13 10h21.27.472671 +0200,
12.5,ecc0,mid,56,0,56,j,0,2.9473525000003065,None,0,1,1,1,56,0,56,0,1506.0083150000003,,,,,,,,,,,,,,,1505.9972226000002,1506.0083150000003,1506.9143703000002,1506.0083150000003,1506.0083150000003,1508.9651112,j,0,2.9473525000003065,None,right,18,"[20, 19, 20, 19, 20, 18, 19, 17, 18, 17, 20, 17, 19, 18, 20, 19, 20, 19, 20, 19, 20, 19, 20, 17, 20, 19, 20, 19, 20, 19, 20, 19, 20, 18]",34,gaze_R_18.png,j,0,2,results1,001,2026-04-13_10h21.27.217,mogelijke versie adaptive staircase builder,,2026.1.3,59.95401527031515,2026-04-13 10h21.27.472671 +0200,
12.5,ecc0,mid,57,0,57,j,1,2.436319299999923,None,0,1,1,1,57,0,57,0,1509.0551917,,,,,,,,,,,,,,,1509.0443223,1509.0551917,1509.9808389000002,1509.0551917,1509.0551917,1511.4978021,j,1,2.436319299999923,None,direct,19,"[20, 19, 20, 19, 20, 18, 19, 17, 18, 17, 20, 17, 19, 18, 20, 19, 20, 19, 20, 19, 20, 19, 20, 17, 20, 19, 20, 19, 20, 19, 20, 19, 20, 18, 19]",35,direct_gaze.png,j,1,2,results1,001,2026-04-13_10h21.27.217,mogelijke versie adaptive staircase builder,,2026.1.3,59.95401527031515,2026-04-13 10h21.27.472671 +0200,
12.5,ecc0,mid,58,0,58,f,0,3.847769900000003,None,0,1,1,1,58,0,58,0,1511.5877355,,,,,,,,,,,,,,,1511.5770534,1511.5877355,1512.4973921000003,1511.5877355,1511.5877355,1515.4478906000002,f,0,3.847769900000003,None,direct,18,"[20, 19, 20, 19, 20, 18, 19, 17, 18, 17, 20, 17, 19, 18, 20, 19, 20, 19, 20, 19, 20, 19, 20, 17, 20, 19, 20, 19, 20, 19, 20, 19, 20, 18, 19, 18]",36,direct_gaze.png,f,0,2,results1,001,2026-04-13_10h21.27.217,mogelijke versie adaptive staircase builder,,2026.1.3,59.95401527031515,2026-04-13 10h21.27.472671 +0200,
12.5,ecc0,mid,59,0,59,j,0,1.8398618999999599,None,0,1,1,1,59,0,59,0,1515.5396125,,,,,,,,,,,,,,,1515.5283992000002,1515.5396125,1516.4475572,1515.5396125,1515.5396125,1517.381154,j,0,1.8398618999999599,None,right,19,"[20, 19, 20, 19, 20, 18, 19, 17, 18, 17, 20, 17, 19, 18, 20, 19, 20, 19, 20, 19, 20, 19, 20, 17, 20, 19, 20, 19, 20, 19, 20, 19, 20, 18, 19, 18]",36,gaze_R_19.png,j,0,2,results1,001,2026-04-13_10h21.27.217,mogelijke versie adaptive staircase builder,,2026.1.3,59.95401527031515,2026-04-13 10h21.27.472671 +0200,
12.5,ecc0,mid,1,1,0,,,,,0,1,1,1,,,,,,,,,,,,,,,,,,,,,,,,,,,,,,,,,,,,,,results1,001,2026-04-13_10h21.27.217,mogelijke versie adaptive staircase builder,,2026.1.3,59.95401527031515,2026-04-13 10h21.27.472671 +0200,
20.5,ecc10neg,right,0,0,0,j,0,4.1676534999996875,None,0,2,2,2,0,0,0,0,1517.5078838000002,,,,,,,,,,,,,1517.3837768,1517.3838187,1517.4959430000001,1517.5078838000002,1517.5078838000002,1518.3973061,1517.5078838000002,1521.6812496999999,j,0,4.1676534999996875,None,right,20,[],0,shiftedgaze_R_20.png,j,0,3,results1,001,2026-04-13_10h21.27.217,mogelijke versie adaptive staircase builder,,2026.1.3,59.95401527031515,2026-04-13 10h21.27.472671 +0200,
20.5,ecc10neg,right,1,0,1,j,1,1.7011418000001868,None,0,2,2,2,1,0,1,0,1521.7983531000002,,,,,,,,,,,,,,,1521.7872881,1521.7983531000002,1521.7983531000002,1522.6808554000002,1521.7983531000002,1523.5145215999999,j,1,1.7011418000001868,None,direct,20,[20],1,shifteddirectgaze.png,j,1,3,results1,001,2026-04-13_10h21.27.217,mogelijke versie adaptive staircase builder,,2026.1.3,59.95401527031515,2026-04-13 10h21.27.472671 +0200,
20.5,ecc10neg,right,2,0,2,j,0,1.5529344999999921,None,0,2,2,2,2,0,2,0,1523.6349409000002,,,,,,,,,,,,,,,1523.6232029999999,1523.6349409000002,1523.6349409000002,1524.5140134,1523.6349409000002,1525.1978474,j,0,1.5529344999999921,None,right,19,"[20, 19]",2,shiftedgaze_R_19.png,j,0,3,results1,001,2026-04-13_10h21.27.217,mogelijke versie adaptive staircase builder,,2026.1.3,59.95401527031515,2026-04-13 10h21.27.472671 +0200,
20.5,ecc10neg,right,3,0,3,j,0,2.0640567000000374,None,0,2,2,2,3,0,3,0,1525.3155677000002,,,,,,,,,,,,,,,1525.3043949,1525.3155677000002,1525.3155677000002,1526.1974517,1525.3155677000002,1527.3812026000003,j,0,2.0640567000000374,None,left,20,"[20, 19]",2,shiftedgaze_L_20.png,j,0,3,results1,001,2026-04-13_10h21.27.217,mogelijke versie adaptive staircase builder,,2026.1.3,59.95401527031515,2026-04-13 10h21.27.472671 +0200,
20.5,ecc10neg,right,4,0,4,j,0,5.4753436000000875,None,0,2,2,2,4,0,4,0,1527.4724836000003,,,,,,,,,,,,,,,1527.4612184999999,1527.4724836000003,1527.4724836000003,1528.3806831,1527.4724836000003,1532.9644622000003,j,0,5.4753436000000875,None,left,20,"[20, 19]",2,shiftedgaze_L_20.png,j,0,3,results1,001,2026-04-13_10h21.27.217,mogelijke versie adaptive staircase builder,,2026.1.3,59.95401527031515,2026-04-13 10h21.27.472671 +0200,
20.5,ecc10neg,right,5,0,5,f,0,2.458317900000111,None,0,2,2,2,5,0,5,0,1533.0571592,,,,,,,,,,,,,,,1533.0464723000002,1533.0571592,1533.0571592,1533.9641526000003,1533.0571592,1535.5310775,f,0,2.458317900000111,None,direct,20,"[20, 19]",2,shifteddirectgaze.png,f,0,3,results1,001,2026-04-13_10h21.27.217,mogelijke versie adaptive staircase builder,,2026.1.3,59.95401527031515,2026-04-13 10h21.27.472671 +0200,
20.5,ecc10neg,right,6,0,6,j,1,2.3549739999998565,None,0,2,2,2,6,0,6,0,1535.6248034000002,,,,,,,,,,,,,,,1535.6140513000003,1535.6248034000002,1535.6248034000002,1536.5306143999999,1535.6248034000002,1537.9812254,j,1,2.3549739999998565,None,direct,20,"[20, 19, 20]",3,shifteddirectgaze.png,j,1,3,results1,001,2026-04-13_10h21.27.217,mogelijke versie adaptive staircase builder,,2026.1.3,59.95401527031515,2026-04-13 10h21.27.472671 +0200,
20.5,ecc10neg,right,7,0,7,j,0,2.1000183999999535,None,0,2,2,2,7,0,7,0,1538.0794796000002,,,,,,,,,,,,,,,1538.0690631999998,1538.0794796000002,1538.0794796000002,1538.9805933999999,1538.0794796000002,1540.1809571000001,j,0,2.1000183999999535,None,left,19,"[20, 19, 20, 19]",4,shiftedgaze_L_19.png,j,0,3,results1,001,2026-04-13_10h21.27.217,mogelijke versie adaptive staircase builder,,2026.1.3,59.95401527031515,2026-04-13 10h21.27.472671 +0200,
20.5,ecc10neg,right,8,0,8,j,1,5.252616100000068,None,0,2,2,2,8,0,8,0,1540.2708687000002,,,,,,,,,,,,,,,1540.2603725000001,1540.2708687000002,1540.2708687000002,1541.1804746,1540.2708687000002,1545.5305849,j,1,5.252616100000068,None,direct,20,"[20, 19, 20, 19, 20]",5,shifteddirectgaze.png,j,1,3,results1,001,2026-04-13_10h21.27.217,mogelijke versie adaptive staircase builder,,2026.1.3,59.95401527031515,2026-04-13 10h21.27.472671 +0200,
20.5,ecc10neg,right,9,0,9,j,1,2.292360599999938,None,0,2,2,2,9,0,9,0,1545.6231730000002,,,,,,,,,,,,,,,1545.6118558,1545.6231730000002,1545.6231730000002,1546.5304847,1545.6231730000002,1547.9308935000001,j,1,2.292360599999938,None,direct,19,"[20, 19, 20, 19, 20]",5,shifteddirectgaze.png,j,1,3,results1,001,2026-04-13_10h21.27.217,mogelijke versie adaptive staircase builder,,2026.1.3,59.95401527031515,2026-04-13 10h21.27.472671 +0200,
20.5,ecc10neg,right,10,0,10,f,1,2.0690894000003937,None,0,2,2,2,10,0,10,0,1548.0304536,,,,,,,,,,,,,,,1548.0199852000003,1548.0304536,1548.0304536,1548.9302114,1548.0304536,1550.1142825,f,1,2.0690894000003937,None,left,18,"[20, 19, 20, 19, 20]",5,shiftedgaze_L_18.png,f,1,3,results1,001,2026-04-13_10h21.27.217,mogelijke versie adaptive staircase builder,,2026.1.3,59.95401527031515,2026-04-13 10h21.27.472671 +0200,
20.5,ecc10neg,right,11,0,11,j,1,2.069917499999974,None,0,2,2,2,11,0,11,0,1550.2055088,,,,,,,,,,,,,,,1550.1950238000002,1550.2055088,1550.2055088,1551.1138838,1550.2055088,1552.2806944000001,j,1,2.069917499999974,None,direct,17,"[20, 19, 20, 19, 20]",5,shifteddirectgaze.png,j,1,3,results1,001,2026-04-13_10h21.27.217,mogelijke versie adaptive staircase builder,,2026.1.3,59.95401527031515,2026-04-13 10h21.27.472671 +0200,
20.5,ecc10neg,right,12,0,12,j,1,1.5011855999996442,None,0,2,2,2,12,0,12,0,1552.3745231,,,,,,,,,,,,,,,1552.3622989000003,1552.3745231,1552.3745231,1553.2804406000002,1552.3745231,1553.8806924000003,j,1,1.5011855999996442,None,direct,16,"[20, 19, 20, 19, 20]",5,shifteddirectgaze.png,j,1,3,results1,001,2026-04-13_10h21.27.217,mogelijke versie adaptive staircase builder,,2026.1.3,59.95401527031515,2026-04-13 10h21.27.472671 +0200,
20.5,ecc10neg,right,13,0,13,j,0,3.63817760000029,None,0,2,2,2,13,0,13,0,1553.9813293,,,,,,,,,,,,,,,1553.9711364000002,1553.9813293,1553.9813293,1554.8804775,1553.9813293,1557.6305177000002,j,0,3.63817760000029,None,left,15,"[20, 19, 20, 19, 20, 15]",6,shiftedgaze_L_15.png,j,0,3,results1,001,2026-04-13_10h21.27.217,mogelijke versie adaptive staircase builder,,2026.1.3,59.95401527031515,2026-04-13 10h21.27.472671 +0200,
20.5,ecc10neg,right,14,0,14,j,0,1.6973625999999058,None,0,2,2,2,14,0,14,0,1557.7541355,,,,,,,,,,,,,,,1557.7425342,1557.7541355,1557.7541355,1558.6301618999998,1557.7541355,1559.4639826999999,j,0,1.6973625999999058,None,right,16,"[20, 19, 20, 19, 20, 15]",6,shiftedgaze_R_16.png,j,0,3,results1,001,2026-04-13_10h21.27.217,mogelijke versie adaptive staircase builder,,2026.1.3,59.95401527031515,2026-04-13 10h21.27.472671 +0200,
20.5,ecc10neg,right,15,0,15,j,0,1.9482864000001427,None,0,2,2,2,15,0,15,0,1559.5831656000003,,,,,,,,,,,,,,,1559.5702630000003,1559.5831656000003,1559.5831656000003,1560.4635648,1559.5831656000003,1561.5473395000001,j,0,1.9482864000001427,None,left,17,"[20, 19, 20, 19, 20, 15]",6,shiftedgaze_L_17.png,j,0,3,results1,001,2026-04-13_10h21.27.217,mogelijke versie adaptive staircase builder,,2026.1.3,59.95401527031515,2026-04-13 10h21.27.472671 +0200,
20.5,ecc10neg,right,16,0,16,j,0,4.556482099999812,None,0,2,2,2,16,0,16,0,1561.6710171000002,,,,,,,,,,,,,,,1561.6601632,1561.6710171000002,1561.6710171000002,1562.5468511000001,1561.6710171000002,1566.2301769000003,j,0,4.556482099999812,None,right,18,"[20, 19, 20, 19, 20, 15]",6,shiftedgaze_R_18.png,j,0,3,results1,001,2026-04-13_10h21.27.217,mogelijke versie adaptive staircase builder,,2026.1.3,59.95401527031515,2026-04-13 10h21.27.472671 +0200,
20.5,ecc10neg,right,17,0,17,j,1,1.884175299999697,None,0,2,2,2,17,0,17,0,1566.3433739,,,,,,,,,,,,,,,1566.3322922,1566.3433739,1566.3433739,1567.2302477,1566.3433739,1568.230342,j,1,1.884175299999697,None,direct,19,"[20, 19, 20, 19, 20, 15, 19]",7,shifteddirectgaze.png,j,1,3,results1,001,2026-04-13_10h21.27.217,mogelijke versie adaptive staircase builder,,2026.1.3,59.95401527031515,2026-04-13 10h21.27.472671 +0200,
20.5,ecc10neg,right,18,0,18,j,1,2.1018246999997245,None,0,2,2,2,18,0,18,0,1568.3256879000003,,,,,,,,,,,,,,,1568.311908,1568.3256879000003,1568.3256879000003,1569.2302747,1568.3256879000003,1570.4308425000002,j,1,2.1018246999997245,None,direct,18,"[20, 19, 20, 19, 20, 15, 19]",7,shifteddirectgaze.png,j,1,3,results1,001,2026-04-13_10h21.27.217,mogelijke versie adaptive staircase builder,,2026.1.3,59.95401527031515,2026-04-13 10h21.27.472671 +0200,
20.5,ecc10neg,right,19,0,19,j,0,2.8752885000003516,None,0,2,2,2,19,0,19,0,1570.5284158000002,,,,,,,,,,,,,,,1570.5170405000001,1570.5284158000002,1570.5284158000002,1571.4467299,1570.5284158000002,1573.4136649,j,0,2.8752885000003516,None,left,17,"[20, 19, 20, 19, 20, 15, 19, 17]",8,shiftedgaze_L_17.png,j,0,3,results1,001,2026-04-13_10h21.27.217,mogelijke versie adaptive staircase builder,,2026.1.3,59.95401527031515,2026-04-13 10h21.27.472671 +0200,
20.5,ecc10neg,right,20,0,20,f,1,5.113952999999583,None,0,2,2,2,20,0,20,0,1573.529644,,,,,,,,,,,,,,,1573.5183119,1573.529644,1573.529644,1574.4133287000002,1573.529644,1578.6470932,f,1,5.113952999999583,None,right,18,"[20, 19, 20, 19, 20, 15, 19, 17, 18]",9,shiftedgaze_R_18.png,f,1,3,results1,001,2026-04-13_10h21.27.217,mogelijke versie adaptive staircase builder,,2026.1.3,59.95401527031515,2026-04-13 10h21.27.472671 +0200,
20.5,ecc10neg,right,21,0,21,j,0,1.7514443999998548,None,0,2,2,2,21,0,21,0,1578.7561191000002,,,,,,,,,,,,,,,1578.7445933000001,1578.7561191000002,1578.7561191000002,1579.6465904,1578.7561191000002,1580.5133887,j,0,1.7514443999998548,None,left,17,"[20, 19, 20, 19, 20, 15, 19, 17, 18, 17]",10,shiftedgaze_L_17.png,j,0,3,results1,001,2026-04-13_10h21.27.217,mogelijke versie adaptive staircase builder,,2026.1.3,59.95401527031515,2026-04-13 10h21.27.472671 +0200,
20.5,ecc10neg,right,22,0,22,j,1,1.6304623999999421,None,0,2,2,2,22,0,22,0,1580.6051028,,,,,,,,,,,,,,,1580.5938192,1580.6051028,1580.6051028,1581.5132065,1580.6051028,1582.2470200999999,j,1,1.6304623999999421,None,direct,18,"[20, 19, 20, 19, 20, 15, 19, 17, 18, 17, 18]",11,shifteddirectgaze.png,j,1,3,results1,001,2026-04-13_10h21.27.217,mogelijke versie adaptive staircase builder,,2026.1.3,59.95401527031515,2026-04-13 10h21.27.472671 +0200,
20.5,ecc10neg,right,23,0,23,j,0,3.5080430000002707,None,0,2,2,2,23,0,23,0,1582.3756442000001,,,,,,,,,,,,,,,1582.3636581000003,1582.3756442000001,1582.3756442000001,1583.2466193000002,1582.3756442000001,1585.8970114,j,0,3.5080430000002707,None,right,17,"[20, 19, 20, 19, 20, 15, 19, 17, 18, 17, 18, 17]",12,shiftedgaze_R_17.png,j,0,3,results1,001,2026-04-13_10h21.27.217,mogelijke versie adaptive staircase builder,,2026.1.3,59.95401527031515,2026-04-13 10h21.27.472671 +0200,
20.5,ecc10neg,right,24,0,24,j,1,1.816975199999888,None,0,2,2,2,24,0,24,0,1586.0105544,,,,,,,,,,,,,,,1585.9992762,1586.0105544,1586.0105544,1586.8963922,1586.0105544,1587.8302569999998,j,1,1.816975199999888,None,direct,18,"[20, 19, 20, 19, 20, 15, 19, 17, 18, 17, 18, 17, 18]",13,shifteddirectgaze.png,j,1,3,results1,001,2026-04-13_10h21.27.217,mogelijke versie adaptive staircase builder,,2026.1.3,59.95401527031515,2026-04-13 10h21.27.472671 +0200,
20.5,ecc10neg,right,25,0,25,f,1,1.8737479999999778,None,0,2,2,2,25,0,25,0,1587.9462833999999,,,,,,,,,,,,,,,1587.9347416000003,1587.9462833999999,1587.9462833999999,1588.8297306000002,1587.9462833999999,1589.8302374000002,f,1,1.8737479999999778,None,right,17,"[20, 19, 20, 19, 20, 15, 19, 17, 18, 17, 18, 17, 18]",13,shiftedgaze_R_17.png,f,1,3,results1,001,2026-04-13_10h21.27.217,mogelijke versie adaptive staircase builder,,2026.1.3,59.95401527031515,2026-04-13 10h21.27.472671 +0200,
20.5,ecc10neg,right,26,0,26,f,1,2.5069171000000097,None,0,2,2,2,26,0,26,0,1589.9285631,,,,,,,,,,,,,,,1589.9170038,1589.9285631,1589.9285631,1590.8295824,1589.9285631,1592.4469206,f,1,2.5069171000000097,None,right,16,"[20, 19, 20, 19, 20, 15, 19, 17, 18, 17, 18, 17, 18]",13,shiftedgaze_R_16.png,f,1,3,results1,001,2026-04-13_10h21.27.217,mogelijke versie adaptive staircase builder,,2026.1.3,59.95401527031515,2026-04-13 10h21.27.472671 +0200,
20.5,ecc10neg,right,27,0,27,f,1,2.2837649000002784,None,0,2,2,2,27,0,27,0,1592.5677059000002,,,,,,,,,,,,,,,1592.5563434000003,1592.5677059000002,1592.5677059000002,1593.44665,1592.5677059000002,1594.8635831,f,1,2.2837649000002784,None,right,15,"[20, 19, 20, 19, 20, 15, 19, 17, 18, 17, 18, 17, 18]",13,shiftedgaze_R_15.png,f,1,3,results1,001,2026-04-13_10h21.27.217,mogelijke versie adaptive staircase builder,,2026.1.3,59.95401527031515,2026-04-13 10h21.27.472671 +0200,
20.5,ecc10neg,right,28,0,28,j,0,8.808413799999926,None,0,2,2,2,28,0,28,0,1594.9630987000003,,,,,,,,,,,,,,,1594.9518239000001,1594.9630987000003,1594.9630987000003,1595.8631804,1594.9630987000003,1603.7800676,j,0,8.808413799999926,None,right,14,"[20, 19, 20, 19, 20, 15, 19, 17, 18, 17, 18, 17, 18, 14]",14,shiftedgaze_R_14.png,j,0,3,results1,001,2026-04-13_10h21.27.217,mogelijke versie adaptive staircase builder,,2026.1.3,59.95401527031515,2026-04-13 10h21.27.472671 +0200,
20.5,ecc10neg,right,29,0,29,j,0,2.525443500000165,None,0,2,2,2,29,0,29,0,1603.8701379000001,,,,,,,,,,,,,,,1603.8597326000001,1603.8701379000001,1603.8701379000001,1604.7795154000003,1603.8701379000001,1606.3964698000002,j,0,2.525443500000165,None,right,15,"[20, 19, 20, 19, 20, 15, 19, 17, 18, 17, 18, 17, 18, 14]",14,shiftedgaze_R_15.png,j,0,3,results1,001,2026-04-13_10h21.27.217,mogelijke versie adaptive staircase builder,,2026.1.3,59.95401527031515,2026-04-13 10h21.27.472671 +0200,
20.5,ecc10neg,right,30,0,30,j,1,8.763166700000056,None,0,2,2,2,30,0,30,0,1606.4883178000002,,,,,,,,,,,,,,,1606.4774175999999,1606.4883178000002,1606.4883178000002,1607.3961117000001,1606.4883178000002,1615.2630473000002,j,1,8.763166700000056,None,direct,16,"[20, 19, 20, 19, 20, 15, 19, 17, 18, 17, 18, 17, 18, 14, 16]",15,shifteddirectgaze.png,j,1,3,results1,001,2026-04-13_10h21.27.217,mogelijke versie adaptive staircase builder,,2026.1.3,59.95401527031515,2026-04-13 10h21.27.472671 +0200,
20.5,ecc10neg,right,31,0,31,j,1,2.393015899999682,None,0,2,2,2,31,0,31,0,1615.3544806000002,,,,,,,,,,,,,,,1615.3429859,1615.3544806000002,1615.3544806000002,1616.2625187,1615.3544806000002,1617.7632633,j,1,2.393015899999682,None,direct,15,"[20, 19, 20, 19, 20, 15, 19, 17, 18, 17, 18, 17, 18, 14, 16]",15,shifteddirectgaze.png,j,1,3,results1,001,2026-04-13_10h21.27.217,mogelijke versie adaptive staircase builder,,2026.1.3,59.95401527031515,2026-04-13 10h21.27.472671 +0200,
20.5,ecc10neg,right,32,0,32,f,0,1.8463472999997066,None,0,2,2,2,32,0,32,0,1617.8532945,,,,,,,,,,,,,,,1617.8430885999999,1617.8532945,1617.8532945,1618.7625168000002,1617.8532945,1619.7130666,f,0,1.8463472999997066,None,direct,14,"[20, 19, 20, 19, 20, 15, 19, 17, 18, 17, 18, 17, 18, 14, 16, 14]",16,shifteddirectgaze.png,f,0,3,results1,001,2026-04-13_10h21.27.217,mogelijke versie adaptive staircase builder,,2026.1.3,59.95401527031515,2026-04-13 10h21.27.472671 +0200,
20.5,ecc10neg,right,33,0,33,j,1,1.9277148999999554,None,0,2,2,2,33,0,33,0,1619.8038875,,,,,,,,,,,,,,,1619.7930082,1619.8038875,1619.8038875,1620.7125727,1619.8038875,1621.7465490000002,j,1,1.9277148999999554,None,direct,15,"[20, 19, 20, 19, 20, 15, 19, 17, 18, 17, 18, 17, 18, 14, 16, 14, 15]",17,shifteddirectgaze.png,j,1,3,results1,001,2026-04-13_10h21.27.217,mogelijke versie adaptive staircase builder,,2026.1.3,59.95401527031515,2026-04-13 10h21.27.472671 +0200,
20.5,ecc10neg,right,34,0,34,j,0,2.549316600000111,None,0,2,2,2,34,0,34,0,1621.8462981,,,,,,,,,,,,,,,1621.8361369000002,1621.8462981,1621.8462981,1622.7459780000002,1621.8462981,1624.3961807000003,j,0,2.549316600000111,None,left,14,"[20, 19, 20, 19, 20, 15, 19, 17, 18, 17, 18, 17, 18, 14, 16, 14, 15, 14]",18,shiftedgaze_L_14.png,j,0,3,results1,001,2026-04-13_10h21.27.217,mogelijke versie adaptive staircase builder,,2026.1.3,59.95401527031515,2026-04-13 10h21.27.472671 +0200,
20.5,ecc10neg,right,35,0,35,j,0,3.2014635999998973,None,0,2,2,2,35,0,35,0,1624.4900893000001,,,,,,,,,,,,,,,1624.4788409,1624.4900893000001,1624.4900893000001,1625.3958684000002,1624.4900893000001,1627.6963481999999,j,0,3.2014635999998973,None,left,15,"[20, 19, 20, 19, 20, 15, 19, 17, 18, 17, 18, 17, 18, 14, 16, 14, 15, 14]",18,shiftedgaze_L_15.png,j,0,3,results1,001,2026-04-13_10h21.27.217,mogelijke versie adaptive staircase builder,,2026.1.3,59.95401527031515,2026-04-13 10h21.27.472671 +0200,
20.5,ecc10neg,right,36,0,36,j,0,7.707830700000159,None,0,2,2,2,36,0,36,0,1627.8236961999999,,,,,,,,,,,,,,,1627.8124107,1627.8236961999999,1627.8236961999999,1628.7125039,1627.8236961999999,1635.5459625,j,0,7.707830700000159,None,right,16,"[20, 19, 20, 19, 20, 15, 19, 17, 18, 17, 18, 17, 18, 14, 16, 14, 15, 14]",18,shiftedgaze_R_16.png,j,0,3,results1,001,2026-04-13_10h21.27.217,mogelijke versie adaptive staircase builder,,2026.1.3,59.95401527031515,2026-04-13 10h21.27.472671 +0200,
20.5,ecc10neg,right,37,0,37,j,0,2.7051044000004367,None,0,2,2,2,37,0,37,0,1635.650507,,,,,,,,,,,,,,,1635.6388885,1635.650507,1635.650507,1636.5458082000002,1635.650507,1638.3628955000001,j,0,2.7051044000004367,None,right,17,"[20, 19, 20, 19, 20, 15, 19, 17, 18, 17, 18, 17, 18, 14, 16, 14, 15, 14]",18,shiftedgaze_R_17.png,j,0,3,results1,001,2026-04-13_10h21.27.217,mogelijke versie adaptive staircase builder,,2026.1.3,59.95401527031515,2026-04-13 10h21.27.472671 +0200,
20.5,ecc10neg,right,38,0,38,f,1,5.122166200000265,None,0,2,2,2,38,0,38,0,1638.4653772,,,,,,,,,,,,,,,1638.4537434000001,1638.4653772,1638.4653772,1639.3624544000002,1638.4653772,1643.5959628000003,f,1,5.122166200000265,None,right,18,"[20, 19, 20, 19, 20, 15, 19, 17, 18, 17, 18, 17, 18, 14, 16, 14, 15, 14, 18]",19,shiftedgaze_R_18.png,f,1,3,results1,001,2026-04-13_10h21.27.217,mogelijke versie adaptive staircase builder,,2026.1.3,59.95401527031515,2026-04-13 10h21.27.472671 +0200,
20.5,ecc10neg,right,39,0,39,f,1,1.6723087000000305,None,0,2,2,2,39,0,39,0,1643.7152056000002,,,,,,,,,,,,,,,1643.70362,1643.7152056000002,1643.7152056000002,1644.5954273,1643.7152056000002,1645.3959989000002,f,1,1.6723087000000305,None,left,17,"[20, 19, 20, 19, 20, 15, 19, 17, 18, 17, 18, 17, 18, 14, 16, 14, 15, 14, 18]",19,shiftedgaze_L_17.png,f,1,3,results1,001,2026-04-13_10h21.27.217,mogelijke versie adaptive staircase builder,,2026.1.3,59.95401527031515,2026-04-13 10h21.27.472671 +0200,
20.5,ecc10neg,right,40,0,40,j,1,2.2848480999996355,None,0,2,2,2,40,0,40,0,1645.4948926,,,,,,,,,,,,,,,1645.4835661,1645.4948926,1645.4948926,1646.3955375000003,1645.4948926,1647.7963064000003,j,1,2.2848480999996355,None,direct,16,"[20, 19, 20, 19, 20, 15, 19, 17, 18, 17, 18, 17, 18, 14, 16, 14, 15, 14, 18]",19,shifteddirectgaze.png,j,1,3,results1,001,2026-04-13_10h21.27.217,mogelijke versie adaptive staircase builder,,2026.1.3,59.95401527031515,2026-04-13 10h21.27.472671 +0200,
20.5,ecc10neg,right,41,0,41,j,0,1.8909224999997605,None,0,2,2,2,41,0,41,0,1647.905255,,,,,,,,,,,,,,,1647.8947467,1647.905255,1647.905255,1648.8121874,1647.905255,1649.8126742000002,j,0,1.8909224999997605,None,left,15,"[20, 19, 20, 19, 20, 15, 19, 17, 18, 17, 18, 17, 18, 14, 16, 14, 15, 14, 18, 15]",20,shiftedgaze_L_15.png,j,0,3,results1,001,2026-04-13_10h21.27.217,mogelijke versie adaptive staircase builder,,2026.1.3,59.95401527031515,2026-04-13 10h21.27.472671 +0200,
20.5,ecc10neg,right,42,0,42,f,1,2.6664043000000675,None,0,2,2,2,42,0,42,0,1649.9851295,,,,,,,,,,,,,,,1649.9735335000003,1649.9851295,1649.9851295,1650.8288102,1649.9851295,1652.6627763,f,1,2.6664043000000675,None,right,16,"[20, 19, 20, 19, 20, 15, 19, 17, 18, 17, 18, 17, 18, 14, 16, 14, 15, 14, 18, 15, 16]",21,shiftedgaze_R_16.png,f,1,3,results1,001,2026-04-13_10h21.27.217,mogelijke versie adaptive staircase builder,,2026.1.3,59.95401527031515,2026-04-13 10h21.27.472671 +0200,
20.5,ecc10neg,right,43,0,43,j,0,2.4985335999999734,None,0,2,2,2,43,0,43,0,1652.7929850000003,,,,,,,,,,,,,,,1652.7820612000003,1652.7929850000003,1652.7929850000003,1653.662289,1652.7929850000003,1655.295773,j,0,2.4985335999999734,None,right,15,"[20, 19, 20, 19, 20, 15, 19, 17, 18, 17, 18, 17, 18, 14, 16, 14, 15, 14, 18, 15, 16, 15]",22,shiftedgaze_R_15.png,j,0,3,results1,001,2026-04-13_10h21.27.217,mogelijke versie adaptive staircase builder,,2026.1.3,59.95401527031515,2026-04-13 10h21.27.472671 +0200,
20.5,ecc10neg,right,44,0,44,j,0,2.0484550000001036,None,0,2,2,2,44,0,44,0,1655.4190678000002,,,,,,,,,,,,,,,1655.4079804,1655.4190678000002,1655.4190678000002,1656.2954018000003,1655.4190678000002,1657.4791539999999,j,0,2.0484550000001036,None,right,16,"[20, 19, 20, 19, 20, 15, 19, 17, 18, 17, 18, 17, 18, 14, 16, 14, 15, 14, 18, 15, 16, 15]",22,shiftedgaze_R_16.png,j,0,3,results1,001,2026-04-13_10h21.27.217,mogelijke versie adaptive staircase builder,,2026.1.3,59.95401527031515,2026-04-13 10h21.27.472671 +0200,
20.5,ecc10neg,right,45,0,45,f,1,1.930106799999976,None,0,2,2,2,45,0,45,0,1657.5853285,,,,,,,,,,,,,,,1657.5736061,1657.5853285,1657.5853285,1658.4785368999999,1657.5853285,1659.5289741,f,1,1.930106799999976,None,right,17,"[20, 19, 20, 19, 20, 15, 19, 17, 18, 17, 18, 17, 18, 14, 16, 14, 15, 14, 18, 15, 16, 15, 17]",23,shiftedgaze_R_17.png,f,1,3,results1,001,2026-04-13_10h21.27.217,mogelijke versie adaptive staircase builder,,2026.1.3,59.95401527031515,2026-04-13 10h21.27.472671 +0200,
20.5,ecc10neg,right,46,0,46,f,0,1.8922993999999562,None,0,2,2,2,46,0,46,0,1659.6471503,,,,,,,,,,,,,,,1659.6360118,1659.6471503,1659.6471503,1660.5286416000001,1659.6471503,1661.5456609,f,0,1.8922993999999562,None,direct,16,"[20, 19, 20, 19, 20, 15, 19, 17, 18, 17, 18, 17, 18, 14, 16, 14, 15, 14, 18, 15, 16, 15, 17, 16]",24,shifteddirectgaze.png,f,0,3,results1,001,2026-04-13_10h21.27.217,mogelijke versie adaptive staircase builder,,2026.1.3,59.95401527031515,2026-04-13 10h21.27.472671 +0200,
20.5,ecc10neg,right,47,0,47,f,0,2.2396192999999585,None,0,2,2,2,47,0,47,0,1661.6440295,,,,,,,,,,,,,,,1661.6334344,1661.6440295,1661.6440295,1662.5450935000001,1661.6440295,1663.8954953,f,0,2.2396192999999585,None,direct,17,"[20, 19, 20, 19, 20, 15, 19, 17, 18, 17, 18, 17, 18, 14, 16, 14, 15, 14, 18, 15, 16, 15, 17, 16]",24,shifteddirectgaze.png,f,0,3,results1,001,2026-04-13_10h21.27.217,mogelijke versie adaptive staircase builder,,2026.1.3,59.95401527031515,2026-04-13 10h21.27.472671 +0200,
20.5,ecc10neg,right,48,0,48,j,0,5.527599499999724,None,0,2,2,2,48,0,48,0,1664.0039113999999,,,,,,,,,,,,,,,1663.9938461,1664.0039113999999,1664.0039113999999,1664.8953155000002,1664.0039113999999,1669.5456209000001,j,0,5.527599499999724,None,left,18,"[20, 19, 20, 19, 20, 15, 19, 17, 18, 17, 18, 17, 18, 14, 16, 14, 15, 14, 18, 15, 16, 15, 17, 16]",24,shiftedgaze_L_18.png,j,0,3,results1,001,2026-04-13_10h21.27.217,mogelijke versie adaptive staircase builder,,2026.1.3,59.95401527031515,2026-04-13 10h21.27.472671 +0200,
20.5,ecc10neg,right,49,0,49,j,0,3.1966953000001013,None,0,2,2,2,49,0,49,0,1669.6870705,,,,,,,,,,,,,,,1669.6759756,1669.6870705,1669.6870705,1670.5450002,1669.6870705,1672.8955919000002,j,0,3.1966953000001013,None,right,19,"[20, 19, 20, 19, 20, 15, 19, 17, 18, 17, 18, 17, 18, 14, 16, 14, 15, 14, 18, 15, 16, 15, 17, 16]",24,shiftedgaze_R_19.png,j,0,3,results1,001,2026-04-13_10h21.27.217,mogelijke versie adaptive staircase builder,,2026.1.3,59.95401527031515,2026-04-13 10h21.27.472671 +0200,
20.5,ecc10neg,right,50,0,50,f,0,5.577935100000104,None,0,2,2,2,50,0,50,0,1673.0176786,,,,,,,,,,,,,,,1673.0062393,1673.0176786,1673.0176786,1673.8952244,1673.0176786,1678.6122474000001,f,0,5.577935100000104,None,direct,20,"[20, 19, 20, 19, 20, 15, 19, 17, 18, 17, 18, 17, 18, 14, 16, 14, 15, 14, 18, 15, 16, 15, 17, 16]",24,shifteddirectgaze.png,f,0,3,results1,001,2026-04-13_10h21.27.217,mogelijke versie adaptive staircase builder,,2026.1.3,59.95401527031515,2026-04-13 10h21.27.472671 +0200,
20.5,ecc10neg,right,51,0,51,f,0,3.5072661999997763,None,0,2,2,2,51,0,51,0,1678.7123211,,,,,,,,,,,,,,,1678.7014534000002,1678.7123211,1678.7123211,1679.6116176000003,1678.7123211,1682.2287345000002,f,0,3.5072661999997763,None,direct,20,"[20, 19, 20, 19, 20, 15, 19, 17, 18, 17, 18, 17, 18, 14, 16, 14, 15, 14, 18, 15, 16, 15, 17, 16]",24,shifteddirectgaze.png,f,0,3,results1,001,2026-04-13_10h21.27.217,mogelijke versie adaptive staircase builder,,2026.1.3,59.95401527031515,2026-04-13 10h21.27.472671 +0200,
20.5,ecc10neg,right,52,0,52,j,0,3.923130300000139,None,0,2,2,2,52,0,52,0,1682.3296898,,,,,,,,,,,,,,,1682.3183397999999,1682.3296898,1682.3296898,1683.2282741000001,1682.3296898,1686.2630801000003,j,0,3.923130300000139,None,left,20,"[20, 19, 20, 19, 20, 15, 19, 17, 18, 17, 18, 17, 18, 14, 16, 14, 15, 14, 18, 15, 16, 15, 17, 16]",24,shiftedgaze_L_20.png,j,0,3,results1,001,2026-04-13_10h21.27.217,mogelijke versie adaptive staircase builder,,2026.1.3,59.95401527031515,2026-04-13 10h21.27.472671 +0200,
20.5,ecc10neg,right,53,0,53,f,1,1.9856912999998713,None,0,2,2,2,53,0,53,0,1686.3938292,,,,,,,,,,,,,,,1686.3822421000002,1686.3938292,1686.3938292,1687.2783078999998,1686.3938292,1688.3954326,f,1,1.9856912999998713,None,right,20,"[20, 19, 20, 19, 20, 15, 19, 17, 18, 17, 18, 17, 18, 14, 16, 14, 15, 14, 18, 15, 16, 15, 17, 16, 20]",25,shiftedgaze_R_20.png,f,1,3,results1,001,2026-04-13_10h21.27.217,mogelijke versie adaptive staircase builder,,2026.1.3,59.95401527031515,2026-04-13 10h21.27.472671 +0200,
20.5,ecc10neg,right,54,0,54,j,0,4.150243000000046,None,0,2,2,2,54,0,54,0,1688.5173349,,,,,,,,,,,,,,,1688.5053353,1688.5173349,1688.5173349,1689.3948847,1688.5173349,1692.678545,j,0,4.150243000000046,None,left,19,"[20, 19, 20, 19, 20, 15, 19, 17, 18, 17, 18, 17, 18, 14, 16, 14, 15, 14, 18, 15, 16, 15, 17, 16, 20, 19]",26,shiftedgaze_L_19.png,j,0,3,results1,001,2026-04-13_10h21.27.217,mogelijke versie adaptive staircase builder,,2026.1.3,59.95401527031515,2026-04-13 10h21.27.472671 +0200,
20.5,ecc10neg,right,55,0,55,j,0,2.2987536000000546,None,0,2,2,2,55,0,55,0,1692.7687429,,,,,,,,,,,,,,,1692.7579824000002,1692.7687429,1692.7687429,1693.6780148,1692.7687429,1695.0786145,j,0,2.2987536000000546,None,left,20,"[20, 19, 20, 19, 20, 15, 19, 17, 18, 17, 18, 17, 18, 14, 16, 14, 15, 14, 18, 15, 16, 15, 17, 16, 20, 19]",26,shiftedgaze_L_20.png,j,0,3,results1,001,2026-04-13_10h21.27.217,mogelijke versie adaptive staircase builder,,2026.1.3,59.95401527031515,2026-04-13 10h21.27.472671 +0200,
20.5,ecc10neg,right,56,0,56,j,0,2.8713501000001997,None,0,2,2,2,56,0,56,0,1695.1723546,,,,,,,,,,,,,,,1695.1617701000002,1695.1723546,1695.1723546,1696.0785862999999,1695.1723546,1698.0451501999999,j,0,2.8713501000001997,None,left,20,"[20, 19, 20, 19, 20, 15, 19, 17, 18, 17, 18, 17, 18, 14, 16, 14, 15, 14, 18, 15, 16, 15, 17, 16, 20, 19]",26,shiftedgaze_L_20.png,j,0,3,results1,001,2026-04-13_10h21.27.217,mogelijke versie adaptive staircase builder,,2026.1.3,59.95401527031515,2026-04-13 10h21.27.472671 +0200,
20.5,ecc10neg,right,57,0,57,f,1,6.959513000000243,None,0,2,2,2,57,0,57,0,1698.1400108999999,,,,,,,,,,,,,,,1698.1300022000003,1698.1400108999999,1698.1400108999999,1699.0446758,1698.1400108999999,1705.1114085000002,f,1,6.959513000000243,None,left,20,"[20, 19, 20, 19, 20, 15, 19, 17, 18, 17, 18, 17, 18, 14, 16, 14, 15, 14, 18, 15, 16, 15, 17, 16, 20, 19, 20]",27,shiftedgaze_L_20.png,f,1,3,results1,001,2026-04-13_10h21.27.217,mogelijke versie adaptive staircase builder,,2026.1.3,59.95401527031515,2026-04-13 10h21.27.472671 +0200,
20.5,ecc10neg,right,58,0,58,f,1,2.230175600000166,None,0,2,2,2,58,0,58,0,1705.2055388,,,,,,,,,,,,,,,1705.1933169000001,1705.2055388,1705.2055388,1706.1113161,1705.2055388,1707.4450081000002,f,1,2.230175600000166,None,left,19,"[20, 19, 20, 19, 20, 15, 19, 17, 18, 17, 18, 17, 18, 14, 16, 14, 15, 14, 18, 15, 16, 15, 17, 16, 20, 19, 20]",27,shiftedgaze_L_19.png,f,1,3,results1,001,2026-04-13_10h21.27.217,mogelijke versie adaptive staircase builder,,2026.1.3,59.95401527031515,2026-04-13 10h21.27.472671 +0200,
20.5,ecc10neg,right,59,0,59,f,1,4.777267400000255,None,0,2,2,2,59,0,59,0,1707.5383873000003,,,,,,,,,,,,,,,1707.5280304,1707.5383873000003,1707.5383873000003,1708.4447165,1707.5383873000003,1712.3284254000002,f,1,4.777267400000255,None,left,18,"[20, 19, 20, 19, 20, 15, 19, 17, 18, 17, 18, 17, 18, 14, 16, 14, 15, 14, 18, 15, 16, 15, 17, 16, 20, 19, 20]",27,shiftedgaze_L_18.png,f,1,3,results1,001,2026-04-13_10h21.27.217,mogelijke versie adaptive staircase builder,,2026.1.3,59.95401527031515,2026-04-13 10h21.27.472671 +0200,
20.5,ecc10neg,right,2,2,0,,,,,0,2,2,2,,,,,,,,,,,,,,,,,,,,,,,,,,,,,,,,,,,,,,results1,001,2026-04-13_10h21.27.217,mogelijke versie adaptive staircase builder,,2026.1.3,59.95401527031515,2026-04-13 10h21.27.472671 +0200,
