xPos,stimulusSet,whichImage,thisN,thisTrialN,thisRepN,key_resp.keys,key_resp.corr,key_resp.rt,key_resp.duration,blocks.thisRepN,blocks.thisTrialN,blocks.thisN,blocks.thisIndex,trials.thisRepN,trials.thisTrialN,trials.thisN,trials.thisIndex,thisRow.t,notes,piloting,intro.started,introinstructions.started,intro_key.started,demo_image_left.started,demo_image_middle.started,demo_image_right.started,intro.stopped,intro_key.keys,intro_key.rt,intro_key.duration,block_start.started,block_start.stopped,trial.started,key_resp.started,middle_image.started,right_image.started,left_image.started,trial.stopped,trials.key_resp.keys,trials.key_resp.corr,trials.key_resp.rt,trials.key_resp.duration,direction,angle,reversal_intensities,number_reversals,stimulus,response,correct,blockNumber,participant,session,date,expName,expVersion,psychopyVersion,frameRate,expStart,
,,,,,,,,,,,,,,,,,,,,False,0.0504702999987785,0.05992979999973613,0.05992979999973613,0.05992979999973613,0.05992979999973613,0.05992979999973613,5.814154699999563,space,5.624241900000925,0.128045800000109,,,,,,,,,,,,,,,,,,,,,results8,001,2026-04-13_14h15.55.382,mogelijke versie adaptive staircase builder,,2026.1.3,59.981022004584744,2026-04-13 14h15.55.602584 +0200,
4.5,ecc10pos,left,0,0,0,j,1,6.021699200000512,None,0,0,0,0,0,0,0,0,6.1105107000003045,,,,,,,,,,,,,6.0016247000003204,6.001677700000073,6.100528900000427,6.1105107000003045,6.1105107000003045,6.1105107000003045,7.01386839999941,12.147797499999797,j,1,6.021699200000512,None,direct,20,[],0,shifteddirectgaze.png,j,1,1,results8,001,2026-04-13_14h15.55.382,mogelijke versie adaptive staircase builder,,2026.1.3,59.981022004584744,2026-04-13 14h15.55.602584 +0200,
4.5,ecc10pos,left,1,0,1,f,1,3.786613000000216,None,0,0,0,0,1,0,1,0,12.251136299999416,,,,,,,,,,,,,,,12.240566399999807,12.251136299999416,12.251136299999416,12.251136299999416,13.147378699999535,16.047625499999413,f,1,3.786613000000216,None,right,19,[],0,shiftedgaze_R_19.png,f,1,1,results8,001,2026-04-13_14h15.55.382,mogelijke versie adaptive staircase builder,,2026.1.3,59.981022004584744,2026-04-13 14h15.55.602584 +0200,
4.5,ecc10pos,left,2,0,2,j,1,1.7586486999989575,None,0,0,0,0,2,0,2,0,16.149520900000425,,,,,,,,,,,,,,,16.139297699999588,16.149520900000425,16.149520900000425,16.149520900000425,17.047064799999134,17.9141810000001,j,1,1.7586486999989575,None,direct,18,[],0,shifteddirectgaze.png,j,1,1,results8,001,2026-04-13_14h15.55.382,mogelijke versie adaptive staircase builder,,2026.1.3,59.981022004584744,2026-04-13 14h15.55.602584 +0200,
4.5,ecc10pos,left,3,0,3,j,1,1.7479817000003095,None,0,0,0,0,3,0,3,0,18.008189099999072,,,,,,,,,,,,,,,17.9962016999998,18.008189099999072,18.008189099999072,18.008189099999072,18.913819899998998,19.763990899999044,j,1,1.7479817000003095,None,direct,17,[],0,shifteddirectgaze.png,j,1,1,results8,001,2026-04-13_14h15.55.382,mogelijke versie adaptive staircase builder,,2026.1.3,59.981022004584744,2026-04-13 14h15.55.602584 +0200,
4.5,ecc10pos,left,4,0,4,j,1,2.068376299999727,None,0,0,0,0,4,0,4,0,19.85583240000051,,,,,,,,,,,,,,,19.845279899998786,19.85583240000051,19.85583240000051,19.85583240000051,20.76391599999988,21.930744699999195,j,1,2.068376299999727,None,direct,16,[],0,shifteddirectgaze.png,j,1,1,results8,001,2026-04-13_14h15.55.382,mogelijke versie adaptive staircase builder,,2026.1.3,59.981022004584744,2026-04-13 14h15.55.602584 +0200,
4.5,ecc10pos,left,5,0,5,f,1,2.649083899999823,None,0,0,0,0,5,0,5,0,22.035037300000113,,,,,,,,,,,,,,,22.022046000000046,22.035037300000113,22.035037300000113,22.035037300000113,22.930448799999795,24.69717010000022,f,1,2.649083899999823,None,right,15,[],0,shiftedgaze_R_15.png,f,1,1,results8,001,2026-04-13_14h15.55.382,mogelijke versie adaptive staircase builder,,2026.1.3,59.981022004584744,2026-04-13 14h15.55.602584 +0200,
4.5,ecc10pos,left,6,0,6,j,0,1.798058200000014,None,0,0,0,0,6,0,6,0,24.798169300000154,,,,,,,,,,,,,,,24.787114299999303,24.798169300000154,24.798169300000154,24.798169300000154,25.696937499998967,26.59728510000059,j,0,1.798058200000014,None,left,14,[14],1,shiftedgaze_L_14.png,j,0,1,results8,001,2026-04-13_14h15.55.382,mogelijke versie adaptive staircase builder,,2026.1.3,59.981022004584744,2026-04-13 14h15.55.602584 +0200,
4.5,ecc10pos,left,7,0,7,j,0,1.6343878999996377,None,0,0,0,0,7,0,7,0,26.689827199999854,,,,,,,,,,,,,,,26.679635500000586,26.689827199999854,26.689827199999854,26.689827199999854,27.59700100000009,28.330747099998916,j,0,1.6343878999996377,None,right,15,[14],1,shiftedgaze_R_15.png,j,0,1,results8,001,2026-04-13_14h15.55.382,mogelijke versie adaptive staircase builder,,2026.1.3,59.981022004584744,2026-04-13 14h15.55.602584 +0200,
4.5,ecc10pos,left,8,0,8,j,1,1.8841186999998172,None,0,0,0,0,8,0,8,0,28.424193599999853,,,,,,,,,,,,,,,28.412395499999548,28.424193599999853,28.424193599999853,28.424193599999853,29.330561700000544,30.31382069999927,j,1,1.8841186999998172,None,direct,16,"[14, 16]",2,shifteddirectgaze.png,j,1,1,results8,001,2026-04-13_14h15.55.382,mogelijke versie adaptive staircase builder,,2026.1.3,59.981022004584744,2026-04-13 14h15.55.602584 +0200,
4.5,ecc10pos,left,9,0,9,f,1,2.531092000001081,None,0,0,0,0,9,0,9,0,30.41712650000045,,,,,,,,,,,,,,,30.40692139999919,30.41712650000045,30.41712650000045,30.41712650000045,31.313704199999847,32.96369909999885,f,1,2.531092000001081,None,left,15,"[14, 16]",2,shiftedgaze_L_15.png,f,1,1,results8,001,2026-04-13_14h15.55.382,mogelijke versie adaptive staircase builder,,2026.1.3,59.981022004584744,2026-04-13 14h15.55.602584 +0200,
4.5,ecc10pos,left,10,0,10,j,0,1.5127062999999907,None,0,0,0,0,10,0,10,0,33.067616700000144,,,,,,,,,,,,,,,33.05426950000037,33.067616700000144,33.067616700000144,33.067616700000144,33.96353029999955,34.597137400000065,j,0,1.5127062999999907,None,left,14,"[14, 16, 14]",3,shiftedgaze_L_14.png,j,0,1,results8,001,2026-04-13_14h15.55.382,mogelijke versie adaptive staircase builder,,2026.1.3,59.981022004584744,2026-04-13 14h15.55.602584 +0200,
4.5,ecc10pos,left,11,0,11,j,0,1.5371727000001556,None,0,0,0,0,11,0,11,0,34.700392299999294,,,,,,,,,,,,,,,34.69030799999928,34.700392299999294,34.700392299999294,34.700392299999294,35.59701569999925,36.247199100000216,j,0,1.5371727000001556,None,left,15,"[14, 16, 14]",3,shiftedgaze_L_15.png,j,0,1,results8,001,2026-04-13_14h15.55.382,mogelijke versie adaptive staircase builder,,2026.1.3,59.981022004584744,2026-04-13 14h15.55.602584 +0200,
4.5,ecc10pos,left,12,0,12,j,0,2.5996641000001546,None,0,0,0,0,12,0,12,0,36.36478410000018,,,,,,,,,,,,,,,36.35298220000004,36.36478410000018,36.36478410000018,36.36478410000018,37.24677859999974,38.980475500000466,j,0,2.5996641000001546,None,left,16,"[14, 16, 14]",3,shiftedgaze_L_16.png,j,0,1,results8,001,2026-04-13_14h15.55.382,mogelijke versie adaptive staircase builder,,2026.1.3,59.981022004584744,2026-04-13 14h15.55.602584 +0200,
4.5,ecc10pos,left,13,0,13,j,0,1.7423784000002343,None,0,0,0,0,13,0,13,0,39.07875860000058,,,,,,,,,,,,,,,39.06739650000054,39.07875860000058,39.07875860000058,39.07875860000058,39.98019509999904,40.83022759999949,j,0,1.7423784000002343,None,left,17,"[14, 16, 14]",3,shiftedgaze_L_17.png,j,0,1,results8,001,2026-04-13_14h15.55.382,mogelijke versie adaptive staircase builder,,2026.1.3,59.981022004584744,2026-04-13 14h15.55.602584 +0200,
4.5,ecc10pos,left,14,0,14,f,0,1.6960973000004742,None,0,0,0,0,14,0,14,0,40.941405499999746,,,,,,,,,,,,,,,40.93018259999917,40.941405499999746,40.941405499999746,40.941405499999746,41.830068799999935,42.647088100000474,f,0,1.6960973000004742,None,direct,18,"[14, 16, 14]",3,shifteddirectgaze.png,f,0,1,results8,001,2026-04-13_14h15.55.382,mogelijke versie adaptive staircase builder,,2026.1.3,59.981022004584744,2026-04-13 14h15.55.602584 +0200,
4.5,ecc10pos,left,15,0,15,j,0,2.2392860999989352,None,0,0,0,0,15,0,15,0,42.74892720000025,,,,,,,,,,,,,,,42.73887350000041,42.74892720000025,42.74892720000025,42.74892720000025,43.64677699999993,44.9969889999993,j,0,2.2392860999989352,None,right,19,"[14, 16, 14]",3,shiftedgaze_R_19.png,j,0,1,results8,001,2026-04-13_14h15.55.382,mogelijke versie adaptive staircase builder,,2026.1.3,59.981022004584744,2026-04-13 14h15.55.602584 +0200,
4.5,ecc10pos,left,16,0,16,j,1,2.0482212000006257,None,0,0,0,0,16,0,16,0,45.09999500000049,,,,,,,,,,,,,,,45.08965460000036,45.09999500000049,45.09999500000049,45.09999500000049,45.99683240000013,47.16368370000055,j,1,2.0482212000006257,None,direct,20,"[14, 16, 14, 20]",4,shifteddirectgaze.png,j,1,1,results8,001,2026-04-13_14h15.55.382,mogelijke versie adaptive staircase builder,,2026.1.3,59.981022004584744,2026-04-13 14h15.55.602584 +0200,
4.5,ecc10pos,left,17,0,17,j,0,2.77161039999919,None,0,0,0,0,17,0,17,0,47.28065760000027,,,,,,,,,,,,,,,47.26924329999929,47.28065760000027,47.28065760000027,47.28065760000027,48.163559099999475,50.063724899999215,j,0,2.77161039999919,None,left,19,"[14, 16, 14, 20, 19]",5,shiftedgaze_L_19.png,j,0,1,results8,001,2026-04-13_14h15.55.382,mogelijke versie adaptive staircase builder,,2026.1.3,59.981022004584744,2026-04-13 14h15.55.602584 +0200,
4.5,ecc10pos,left,18,0,18,j,1,2.4634855999993306,None,0,0,0,0,18,0,18,0,50.174317599999995,,,,,,,,,,,,,,,50.162931099999696,50.174317599999995,50.174317599999995,50.174317599999995,51.06341640000028,52.64697560000059,j,1,2.4634855999993306,None,direct,20,"[14, 16, 14, 20, 19, 20]",6,shifteddirectgaze.png,j,1,1,results8,001,2026-04-13_14h15.55.382,mogelijke versie adaptive staircase builder,,2026.1.3,59.981022004584744,2026-04-13 14h15.55.602584 +0200,
4.5,ecc10pos,left,19,0,19,j,1,2.456315800000084,None,0,0,0,0,19,0,19,0,52.73999709999953,,,,,,,,,,,,,,,52.72896910000054,52.73999709999953,52.73999709999953,52.73999709999953,53.646705799999836,55.19697009999982,j,1,2.456315800000084,None,direct,19,"[14, 16, 14, 20, 19, 20]",6,shifteddirectgaze.png,j,1,1,results8,001,2026-04-13_14h15.55.382,mogelijke versie adaptive staircase builder,,2026.1.3,59.981022004584744,2026-04-13 14h15.55.602584 +0200,
4.5,ecc10pos,left,20,0,20,f,0,1.8574205999993865,None,0,0,0,0,20,0,20,0,55.29078289999961,,,,,,,,,,,,,,,55.279105999999956,55.29078289999961,55.29078289999961,55.29078289999961,56.19647880000048,57.16363060000003,f,0,1.8574205999993865,None,direct,18,"[14, 16, 14, 20, 19, 20, 18]",7,shifteddirectgaze.png,f,0,1,results8,001,2026-04-13_14h15.55.382,mogelijke versie adaptive staircase builder,,2026.1.3,59.981022004584744,2026-04-13 14h15.55.602584 +0200,
4.5,ecc10pos,left,21,0,21,f,1,2.0170620000008057,None,0,0,0,0,21,0,21,0,57.26710180000009,,,,,,,,,,,,,,,57.25689129999955,57.26710180000009,57.26710180000009,57.26710180000009,58.16348850000031,59.29688189999979,f,1,2.0170620000008057,None,right,19,"[14, 16, 14, 20, 19, 20, 18, 19]",8,shiftedgaze_R_19.png,f,1,1,results8,001,2026-04-13_14h15.55.382,mogelijke versie adaptive staircase builder,,2026.1.3,59.981022004584744,2026-04-13 14h15.55.602584 +0200,
4.5,ecc10pos,left,22,0,22,j,1,1.9662490999999136,None,0,0,0,0,22,0,22,0,59.39796810000007,,,,,,,,,,,,,,,59.38789689999976,59.39796810000007,59.39796810000007,59.39796810000007,60.29661759999908,61.38000389999979,j,1,1.9662490999999136,None,direct,18,"[14, 16, 14, 20, 19, 20, 18, 19]",8,shifteddirectgaze.png,j,1,1,results8,001,2026-04-13_14h15.55.382,mogelijke versie adaptive staircase builder,,2026.1.3,59.981022004584744,2026-04-13 14h15.55.602584 +0200,
4.5,ecc10pos,left,23,0,23,f,1,3.266899399999602,None,0,0,0,0,23,0,23,0,61.47328519999974,,,,,,,,,,,,,,,61.462580100000196,61.47328519999974,61.47328519999974,61.47328519999974,62.37967059999937,64.74664180000036,f,1,3.266899399999602,None,right,17,"[14, 16, 14, 20, 19, 20, 18, 19]",8,shiftedgaze_R_17.png,f,1,1,results8,001,2026-04-13_14h15.55.382,mogelijke versie adaptive staircase builder,,2026.1.3,59.981022004584744,2026-04-13 14h15.55.602584 +0200,
4.5,ecc10pos,left,24,0,24,j,0,1.8917373999993288,None,0,0,0,0,24,0,24,0,64.8404513000005,,,,,,,,,,,,,,,64.82917090000046,64.8404513000005,64.8404513000005,64.8404513000005,65.74631740000041,66.74686429999929,j,0,1.8917373999993288,None,right,16,"[14, 16, 14, 20, 19, 20, 18, 19, 16]",9,shiftedgaze_R_16.png,j,0,1,results8,001,2026-04-13_14h15.55.382,mogelijke versie adaptive staircase builder,,2026.1.3,59.981022004584744,2026-04-13 14h15.55.602584 +0200,
4.5,ecc10pos,left,25,0,25,f,1,2.634711200000311,None,0,0,0,0,25,0,25,0,66.8654205999992,,,,,,,,,,,,,,,66.8538282999998,66.8654205999992,66.8654205999992,66.8654205999992,67.74639000000025,69.51342590000058,f,1,2.634711200000311,None,left,17,"[14, 16, 14, 20, 19, 20, 18, 19, 16, 17]",10,shiftedgaze_L_17.png,f,1,1,results8,001,2026-04-13_14h15.55.382,mogelijke versie adaptive staircase builder,,2026.1.3,59.981022004584744,2026-04-13 14h15.55.602584 +0200,
4.5,ecc10pos,left,26,0,26,j,0,1.8021459999999934,None,0,0,0,0,26,0,26,0,69.6260514000005,,,,,,,,,,,,,,,69.61428390000037,69.6260514000005,69.6260514000005,69.6260514000005,70.51306979999936,71.43014889999904,j,0,1.8021459999999934,None,right,16,"[14, 16, 14, 20, 19, 20, 18, 19, 16, 17, 16]",11,shiftedgaze_R_16.png,j,0,1,results8,001,2026-04-13_14h15.55.382,mogelijke versie adaptive staircase builder,,2026.1.3,59.981022004584744,2026-04-13 14h15.55.602584 +0200,
4.5,ecc10pos,left,27,0,27,j,0,2.7854637000000366,None,0,0,0,0,27,0,27,0,71.52273149999928,,,,,,,,,,,,,,,71.5116565999997,71.52273149999928,71.52273149999928,71.52273149999928,72.42959919999885,74.3130588999993,j,0,2.7854637000000366,None,right,17,"[14, 16, 14, 20, 19, 20, 18, 19, 16, 17, 16]",11,shiftedgaze_R_17.png,j,0,1,results8,001,2026-04-13_14h15.55.382,mogelijke versie adaptive staircase builder,,2026.1.3,59.981022004584744,2026-04-13 14h15.55.602584 +0200,
4.5,ecc10pos,left,28,0,28,f,1,1.7326137999989442,None,0,0,0,0,28,0,28,0,74.43157190000056,,,,,,,,,,,,,,,74.4200880999997,74.43157190000056,74.43157190000056,74.43157190000056,75.3129028000003,76.17967109999881,f,1,1.7326137999989442,None,left,18,"[14, 16, 14, 20, 19, 20, 18, 19, 16, 17, 16, 18]",12,shiftedgaze_L_18.png,f,1,1,results8,001,2026-04-13_14h15.55.382,mogelijke versie adaptive staircase builder,,2026.1.3,59.981022004584744,2026-04-13 14h15.55.602584 +0200,
4.5,ecc10pos,left,29,0,29,j,0,3.093026300000929,None,0,0,0,0,29,0,29,0,76.279207399999,,,,,,,,,,,,,,,76.26821430000018,76.279207399999,76.279207399999,76.279207399999,77.17945539999891,79.37965299999996,j,0,3.093026300000929,None,left,17,"[14, 16, 14, 20, 19, 20, 18, 19, 16, 17, 16, 18, 17]",13,shiftedgaze_L_17.png,j,0,1,results8,001,2026-04-13_14h15.55.382,mogelijke versie adaptive staircase builder,,2026.1.3,59.981022004584744,2026-04-13 14h15.55.602584 +0200,
4.5,ecc10pos,left,30,0,30,j,0,2.3815679000017553,None,0,0,0,0,30,0,30,0,79.47860349999974,,,,,,,,,,,,,,,79.46718419999888,79.47860349999974,79.47860349999974,79.47860349999974,80.3797383000001,81.86311360000036,j,0,2.3815679000017553,None,left,18,"[14, 16, 14, 20, 19, 20, 18, 19, 16, 17, 16, 18, 17]",13,shiftedgaze_L_18.png,j,0,1,results8,001,2026-04-13_14h15.55.382,mogelijke versie adaptive staircase builder,,2026.1.3,59.981022004584744,2026-04-13 14h15.55.602584 +0200,
4.5,ecc10pos,left,31,0,31,j,1,2.316307600000073,None,0,0,0,0,31,0,31,0,81.97587009999916,,,,,,,,,,,,,,,81.96489019999899,81.97587009999916,81.97587009999916,81.97587009999916,82.86288579999928,84.29650409999886,j,1,2.316307600000073,None,direct,19,"[14, 16, 14, 20, 19, 20, 18, 19, 16, 17, 16, 18, 17, 19]",14,shifteddirectgaze.png,j,1,1,results8,001,2026-04-13_14h15.55.382,mogelijke versie adaptive staircase builder,,2026.1.3,59.981022004584744,2026-04-13 14h15.55.602584 +0200,
4.5,ecc10pos,left,32,0,32,f,0,2.908254500000112,None,0,0,0,0,32,0,32,0,84.39194399999906,,,,,,,,,,,,,,,84.38133229999949,84.39194399999906,84.39194399999906,84.39194399999906,85.29620819999946,87.3130086000001,f,0,2.908254500000112,None,direct,18,"[14, 16, 14, 20, 19, 20, 18, 19, 16, 17, 16, 18, 17, 19, 18]",15,shifteddirectgaze.png,f,0,1,results8,001,2026-04-13_14h15.55.382,mogelijke versie adaptive staircase builder,,2026.1.3,59.981022004584744,2026-04-13 14h15.55.602584 +0200,
4.5,ecc10pos,left,33,0,33,j,0,2.8489499000006617,None,0,0,0,0,33,0,33,0,87.4192781999991,,,,,,,,,,,,,,,87.40837520000059,87.4192781999991,87.4192781999991,87.4192781999991,88.31260479999946,90.27971389999948,j,0,2.8489499000006617,None,right,19,"[14, 16, 14, 20, 19, 20, 18, 19, 16, 17, 16, 18, 17, 19, 18]",15,shiftedgaze_R_19.png,j,0,1,results8,001,2026-04-13_14h15.55.382,mogelijke versie adaptive staircase builder,,2026.1.3,59.981022004584744,2026-04-13 14h15.55.602584 +0200,
4.5,ecc10pos,left,34,0,34,j,0,3.599480200000471,None,0,0,0,0,34,0,34,0,90.3805766000005,,,,,,,,,,,,,,,90.37049149999984,90.3805766000005,90.3805766000005,90.3805766000005,91.27935839999918,93.99636559999999,j,0,3.599480200000471,None,right,20,"[14, 16, 14, 20, 19, 20, 18, 19, 16, 17, 16, 18, 17, 19, 18]",15,shiftedgaze_R_20.png,j,0,1,results8,001,2026-04-13_14h15.55.382,mogelijke versie adaptive staircase builder,,2026.1.3,59.981022004584744,2026-04-13 14h15.55.602584 +0200,
4.5,ecc10pos,left,35,0,35,j,0,3.2248373000002175,None,0,0,0,0,35,0,35,0,94.0914214000004,,,,,,,,,,,,,,,94.08065849999912,94.0914214000004,94.0914214000004,94.0914214000004,94.99602899999991,97.32945449999897,j,0,3.2248373000002175,None,right,20,"[14, 16, 14, 20, 19, 20, 18, 19, 16, 17, 16, 18, 17, 19, 18]",15,shiftedgaze_R_20.png,j,0,1,results8,001,2026-04-13_14h15.55.382,mogelijke versie adaptive staircase builder,,2026.1.3,59.981022004584744,2026-04-13 14h15.55.602584 +0200,
4.5,ecc10pos,left,36,0,36,f,1,3.2759117000005062,None,0,0,0,0,36,0,36,0,97.42428859999927,,,,,,,,,,,,,,,97.4128882999994,97.42428859999927,97.42428859999927,97.42428859999927,98.32926479999878,100.71267119999902,f,1,3.2759117000005062,None,right,20,"[14, 16, 14, 20, 19, 20, 18, 19, 16, 17, 16, 18, 17, 19, 18, 20]",16,shiftedgaze_R_20.png,f,1,1,results8,001,2026-04-13_14h15.55.382,mogelijke versie adaptive staircase builder,,2026.1.3,59.981022004584744,2026-04-13 14h15.55.602584 +0200,
4.5,ecc10pos,left,37,0,37,f,1,2.0899601000000985,None,0,0,0,0,37,0,37,0,100.81814959999974,,,,,,,,,,,,,,,100.80673299999944,100.81814959999974,100.81814959999974,100.81814959999974,101.71268749999945,102.91292109999995,f,1,2.0899601000000985,None,right,19,"[14, 16, 14, 20, 19, 20, 18, 19, 16, 17, 16, 18, 17, 19, 18, 20]",16,shiftedgaze_R_19.png,f,1,1,results8,001,2026-04-13_14h15.55.382,mogelijke versie adaptive staircase builder,,2026.1.3,59.981022004584744,2026-04-13 14h15.55.602584 +0200,
4.5,ecc10pos,left,38,0,38,f,0,2.9486852000009094,None,0,0,0,0,38,0,38,0,103.0155651999994,,,,,,,,,,,,,,,103.00286049999886,103.0155651999994,103.0155651999994,103.0155651999994,103.91267119999975,105.97944439999992,f,0,2.9486852000009094,None,direct,18,"[14, 16, 14, 20, 19, 20, 18, 19, 16, 17, 16, 18, 17, 19, 18, 20, 18]",17,shifteddirectgaze.png,f,0,1,results8,001,2026-04-13_14h15.55.382,mogelijke versie adaptive staircase builder,,2026.1.3,59.981022004584744,2026-04-13 14h15.55.602584 +0200,
4.5,ecc10pos,left,39,0,39,f,1,2.6679480000002513,None,0,0,0,0,39,0,39,0,106.09631529999933,,,,,,,,,,,,,,,106.08495640000001,106.09631529999933,106.09631529999933,106.09631529999933,106.9789378000005,108.7794871999995,f,1,2.6679480000002513,None,left,19,"[14, 16, 14, 20, 19, 20, 18, 19, 16, 17, 16, 18, 17, 19, 18, 20, 18, 19]",18,shiftedgaze_L_19.png,f,1,1,results8,001,2026-04-13_14h15.55.382,mogelijke versie adaptive staircase builder,,2026.1.3,59.981022004584744,2026-04-13 14h15.55.602584 +0200,
4.5,ecc10pos,left,40,0,40,j,0,2.6163632000007055,None,0,0,0,0,40,0,40,0,108.87583939999968,,,,,,,,,,,,,,,108.86496540000007,108.87583939999968,108.87583939999968,108.87583939999968,109.7789703999988,111.49596120000024,j,0,2.6163632000007055,None,left,18,"[14, 16, 14, 20, 19, 20, 18, 19, 16, 17, 16, 18, 17, 19, 18, 20, 18, 19, 18]",19,shiftedgaze_L_18.png,j,0,1,results8,001,2026-04-13_14h15.55.382,mogelijke versie adaptive staircase builder,,2026.1.3,59.981022004584744,2026-04-13 14h15.55.602584 +0200,
4.5,ecc10pos,left,41,0,41,j,0,2.010931900000287,None,0,0,0,0,41,0,41,0,111.59334909999961,,,,,,,,,,,,,,,111.58206849999988,111.59334909999961,111.59334909999961,111.59334909999961,112.49570490000042,113.61269989999892,j,0,2.010931900000287,None,left,19,"[14, 16, 14, 20, 19, 20, 18, 19, 16, 17, 16, 18, 17, 19, 18, 20, 18, 19, 18]",19,shiftedgaze_L_19.png,j,0,1,results8,001,2026-04-13_14h15.55.382,mogelijke versie adaptive staircase builder,,2026.1.3,59.981022004584744,2026-04-13 14h15.55.602584 +0200,
4.5,ecc10pos,left,42,0,42,f,0,2.103564400000323,None,0,0,0,0,42,0,42,0,113.72464489999948,,,,,,,,,,,,,,,113.71274199999971,113.72464489999948,113.72464489999948,113.72464489999948,114.61234289999993,115.82930769999984,f,0,2.103564400000323,None,direct,20,"[14, 16, 14, 20, 19, 20, 18, 19, 16, 17, 16, 18, 17, 19, 18, 20, 18, 19, 18]",19,shifteddirectgaze.png,f,0,1,results8,001,2026-04-13_14h15.55.382,mogelijke versie adaptive staircase builder,,2026.1.3,59.981022004584744,2026-04-13 14h15.55.602584 +0200,
4.5,ecc10pos,left,43,0,43,f,0,1.9399744999991526,None,0,0,0,0,43,0,43,0,115.92032800000015,,,,,,,,,,,,,,,115.90895569999884,115.92032800000015,115.92032800000015,115.92032800000015,116.82888509999975,117.86256329999924,f,0,1.9399744999991526,None,direct,20,"[14, 16, 14, 20, 19, 20, 18, 19, 16, 17, 16, 18, 17, 19, 18, 20, 18, 19, 18]",19,shifteddirectgaze.png,f,0,1,results8,001,2026-04-13_14h15.55.382,mogelijke versie adaptive staircase builder,,2026.1.3,59.981022004584744,2026-04-13 14h15.55.602584 +0200,
4.5,ecc10pos,left,44,0,44,f,1,1.6488859999990382,None,0,0,0,0,44,0,44,0,117.97947079999904,,,,,,,,,,,,,,,117.96799749999991,117.97947079999904,117.97947079999904,117.97947079999904,118.86227650000001,119.62926220000008,f,1,1.6488859999990382,None,left,20,"[14, 16, 14, 20, 19, 20, 18, 19, 16, 17, 16, 18, 17, 19, 18, 20, 18, 19, 18, 20]",20,shiftedgaze_L_20.png,f,1,1,results8,001,2026-04-13_14h15.55.382,mogelijke versie adaptive staircase builder,,2026.1.3,59.981022004584744,2026-04-13 14h15.55.602584 +0200,
4.5,ecc10pos,left,45,0,45,f,1,1.7863525999982812,None,0,0,0,0,45,0,45,0,119.73788369999966,,,,,,,,,,,,,,,119.72628729999997,119.73788369999966,119.73788369999966,119.73788369999966,120.62900609999997,121.52919010000005,f,1,1.7863525999982812,None,right,19,"[14, 16, 14, 20, 19, 20, 18, 19, 16, 17, 16, 18, 17, 19, 18, 20, 18, 19, 18, 20]",20,shiftedgaze_R_19.png,f,1,1,results8,001,2026-04-13_14h15.55.382,mogelijke versie adaptive staircase builder,,2026.1.3,59.981022004584744,2026-04-13 14h15.55.602584 +0200,
4.5,ecc10pos,left,46,0,46,f,0,2.54145619999872,None,0,0,0,0,46,0,46,0,121.63079739999921,,,,,,,,,,,,,,,121.6209973999994,121.63079739999921,121.63079739999921,121.63079739999921,122.52887170000031,124.17922929999986,f,0,2.54145619999872,None,direct,18,"[14, 16, 14, 20, 19, 20, 18, 19, 16, 17, 16, 18, 17, 19, 18, 20, 18, 19, 18, 20, 18]",21,shifteddirectgaze.png,f,0,1,results8,001,2026-04-13_14h15.55.382,mogelijke versie adaptive staircase builder,,2026.1.3,59.981022004584744,2026-04-13 14h15.55.602584 +0200,
4.5,ecc10pos,left,47,0,47,j,0,2.030362600000444,None,0,0,0,0,47,0,47,0,124.3018049000002,,,,,,,,,,,,,,,124.28963470000053,124.3018049000002,124.3018049000002,124.3018049000002,125.17886220000037,126.34572449999905,j,0,2.030362600000444,None,left,19,"[14, 16, 14, 20, 19, 20, 18, 19, 16, 17, 16, 18, 17, 19, 18, 20, 18, 19, 18, 20, 18]",21,shiftedgaze_L_19.png,j,0,1,results8,001,2026-04-13_14h15.55.382,mogelijke versie adaptive staircase builder,,2026.1.3,59.981022004584744,2026-04-13 14h15.55.602584 +0200,
4.5,ecc10pos,left,48,0,48,j,1,1.6450131999990845,None,0,0,0,0,48,0,48,0,126.45524209999894,,,,,,,,,,,,,,,126.44395780000013,126.45524209999894,126.45524209999894,126.45524209999894,127.3455154000003,128.11249510000016,j,1,1.6450131999990845,None,direct,20,"[14, 16, 14, 20, 19, 20, 18, 19, 16, 17, 16, 18, 17, 19, 18, 20, 18, 19, 18, 20, 18, 20]",22,shifteddirectgaze.png,j,1,1,results8,001,2026-04-13_14h15.55.382,mogelijke versie adaptive staircase builder,,2026.1.3,59.981022004584744,2026-04-13 14h15.55.602584 +0200,
4.5,ecc10pos,left,49,0,49,f,1,2.047751199999766,None,0,0,0,0,49,0,49,0,128.22844540000006,,,,,,,,,,,,,,,128.21667179999895,128.22844540000006,128.22844540000006,128.22844540000006,129.11198849999892,130.27908209999987,f,1,2.047751199999766,None,left,19,"[14, 16, 14, 20, 19, 20, 18, 19, 16, 17, 16, 18, 17, 19, 18, 20, 18, 19, 18, 20, 18, 20]",22,shiftedgaze_L_19.png,f,1,1,results8,001,2026-04-13_14h15.55.382,mogelijke versie adaptive staircase builder,,2026.1.3,59.981022004584744,2026-04-13 14h15.55.602584 +0200,
4.5,ecc10pos,left,50,0,50,f,1,1.6487668999998277,None,0,0,0,0,50,0,50,0,130.38888579999912,,,,,,,,,,,,,,,130.37734629999977,130.38888579999912,130.38888579999912,130.38888579999912,131.2787606999991,132.04579629999898,f,1,1.6487668999998277,None,right,18,"[14, 16, 14, 20, 19, 20, 18, 19, 16, 17, 16, 18, 17, 19, 18, 20, 18, 19, 18, 20, 18, 20]",22,shiftedgaze_R_18.png,f,1,1,results8,001,2026-04-13_14h15.55.382,mogelijke versie adaptive staircase builder,,2026.1.3,59.981022004584744,2026-04-13 14h15.55.602584 +0200,
4.5,ecc10pos,left,51,0,51,f,0,2.12155359999997,None,0,0,0,0,51,0,51,0,132.13867949999985,,,,,,,,,,,,,,,132.1272423999999,132.13867949999985,132.13867949999985,132.13867949999985,133.0455253,134.2624029999988,f,0,2.12155359999997,None,direct,17,"[14, 16, 14, 20, 19, 20, 18, 19, 16, 17, 16, 18, 17, 19, 18, 20, 18, 19, 18, 20, 18, 20, 17]",23,shifteddirectgaze.png,f,0,1,results8,001,2026-04-13_14h15.55.382,mogelijke versie adaptive staircase builder,,2026.1.3,59.981022004584744,2026-04-13 14h15.55.602584 +0200,
4.5,ecc10pos,left,52,0,52,j,1,2.1318520000004355,None,0,0,0,0,52,0,52,0,134.3523043999994,,,,,,,,,,,,,,,134.341771899999,134.3523043999994,134.3523043999994,134.3523043999994,135.26215500000035,136.495557799999,j,1,2.1318520000004355,None,direct,18,"[14, 16, 14, 20, 19, 20, 18, 19, 16, 17, 16, 18, 17, 19, 18, 20, 18, 19, 18, 20, 18, 20, 17, 18]",24,shifteddirectgaze.png,j,1,1,results8,001,2026-04-13_14h15.55.382,mogelijke versie adaptive staircase builder,,2026.1.3,59.981022004584744,2026-04-13 14h15.55.602584 +0200,
4.5,ecc10pos,left,53,0,53,j,0,1.9449573999991117,None,0,0,0,0,53,0,53,0,136.58737999999903,,,,,,,,,,,,,,,136.5766588000006,136.58737999999903,136.58737999999903,136.58737999999903,137.49522409999918,138.5459222999998,j,0,1.9449573999991117,None,right,17,"[14, 16, 14, 20, 19, 20, 18, 19, 16, 17, 16, 18, 17, 19, 18, 20, 18, 19, 18, 20, 18, 20, 17, 18, 17]",25,shiftedgaze_R_17.png,j,0,1,results8,001,2026-04-13_14h15.55.382,mogelijke versie adaptive staircase builder,,2026.1.3,59.981022004584744,2026-04-13 14h15.55.602584 +0200,
4.5,ecc10pos,left,54,0,54,j,0,1.9268245000002935,None,0,0,0,0,54,0,54,0,138.63734269999986,,,,,,,,,,,,,,,138.62690920000023,138.63734269999986,138.63734269999986,138.63734269999986,139.54548070000055,140.5790051999993,j,0,1.9268245000002935,None,right,18,"[14, 16, 14, 20, 19, 20, 18, 19, 16, 17, 16, 18, 17, 19, 18, 20, 18, 19, 18, 20, 18, 20, 17, 18, 17]",25,shiftedgaze_R_18.png,j,0,1,results8,001,2026-04-13_14h15.55.382,mogelijke versie adaptive staircase builder,,2026.1.3,59.981022004584744,2026-04-13 14h15.55.602584 +0200,
4.5,ecc10pos,left,55,0,55,j,0,2.5118029000004753,None,0,0,0,0,55,0,55,0,140.69243509999978,,,,,,,,,,,,,,,140.68117429999984,140.69243509999978,140.69243509999978,140.69243509999978,141.57858619999934,143.2123257000003,j,0,2.5118029000004753,None,left,19,"[14, 16, 14, 20, 19, 20, 18, 19, 16, 17, 16, 18, 17, 19, 18, 20, 18, 19, 18, 20, 18, 20, 17, 18, 17]",25,shiftedgaze_L_19.png,j,0,1,results8,001,2026-04-13_14h15.55.382,mogelijke versie adaptive staircase builder,,2026.1.3,59.981022004584744,2026-04-13 14h15.55.602584 +0200,
4.5,ecc10pos,left,56,0,56,f,1,2.311986499998966,None,0,0,0,0,56,0,56,0,143.30892949999907,,,,,,,,,,,,,,,143.2975922000005,143.30892949999907,143.30892949999907,143.30892949999907,144.21189369999956,145.6288913999997,f,1,2.311986499998966,None,left,20,"[14, 16, 14, 20, 19, 20, 18, 19, 16, 17, 16, 18, 17, 19, 18, 20, 18, 19, 18, 20, 18, 20, 17, 18, 17, 20]",26,shiftedgaze_L_20.png,f,1,1,results8,001,2026-04-13_14h15.55.382,mogelijke versie adaptive staircase builder,,2026.1.3,59.981022004584744,2026-04-13 14h15.55.602584 +0200,
4.5,ecc10pos,left,57,0,57,j,0,2.351548000000548,None,0,0,0,0,57,0,57,0,145.72475329999907,,,,,,,,,,,,,,,145.71360540000023,145.72475329999907,145.72475329999907,145.72475329999907,146.6284039000002,148.0789593999998,j,0,2.351548000000548,None,left,19,"[14, 16, 14, 20, 19, 20, 18, 19, 16, 17, 16, 18, 17, 19, 18, 20, 18, 19, 18, 20, 18, 20, 17, 18, 17, 20, 19]",27,shiftedgaze_L_19.png,j,0,1,results8,001,2026-04-13_14h15.55.382,mogelijke versie adaptive staircase builder,,2026.1.3,59.981022004584744,2026-04-13 14h15.55.602584 +0200,
4.5,ecc10pos,left,58,0,58,f,1,2.747436999999991,None,0,0,0,0,58,0,58,0,148.1928158999999,,,,,,,,,,,,,,,148.178638899999,148.1928158999999,148.1928158999999,148.1928158999999,149.07862899999964,150.94529800000055,f,1,2.747436999999991,None,right,20,"[14, 16, 14, 20, 19, 20, 18, 19, 16, 17, 16, 18, 17, 19, 18, 20, 18, 19, 18, 20, 18, 20, 17, 18, 17, 20, 19, 20]",28,shiftedgaze_R_20.png,f,1,1,results8,001,2026-04-13_14h15.55.382,mogelijke versie adaptive staircase builder,,2026.1.3,59.981022004584744,2026-04-13 14h15.55.602584 +0200,
4.5,ecc10pos,left,59,0,59,f,0,2.3122691999997187,None,0,0,0,0,59,0,59,0,151.03609030000007,,,,,,,,,,,,,,,151.02554860000055,151.03609030000007,151.03609030000007,151.03609030000007,151.9450930999992,153.36216609999974,f,0,2.3122691999997187,None,direct,19,"[14, 16, 14, 20, 19, 20, 18, 19, 16, 17, 16, 18, 17, 19, 18, 20, 18, 19, 18, 20, 18, 20, 17, 18, 17, 20, 19, 20, 19]",29,shifteddirectgaze.png,f,0,1,results8,001,2026-04-13_14h15.55.382,mogelijke versie adaptive staircase builder,,2026.1.3,59.981022004584744,2026-04-13 14h15.55.602584 +0200,
4.5,ecc10pos,left,0,0,0,,,,,0,0,0,0,,,,,,,,,,,,,,,,,,,,,,,,,,,,,,,,,,,,,,results8,001,2026-04-13_14h15.55.382,mogelijke versie adaptive staircase builder,,2026.1.3,59.981022004584744,2026-04-13 14h15.55.602584 +0200,
12.5,ecc0,mid,0,0,0,j,0,2.0564350000004197,None,0,1,1,1,0,0,0,0,153.45980899999995,,,,,,,,,,,,,153.3647149999997,153.36475059999975,153.44840769999973,153.45980899999995,154.37844790000054,153.45980899999995,153.45980899999995,155.52869049999936,j,0,2.0564350000004197,None,left,20,[],0,gaze_L_20.png,j,0,2,results8,001,2026-04-13_14h15.55.382,mogelijke versie adaptive staircase builder,,2026.1.3,59.981022004584744,2026-04-13 14h15.55.602584 +0200,
12.5,ecc0,mid,1,0,1,j,0,2.0618381000003865,None,0,1,1,1,1,0,1,0,155.62240550000024,,,,,,,,,,,,,,,155.61123869999938,155.62240550000024,156.5284427000006,155.62240550000024,155.62240550000024,157.6953754999995,j,0,2.0618381000003865,None,right,20,[],0,gaze_R_20.png,j,0,2,results8,001,2026-04-13_14h15.55.382,mogelijke versie adaptive staircase builder,,2026.1.3,59.981022004584744,2026-04-13 14h15.55.602584 +0200,
12.5,ecc0,mid,2,0,2,j,1,2.455110400000194,None,0,1,1,1,2,0,2,0,157.78911549999975,,,,,,,,,,,,,,,157.77644729999884,157.78911549999975,158.69516069999918,157.78911549999975,157.78911549999975,160.24535970000034,j,1,2.455110400000194,None,direct,20,[20],1,direct_gaze.png,j,1,2,results8,001,2026-04-13_14h15.55.382,mogelijke versie adaptive staircase builder,,2026.1.3,59.981022004584744,2026-04-13 14h15.55.602584 +0200,
12.5,ecc0,mid,3,0,3,f,1,2.3313185000006342,None,0,1,1,1,3,0,3,0,160.33811830000013,,,,,,,,,,,,,,,160.32726309999998,160.33811830000013,161.24505940000017,160.33811830000013,160.33811830000013,162.67867490000026,f,1,2.3313185000006342,None,right,19,[20],1,gaze_R_19.png,f,1,2,results8,001,2026-04-13_14h15.55.382,mogelijke versie adaptive staircase builder,,2026.1.3,59.981022004584744,2026-04-13 14h15.55.602584 +0200,
12.5,ecc0,mid,4,0,4,j,1,1.776708299999882,None,0,1,1,1,4,0,4,0,162.77147449999939,,,,,,,,,,,,,,,162.76056529999914,162.77147449999939,163.67840609999985,162.77147449999939,162.77147449999939,164.5618856000001,j,1,1.776708299999882,None,direct,18,[20],1,direct_gaze.png,j,1,2,results8,001,2026-04-13_14h15.55.382,mogelijke versie adaptive staircase builder,,2026.1.3,59.981022004584744,2026-04-13 14h15.55.602584 +0200,
12.5,ecc0,mid,5,0,5,f,1,2.9837470999991638,None,0,1,1,1,5,0,5,0,164.6605082999995,,,,,,,,,,,,,,,164.6494686999995,164.6605082999995,165.56171969999923,164.6605082999995,164.6605082999995,167.6452135999989,f,1,2.9837470999991638,None,right,17,[20],1,gaze_R_17.png,f,1,2,results8,001,2026-04-13_14h15.55.382,mogelijke versie adaptive staircase builder,,2026.1.3,59.981022004584744,2026-04-13 14h15.55.602584 +0200,
12.5,ecc0,mid,6,0,6,f,1,2.59004989999994,None,0,1,1,1,6,0,6,0,167.74213319999944,,,,,,,,,,,,,,,167.73181579999982,167.74213319999944,168.6449493,167.74213319999944,167.74213319999944,170.34518949999983,f,1,2.59004989999994,None,right,16,[20],1,gaze_R_16.png,f,1,2,results8,001,2026-04-13_14h15.55.382,mogelijke versie adaptive staircase builder,,2026.1.3,59.981022004584744,2026-04-13 14h15.55.602584 +0200,
12.5,ecc0,mid,7,0,7,f,1,2.5724246999998286,None,0,1,1,1,7,0,7,0,170.4477941999994,,,,,,,,,,,,,,,170.43687859999955,170.4477941999994,171.3448384000003,170.4477941999994,170.4477941999994,173.02848640000047,f,1,2.5724246999998286,None,left,15,[20],1,gaze_L_15.png,f,1,2,results8,001,2026-04-13_14h15.55.382,mogelijke versie adaptive staircase builder,,2026.1.3,59.981022004584744,2026-04-13 14h15.55.602584 +0200,
12.5,ecc0,mid,8,0,8,j,0,2.195891900000788,None,0,1,1,1,8,0,8,0,173.12828499999887,,,,,,,,,,,,,,,173.11689409999963,173.12828499999887,174.0282618000001,173.12828499999887,173.12828499999887,175.32843519999915,j,0,2.195891900000788,None,left,14,"[20, 14]",2,gaze_L_14.png,j,0,2,results8,001,2026-04-13_14h15.55.382,mogelijke versie adaptive staircase builder,,2026.1.3,59.981022004584744,2026-04-13 14h15.55.602584 +0200,
12.5,ecc0,mid,9,0,9,j,0,2.775651999998445,None,0,1,1,1,9,0,9,0,175.42858820000038,,,,,,,,,,,,,,,175.41820609999922,175.42858820000038,176.3281809,175.42858820000038,175.42858820000038,178.2117488999993,j,0,2.775651999998445,None,right,15,"[20, 14]",2,gaze_R_15.png,j,0,2,results8,001,2026-04-13_14h15.55.382,mogelijke versie adaptive staircase builder,,2026.1.3,59.981022004584744,2026-04-13 14h15.55.602584 +0200,
12.5,ecc0,mid,10,0,10,j,1,3.075855600000068,None,0,1,1,1,10,0,10,0,178.30429109999932,,,,,,,,,,,,,,,178.29317339999943,178.30429109999932,179.21145500000057,178.30429109999932,178.30429109999932,181.3950463000001,j,1,3.075855600000068,None,direct,16,"[20, 14, 16]",3,direct_gaze.png,j,1,2,results8,001,2026-04-13_14h15.55.382,mogelijke versie adaptive staircase builder,,2026.1.3,59.981022004584744,2026-04-13 14h15.55.602584 +0200,
12.5,ecc0,mid,11,0,11,f,0,2.9809513999989576,None,0,1,1,1,11,0,11,0,181.48796310000034,,,,,,,,,,,,,,,181.47765009999966,181.48796310000034,182.39493129999937,181.48796310000034,181.48796310000034,184.47827809999944,f,0,2.9809513999989576,None,direct,15,"[20, 14, 16, 15]",4,direct_gaze.png,f,0,2,results8,001,2026-04-13_14h15.55.382,mogelijke versie adaptive staircase builder,,2026.1.3,59.981022004584744,2026-04-13 14h15.55.602584 +0200,
12.5,ecc0,mid,12,0,12,j,1,2.123291199999585,None,0,1,1,1,12,0,12,0,184.56893279999895,,,,,,,,,,,,,,,184.55839449999985,184.56893279999895,185.4778581999999,184.56893279999895,184.56893279999895,186.69475950000015,j,1,2.123291199999585,None,direct,16,"[20, 14, 16, 15, 16]",5,direct_gaze.png,j,1,2,results8,001,2026-04-13_14h15.55.382,mogelijke versie adaptive staircase builder,,2026.1.3,59.981022004584744,2026-04-13 14h15.55.602584 +0200,
12.5,ecc0,mid,13,0,13,j,1,2.169093399999838,None,0,1,1,1,13,0,13,0,186.78706389999934,,,,,,,,,,,,,,,186.7761587999994,186.78706389999934,187.69459379999898,186.78706389999934,186.78706389999934,188.96137139999882,j,1,2.169093399999838,None,direct,15,"[20, 14, 16, 15, 16]",5,direct_gaze.png,j,1,2,results8,001,2026-04-13_14h15.55.382,mogelijke versie adaptive staircase builder,,2026.1.3,59.981022004584744,2026-04-13 14h15.55.602584 +0200,
12.5,ecc0,mid,14,0,14,f,1,2.454180600001564,None,0,1,1,1,14,0,14,0,189.05404640000052,,,,,,,,,,,,,,,189.04357580000033,189.05404640000052,189.96111100000053,189.05404640000052,189.05404640000052,191.51154619999943,f,1,2.454180600001564,None,left,14,"[20, 14, 16, 15, 16]",5,gaze_L_14.png,f,1,2,results8,001,2026-04-13_14h15.55.382,mogelijke versie adaptive staircase builder,,2026.1.3,59.981022004584744,2026-04-13 14h15.55.602584 +0200,
12.5,ecc0,mid,15,0,15,f,1,1.9941978999995627,None,0,1,1,1,15,0,15,0,191.61008109999966,,,,,,,,,,,,,,,191.5991997000001,191.61008109999966,192.51107839999895,191.61008109999966,191.61008109999966,193.61160519999976,f,1,1.9941978999995627,None,left,13,"[20, 14, 16, 15, 16]",5,gaze_L_13.png,f,1,2,results8,001,2026-04-13_14h15.55.382,mogelijke versie adaptive staircase builder,,2026.1.3,59.981022004584744,2026-04-13 14h15.55.602584 +0200,
12.5,ecc0,mid,16,0,16,j,0,2.0131239000002097,None,0,1,1,1,16,0,16,0,193.71096079999916,,,,,,,,,,,,,,,193.69989469999928,193.71096079999916,194.61102889999893,193.71096079999916,193.71096079999916,195.72798949999924,j,0,2.0131239000002097,None,right,12,"[20, 14, 16, 15, 16, 12]",6,gaze_R_12.png,j,0,2,results8,001,2026-04-13_14h15.55.382,mogelijke versie adaptive staircase builder,,2026.1.3,59.981022004584744,2026-04-13 14h15.55.602584 +0200,
12.5,ecc0,mid,17,0,17,j,1,1.9364048999996157,None,0,1,1,1,17,0,17,0,195.8197440999993,,,,,,,,,,,,,,,195.8095033999998,195.8197440999993,196.72763719999966,195.8197440999993,195.8197440999993,197.7614555,j,1,1.9364048999996157,None,direct,13,"[20, 14, 16, 15, 16, 12, 13]",7,direct_gaze.png,j,1,2,results8,001,2026-04-13_14h15.55.382,mogelijke versie adaptive staircase builder,,2026.1.3,59.981022004584744,2026-04-13 14h15.55.602584 +0200,
12.5,ecc0,mid,18,0,18,f,0,1.9735173999997642,None,0,1,1,1,18,0,18,0,197.8546239999996,,,,,,,,,,,,,,,197.84349250000014,197.8546239999996,198.7613437,197.8546239999996,197.8546239999996,199.84452280000005,f,0,1.9735173999997642,None,direct,12,"[20, 14, 16, 15, 16, 12, 13, 12]",8,direct_gaze.png,f,0,2,results8,001,2026-04-13_14h15.55.382,mogelijke versie adaptive staircase builder,,2026.1.3,59.981022004584744,2026-04-13 14h15.55.602584 +0200,
12.5,ecc0,mid,19,0,19,j,1,2.1714757999998255,None,0,1,1,1,19,0,19,0,199.93674269999974,,,,,,,,,,,,,,,199.92407090000052,199.93674269999974,200.8443088999993,199.93674269999974,199.93674269999974,202.1113349999996,j,1,2.1714757999998255,None,direct,13,"[20, 14, 16, 15, 16, 12, 13, 12, 13]",9,direct_gaze.png,j,1,2,results8,001,2026-04-13_14h15.55.382,mogelijke versie adaptive staircase builder,,2026.1.3,59.981022004584744,2026-04-13 14h15.55.602584 +0200,
12.5,ecc0,mid,20,0,20,j,0,1.8313347000002977,None,0,1,1,1,20,0,20,0,202.20499729999938,,,,,,,,,,,,,,,202.1942536000006,202.20499729999938,203.11107429999902,202.20499729999938,202.20499729999938,204.0446656999993,j,0,1.8313347000002977,None,right,12,"[20, 14, 16, 15, 16, 12, 13, 12, 13, 12]",10,gaze_R_12.png,j,0,2,results8,001,2026-04-13_14h15.55.382,mogelijke versie adaptive staircase builder,,2026.1.3,59.981022004584744,2026-04-13 14h15.55.602584 +0200,
12.5,ecc0,mid,21,0,21,j,1,1.6328317000006791,None,0,1,1,1,21,0,21,0,204.13931769999908,,,,,,,,,,,,,,,204.12855920000038,204.13931769999908,205.04446259999895,204.13931769999908,204.13931769999908,205.7779948999996,j,1,1.6328317000006791,None,direct,13,"[20, 14, 16, 15, 16, 12, 13, 12, 13, 12, 13]",11,direct_gaze.png,j,1,2,results8,001,2026-04-13_14h15.55.382,mogelijke versie adaptive staircase builder,,2026.1.3,59.981022004584744,2026-04-13 14h15.55.602584 +0200,
12.5,ecc0,mid,22,0,22,j,1,1.6940045000010286,None,0,1,1,1,22,0,22,0,205.87021999999888,,,,,,,,,,,,,,,205.85996669999986,205.87021999999888,206.77770729999975,205.87021999999888,205.87021999999888,207.57792789999985,j,1,1.6940045000010286,None,direct,12,"[20, 14, 16, 15, 16, 12, 13, 12, 13, 12, 13]",11,direct_gaze.png,j,1,2,results8,001,2026-04-13_14h15.55.382,mogelijke versie adaptive staircase builder,,2026.1.3,59.981022004584744,2026-04-13 14h15.55.602584 +0200,
12.5,ecc0,mid,23,0,23,j,0,2.1408222999998543,None,0,1,1,1,23,0,23,0,207.67932939999992,,,,,,,,,,,,,,,207.66851139999926,207.67932939999992,208.57781930000056,207.67932939999992,207.67932939999992,209.82807259999936,j,0,2.1408222999998543,None,left,11,"[20, 14, 16, 15, 16, 12, 13, 12, 13, 12, 13, 11]",12,gaze_L_11.png,j,0,2,results8,001,2026-04-13_14h15.55.382,mogelijke versie adaptive staircase builder,,2026.1.3,59.981022004584744,2026-04-13 14h15.55.602584 +0200,
12.5,ecc0,mid,24,0,24,f,1,2.9840403999987757,None,0,1,1,1,24,0,24,0,209.92409939999925,,,,,,,,,,,,,,,209.9126959999994,209.92409939999925,210.8277175000003,209.92409939999925,209.92409939999925,212.91125309999916,f,1,2.9840403999987757,None,right,12,"[20, 14, 16, 15, 16, 12, 13, 12, 13, 12, 13, 11, 12]",13,gaze_R_12.png,f,1,2,results8,001,2026-04-13_14h15.55.382,mogelijke versie adaptive staircase builder,,2026.1.3,59.981022004584744,2026-04-13 14h15.55.602584 +0200,
12.5,ecc0,mid,25,0,25,j,1,1.7564185000010184,None,0,1,1,1,25,0,25,0,212.9997975999995,,,,,,,,,,,,,,,212.98877390000052,212.9997975999995,213.9110125999996,212.9997975999995,212.9997975999995,214.76115500000014,j,1,1.7564185000010184,None,direct,11,"[20, 14, 16, 15, 16, 12, 13, 12, 13, 12, 13, 11, 12]",13,direct_gaze.png,j,1,2,results8,001,2026-04-13_14h15.55.382,mogelijke versie adaptive staircase builder,,2026.1.3,59.981022004584744,2026-04-13 14h15.55.602584 +0200,
12.5,ecc0,mid,26,0,26,j,0,1.9511141999992105,None,0,1,1,1,26,0,26,0,214.86100540000007,,,,,,,,,,,,,,,214.84987869999895,214.86100540000007,215.76091649999944,214.86100540000007,214.86100540000007,216.82787719999942,j,0,1.9511141999992105,None,right,10,"[20, 14, 16, 15, 16, 12, 13, 12, 13, 12, 13, 11, 12, 10]",14,gaze_R_10.png,j,0,2,results8,001,2026-04-13_14h15.55.382,mogelijke versie adaptive staircase builder,,2026.1.3,59.981022004584744,2026-04-13 14h15.55.602584 +0200,
12.5,ecc0,mid,27,0,27,j,0,1.9322599000006448,None,0,1,1,1,27,0,27,0,216.92793899999924,,,,,,,,,,,,,,,216.91734619999988,216.92793899999924,217.82763049999994,216.92793899999924,216.92793899999924,218.86117569999988,j,0,1.9322599000006448,None,right,11,"[20, 14, 16, 15, 16, 12, 13, 12, 13, 12, 13, 11, 12, 10]",14,gaze_R_11.png,j,0,2,results8,001,2026-04-13_14h15.55.382,mogelijke versie adaptive staircase builder,,2026.1.3,59.981022004584744,2026-04-13 14h15.55.602584 +0200,
12.5,ecc0,mid,28,0,28,j,0,3.006050399999367,None,0,1,1,1,28,0,28,0,218.95811180000055,,,,,,,,,,,,,,,218.94788879999942,218.95811180000055,219.86077040000055,218.95811180000055,218.95811180000055,221.97769440000047,j,0,3.006050399999367,None,left,12,"[20, 14, 16, 15, 16, 12, 13, 12, 13, 12, 13, 11, 12, 10]",14,gaze_L_12.png,j,0,2,results8,001,2026-04-13_14h15.55.382,mogelijke versie adaptive staircase builder,,2026.1.3,59.981022004584744,2026-04-13 14h15.55.602584 +0200,
12.5,ecc0,mid,29,0,29,j,0,3.04912080000031,None,0,1,1,1,29,0,29,0,222.07504849999896,,,,,,,,,,,,,,,222.06383370000003,222.07504849999896,222.97725779999928,222.07504849999896,222.07504849999896,225.1275573999992,j,0,3.04912080000031,None,right,13,"[20, 14, 16, 15, 16, 12, 13, 12, 13, 12, 13, 11, 12, 10]",14,gaze_R_13.png,j,0,2,results8,001,2026-04-13_14h15.55.382,mogelijke versie adaptive staircase builder,,2026.1.3,59.981022004584744,2026-04-13 14h15.55.602584 +0200,
12.5,ecc0,mid,30,0,30,f,1,1.3859030000003258,None,0,1,1,1,30,0,30,0,225.21832709999944,,,,,,,,,,,,,,,225.20784999999887,225.21832709999944,226.12737930000003,225.21832709999944,225.21832709999944,226.61104469999918,f,1,1.3859030000003258,None,left,14,"[20, 14, 16, 15, 16, 12, 13, 12, 13, 12, 13, 11, 12, 10, 14]",15,gaze_L_14.png,f,1,2,results8,001,2026-04-13_14h15.55.382,mogelijke versie adaptive staircase builder,,2026.1.3,59.981022004584744,2026-04-13 14h15.55.602584 +0200,
12.5,ecc0,mid,31,0,31,f,1,1.733253300000797,None,0,1,1,1,31,0,31,0,226.70301269999982,,,,,,,,,,,,,,,226.69280570000046,226.70301269999982,227.6108067999994,226.70301269999982,226.70301269999982,228.4445642999999,f,1,1.733253300000797,None,left,13,"[20, 14, 16, 15, 16, 12, 13, 12, 13, 12, 13, 11, 12, 10, 14]",15,gaze_L_13.png,f,1,2,results8,001,2026-04-13_14h15.55.382,mogelijke versie adaptive staircase builder,,2026.1.3,59.981022004584744,2026-04-13 14h15.55.602584 +0200,
12.5,ecc0,mid,32,0,32,f,1,1.7721915999991324,None,0,1,1,1,32,0,32,0,229.20789419999892,,,,,,,,,,,,,,,229.19668189999902,229.20789419999892,230.1105263999998,229.20789419999892,229.20789419999892,230.9941963000001,f,1,1.7721915999991324,None,right,12,"[20, 14, 16, 15, 16, 12, 13, 12, 13, 12, 13, 11, 12, 10, 14]",15,gaze_R_12.png,f,1,2,results8,001,2026-04-13_14h15.55.382,mogelijke versie adaptive staircase builder,,2026.1.3,59.981022004584744,2026-04-13 14h15.55.602584 +0200,
12.5,ecc0,mid,33,0,33,j,0,1.4540483000000677,None,0,1,1,1,33,0,33,0,231.09411829999954,,,,,,,,,,,,,,,231.08383879999928,231.09411829999954,231.99394439999924,231.09411829999954,231.09411829999954,232.56092519999947,j,0,1.4540483000000677,None,right,11,"[20, 14, 16, 15, 16, 12, 13, 12, 13, 12, 13, 11, 12, 10, 14, 11]",16,gaze_R_11.png,j,0,2,results8,001,2026-04-13_14h15.55.382,mogelijke versie adaptive staircase builder,,2026.1.3,59.981022004584744,2026-04-13 14h15.55.602584 +0200,
12.5,ecc0,mid,34,0,34,f,1,2.367120900000373,None,0,1,1,1,34,0,34,0,232.661000099999,,,,,,,,,,,,,,,232.6502201000003,232.661000099999,233.56062139999995,232.661000099999,232.661000099999,235.04420589999972,f,1,2.367120900000373,None,right,12,"[20, 14, 16, 15, 16, 12, 13, 12, 13, 12, 13, 11, 12, 10, 14, 11, 12]",17,gaze_R_12.png,f,1,2,results8,001,2026-04-13_14h15.55.382,mogelijke versie adaptive staircase builder,,2026.1.3,59.981022004584744,2026-04-13 14h15.55.602584 +0200,
12.5,ecc0,mid,35,0,35,f,1,1.8124840000000404,None,0,1,1,1,35,0,35,0,235.13592009999957,,,,,,,,,,,,,,,235.12564819999898,235.13592009999957,236.04423580000002,235.13592009999957,235.13592009999957,236.96074509999926,f,1,1.8124840000000404,None,right,11,"[20, 14, 16, 15, 16, 12, 13, 12, 13, 12, 13, 11, 12, 10, 14, 11, 12]",17,gaze_R_11.png,f,1,2,results8,001,2026-04-13_14h15.55.382,mogelijke versie adaptive staircase builder,,2026.1.3,59.981022004584744,2026-04-13 14h15.55.602584 +0200,
12.5,ecc0,mid,36,0,36,f,1,3.495122399999673,None,0,1,1,1,36,0,36,0,237.0610158999989,,,,,,,,,,,,,,,237.05051439999988,237.0610158999989,237.96074090000002,237.0610158999989,237.0610158999989,240.56079539999882,f,1,3.495122399999673,None,right,10,"[20, 14, 16, 15, 16, 12, 13, 12, 13, 12, 13, 11, 12, 10, 14, 11, 12]",17,gaze_R_10.png,f,1,2,results8,001,2026-04-13_14h15.55.382,mogelijke versie adaptive staircase builder,,2026.1.3,59.981022004584744,2026-04-13 14h15.55.602584 +0200,
12.5,ecc0,mid,37,0,37,j,0,2.544941699999981,None,0,1,1,1,37,0,37,0,240.67511899999954,,,,,,,,,,,,,,,240.66171290000057,240.67511899999954,241.56054959999892,240.67511899999954,240.67511899999954,243.2275200999993,j,0,2.544941699999981,None,right,9,"[20, 14, 16, 15, 16, 12, 13, 12, 13, 12, 13, 11, 12, 10, 14, 11, 12, 9]",18,gaze_R_9.png,j,0,2,results8,001,2026-04-13_14h15.55.382,mogelijke versie adaptive staircase builder,,2026.1.3,59.981022004584744,2026-04-13 14h15.55.602584 +0200,
12.5,ecc0,mid,38,0,38,j,0,2.2407062999991467,None,0,1,1,1,38,0,38,0,243.33145700000023,,,,,,,,,,,,,,,243.32032400000026,243.33145700000023,244.22715470000003,243.33145700000023,243.33145700000023,245.57732980000037,j,0,2.2407062999991467,None,right,10,"[20, 14, 16, 15, 16, 12, 13, 12, 13, 12, 13, 11, 12, 10, 14, 11, 12, 9]",18,gaze_R_10.png,j,0,2,results8,001,2026-04-13_14h15.55.382,mogelijke versie adaptive staircase builder,,2026.1.3,59.981022004584744,2026-04-13 14h15.55.602584 +0200,
12.5,ecc0,mid,39,0,39,f,0,2.357842499999606,None,0,1,1,1,39,0,39,0,245.67851990000054,,,,,,,,,,,,,,,245.66693829999895,245.67851990000054,246.57699820000016,245.67851990000054,245.67851990000054,248.0439468000004,f,0,2.357842499999606,None,direct,11,"[20, 14, 16, 15, 16, 12, 13, 12, 13, 12, 13, 11, 12, 10, 14, 11, 12, 9]",18,direct_gaze.png,f,0,2,results8,001,2026-04-13_14h15.55.382,mogelijke versie adaptive staircase builder,,2026.1.3,59.981022004584744,2026-04-13 14h15.55.602584 +0200,
12.5,ecc0,mid,40,0,40,j,0,2.9567329000001337,None,0,1,1,1,40,0,40,0,248.14387910000005,,,,,,,,,,,,,,,248.13343329999952,248.14387910000005,249.04385419999926,248.14387910000005,248.14387910000005,251.11060980000002,j,0,2.9567329000001337,None,left,12,"[20, 14, 16, 15, 16, 12, 13, 12, 13, 12, 13, 11, 12, 10, 14, 11, 12, 9]",18,gaze_L_12.png,j,0,2,results8,001,2026-04-13_14h15.55.382,mogelijke versie adaptive staircase builder,,2026.1.3,59.981022004584744,2026-04-13 14h15.55.602584 +0200,
12.5,ecc0,mid,41,0,41,j,1,1.7069914000003337,None,0,1,1,1,41,0,41,0,251.20124319999923,,,,,,,,,,,,,,,251.19090759999926,251.20124319999923,252.11038929999995,251.20124319999923,251.20124319999923,252.91059320000022,j,1,1.7069914000003337,None,direct,13,"[20, 14, 16, 15, 16, 12, 13, 12, 13, 12, 13, 11, 12, 10, 14, 11, 12, 9, 13]",19,direct_gaze.png,j,1,2,results8,001,2026-04-13_14h15.55.382,mogelijke versie adaptive staircase builder,,2026.1.3,59.981022004584744,2026-04-13 14h15.55.602584 +0200,
12.5,ecc0,mid,42,0,42,j,1,2.6730695000005653,None,0,1,1,1,42,0,42,0,253.00317689999974,,,,,,,,,,,,,,,252.9914276999989,253.00317689999974,253.91029999999955,253.00317689999974,253.00317689999974,255.6773291999998,j,1,2.6730695000005653,None,direct,12,"[20, 14, 16, 15, 16, 12, 13, 12, 13, 12, 13, 11, 12, 10, 14, 11, 12, 9, 13]",19,direct_gaze.png,j,1,2,results8,001,2026-04-13_14h15.55.382,mogelijke versie adaptive staircase builder,,2026.1.3,59.981022004584744,2026-04-13 14h15.55.602584 +0200,
12.5,ecc0,mid,43,0,43,f,0,2.5409842999997636,None,0,1,1,1,43,0,43,0,255.76725719999922,,,,,,,,,,,,,,,255.75698179999927,255.76725719999922,256.6770964999996,255.76725719999922,255.76725719999922,258.3105335,f,0,2.5409842999997636,None,direct,11,"[20, 14, 16, 15, 16, 12, 13, 12, 13, 12, 13, 11, 12, 10, 14, 11, 12, 9, 13, 11]",20,direct_gaze.png,f,0,2,results8,001,2026-04-13_14h15.55.382,mogelijke versie adaptive staircase builder,,2026.1.3,59.981022004584744,2026-04-13 14h15.55.602584 +0200,
12.5,ecc0,mid,44,0,44,j,0,1.7616309999993973,None,0,1,1,1,44,0,44,0,258.4025309999997,,,,,,,,,,,,,,,258.3918733999999,258.4025309999997,259.3102698999992,258.4025309999997,258.4025309999997,260.1769777999998,j,0,1.7616309999993973,None,left,12,"[20, 14, 16, 15, 16, 12, 13, 12, 13, 12, 13, 11, 12, 10, 14, 11, 12, 9, 13, 11]",20,gaze_L_12.png,j,0,2,results8,001,2026-04-13_14h15.55.382,mogelijke versie adaptive staircase builder,,2026.1.3,59.981022004584744,2026-04-13 14h15.55.602584 +0200,
12.5,ecc0,mid,45,0,45,f,1,1.6879750999996759,None,0,1,1,1,45,0,45,0,260.27635030000056,,,,,,,,,,,,,,,260.26620980000007,260.27635030000056,261.1767385999992,260.27635030000056,260.27635030000056,261.9769419000004,f,1,1.6879750999996759,None,right,13,"[20, 14, 16, 15, 16, 12, 13, 12, 13, 12, 13, 11, 12, 10, 14, 11, 12, 9, 13, 11, 13]",21,gaze_R_13.png,f,1,2,results8,001,2026-04-13_14h15.55.382,mogelijke versie adaptive staircase builder,,2026.1.3,59.981022004584744,2026-04-13 14h15.55.602584 +0200,
12.5,ecc0,mid,46,0,46,f,1,2.0214209999994637,None,0,1,1,1,46,0,46,0,262.0706709999995,,,,,,,,,,,,,,,262.0599758999997,262.0706709999995,262.9768951999995,262.0706709999995,262.0706709999995,264.0939137999994,f,1,2.0214209999994637,None,right,12,"[20, 14, 16, 15, 16, 12, 13, 12, 13, 12, 13, 11, 12, 10, 14, 11, 12, 9, 13, 11, 13]",21,gaze_R_12.png,f,1,2,results8,001,2026-04-13_14h15.55.382,mogelijke versie adaptive staircase builder,,2026.1.3,59.981022004584744,2026-04-13 14h15.55.602584 +0200,
12.5,ecc0,mid,47,0,47,j,0,4.146913700000368,None,0,1,1,1,47,0,47,0,264.19328119999955,,,,,,,,,,,,,,,264.18239249999897,264.19328119999955,265.09368840000025,264.19328119999955,264.19328119999955,268.3438815999998,j,0,4.146913700000368,None,left,11,"[20, 14, 16, 15, 16, 12, 13, 12, 13, 12, 13, 11, 12, 10, 14, 11, 12, 9, 13, 11, 13, 11]",22,gaze_L_11.png,j,0,2,results8,001,2026-04-13_14h15.55.382,mogelijke versie adaptive staircase builder,,2026.1.3,59.981022004584744,2026-04-13 14h15.55.602584 +0200,
12.5,ecc0,mid,48,0,48,f,0,2.632113699999536,None,0,1,1,1,48,0,48,0,268.4363376000001,,,,,,,,,,,,,,,268.42562329999964,268.4363376000001,269.3436800999989,268.4363376000001,268.4363376000001,271.0770496999994,f,0,2.632113699999536,None,direct,12,"[20, 14, 16, 15, 16, 12, 13, 12, 13, 12, 13, 11, 12, 10, 14, 11, 12, 9, 13, 11, 13, 11]",22,direct_gaze.png,f,0,2,results8,001,2026-04-13_14h15.55.382,mogelijke versie adaptive staircase builder,,2026.1.3,59.981022004584744,2026-04-13 14h15.55.602584 +0200,
12.5,ecc0,mid,49,0,49,j,0,1.7288033999993786,None,0,1,1,1,49,0,49,0,271.1794725999989,,,,,,,,,,,,,,,271.16873209999903,271.1794725999989,272.07681219999904,271.1794725999989,271.1794725999989,272.91035869999905,j,0,1.7288033999993786,None,left,13,"[20, 14, 16, 15, 16, 12, 13, 12, 13, 12, 13, 11, 12, 10, 14, 11, 12, 9, 13, 11, 13, 11]",22,gaze_L_13.png,j,0,2,results8,001,2026-04-13_14h15.55.382,mogelijke versie adaptive staircase builder,,2026.1.3,59.981022004584744,2026-04-13 14h15.55.602584 +0200,
12.5,ecc0,mid,50,0,50,f,1,1.5525973999992857,None,0,1,1,1,50,0,50,0,273.01153990000057,,,,,,,,,,,,,,,273.00041059999967,273.01153990000057,273.9101093999998,273.01153990000057,273.01153990000057,274.5769812999988,f,1,1.5525973999992857,None,right,14,"[20, 14, 16, 15, 16, 12, 13, 12, 13, 12, 13, 11, 12, 10, 14, 11, 12, 9, 13, 11, 13, 11, 14]",23,gaze_R_14.png,f,1,2,results8,001,2026-04-13_14h15.55.382,mogelijke versie adaptive staircase builder,,2026.1.3,59.981022004584744,2026-04-13 14h15.55.602584 +0200,
12.5,ecc0,mid,51,0,51,f,0,1.9290098000001308,None,0,1,1,1,51,0,51,0,274.6672741000002,,,,,,,,,,,,,,,274.65716359999897,274.6672741000002,275.5767558999996,274.6672741000002,274.6672741000002,276.6103036000004,f,0,1.9290098000001308,None,direct,13,"[20, 14, 16, 15, 16, 12, 13, 12, 13, 12, 13, 11, 12, 10, 14, 11, 12, 9, 13, 11, 13, 11, 14, 13]",24,direct_gaze.png,f,0,2,results8,001,2026-04-13_14h15.55.382,mogelijke versie adaptive staircase builder,,2026.1.3,59.981022004584744,2026-04-13 14h15.55.602584 +0200,
12.5,ecc0,mid,52,0,52,f,0,1.6192847000002075,None,0,1,1,1,52,0,52,0,276.7049525000002,,,,,,,,,,,,,,,276.6939689999999,276.7049525000002,277.6100626999996,276.7049525000002,276.7049525000002,278.3269404999992,f,0,1.6192847000002075,None,direct,14,"[20, 14, 16, 15, 16, 12, 13, 12, 13, 12, 13, 11, 12, 10, 14, 11, 12, 9, 13, 11, 13, 11, 14, 13]",24,direct_gaze.png,f,0,2,results8,001,2026-04-13_14h15.55.382,mogelijke versie adaptive staircase builder,,2026.1.3,59.981022004584744,2026-04-13 14h15.55.602584 +0200,
12.5,ecc0,mid,53,0,53,f,1,2.4977388000006613,None,0,1,1,1,53,0,53,0,278.4344777999995,,,,,,,,,,,,,,,278.4213087999997,278.4344777999995,279.3266781000002,278.4344777999995,278.4344777999995,280.943638499999,f,1,2.4977388000006613,None,right,15,"[20, 14, 16, 15, 16, 12, 13, 12, 13, 12, 13, 11, 12, 10, 14, 11, 12, 9, 13, 11, 13, 11, 14, 13, 15]",25,gaze_R_15.png,f,1,2,results8,001,2026-04-13_14h15.55.382,mogelijke versie adaptive staircase builder,,2026.1.3,59.981022004584744,2026-04-13 14h15.55.602584 +0200,
12.5,ecc0,mid,54,0,54,j,1,1.5989377999994758,None,0,1,1,1,54,0,54,0,281.03751009999905,,,,,,,,,,,,,,,281.0269618000002,281.03751009999905,281.94333559999905,281.03751009999905,281.03751009999905,282.64366229999905,j,1,1.5989377999994758,None,direct,14,"[20, 14, 16, 15, 16, 12, 13, 12, 13, 12, 13, 11, 12, 10, 14, 11, 12, 9, 13, 11, 13, 11, 14, 13, 15]",25,direct_gaze.png,j,1,2,results8,001,2026-04-13_14h15.55.382,mogelijke versie adaptive staircase builder,,2026.1.3,59.981022004584744,2026-04-13 14h15.55.602584 +0200,
12.5,ecc0,mid,55,0,55,j,1,1.6632384000004095,None,0,1,1,1,55,0,55,0,282.74093429999994,,,,,,,,,,,,,,,282.7298042000002,282.74093429999994,283.6431873999991,282.74093429999994,282.74093429999994,284.4100878999998,j,1,1.6632384000004095,None,direct,13,"[20, 14, 16, 15, 16, 12, 13, 12, 13, 12, 13, 11, 12, 10, 14, 11, 12, 9, 13, 11, 13, 11, 14, 13, 15]",25,direct_gaze.png,j,1,2,results8,001,2026-04-13_14h15.55.382,mogelijke versie adaptive staircase builder,,2026.1.3,59.981022004584744,2026-04-13 14h15.55.602584 +0200,
12.5,ecc0,mid,56,0,56,j,1,1.9619645000002492,None,0,1,1,1,56,0,56,0,284.5065833999997,,,,,,,,,,,,,,,284.49413110000023,284.5065833999997,285.4098217999999,284.5065833999997,284.5065833999997,286.4768064,j,1,1.9619645000002492,None,direct,12,"[20, 14, 16, 15, 16, 12, 13, 12, 13, 12, 13, 11, 12, 10, 14, 11, 12, 9, 13, 11, 13, 11, 14, 13, 15]",25,direct_gaze.png,j,1,2,results8,001,2026-04-13_14h15.55.382,mogelijke versie adaptive staircase builder,,2026.1.3,59.981022004584744,2026-04-13 14h15.55.602584 +0200,
12.5,ecc0,mid,57,0,57,j,0,3.257891600000221,None,0,1,1,1,57,0,57,0,286.57038569999895,,,,,,,,,,,,,,,286.55940120000014,286.57038569999895,287.4765807999993,286.57038569999895,286.57038569999895,289.84347399999933,j,0,3.257891600000221,None,right,11,"[20, 14, 16, 15, 16, 12, 13, 12, 13, 12, 13, 11, 12, 10, 14, 11, 12, 9, 13, 11, 13, 11, 14, 13, 15, 11]",26,gaze_R_11.png,j,0,2,results8,001,2026-04-13_14h15.55.382,mogelijke versie adaptive staircase builder,,2026.1.3,59.981022004584744,2026-04-13 14h15.55.602584 +0200,
12.5,ecc0,mid,58,0,58,j,0,2.0281966000002285,None,0,1,1,1,58,0,58,0,289.93611789999886,,,,,,,,,,,,,,,289.92467899999974,289.93611789999886,290.8433604999991,289.93611789999886,289.93611789999886,291.97676820000015,j,0,2.0281966000002285,None,left,12,"[20, 14, 16, 15, 16, 12, 13, 12, 13, 12, 13, 11, 12, 10, 14, 11, 12, 9, 13, 11, 13, 11, 14, 13, 15, 11]",26,gaze_L_12.png,j,0,2,results8,001,2026-04-13_14h15.55.382,mogelijke versie adaptive staircase builder,,2026.1.3,59.981022004584744,2026-04-13 14h15.55.602584 +0200,
12.5,ecc0,mid,59,0,59,j,1,2.604981200000111,None,0,1,1,1,59,0,59,0,292.0713581,,,,,,,,,,,,,,,292.0613837000001,292.0713581,292.9765057000004,292.0713581,292.0713581,294.6768515999993,j,1,2.604981200000111,None,direct,13,"[20, 14, 16, 15, 16, 12, 13, 12, 13, 12, 13, 11, 12, 10, 14, 11, 12, 9, 13, 11, 13, 11, 14, 13, 15, 11, 13]",27,direct_gaze.png,j,1,2,results8,001,2026-04-13_14h15.55.382,mogelijke versie adaptive staircase builder,,2026.1.3,59.981022004584744,2026-04-13 14h15.55.602584 +0200,
12.5,ecc0,mid,1,1,0,,,,,0,1,1,1,,,,,,,,,,,,,,,,,,,,,,,,,,,,,,,,,,,,,,results8,001,2026-04-13_14h15.55.382,mogelijke versie adaptive staircase builder,,2026.1.3,59.981022004584744,2026-04-13 14h15.55.602584 +0200,
20.5,ecc10neg,right,0,0,0,j,0,3.268529300001319,None,0,2,2,2,0,0,0,0,294.8236875999992,,,,,,,,,,,,,294.6967487999991,294.6968020000004,294.8122048000005,294.8236875999992,294.8236875999992,295.7098210999993,294.8236875999992,298.0933382000003,j,0,3.268529300001319,None,right,20,[],0,shiftedgaze_R_20.png,j,0,3,results8,001,2026-04-13_14h15.55.382,mogelijke versie adaptive staircase builder,,2026.1.3,59.981022004584744,2026-04-13 14h15.55.602584 +0200,
20.5,ecc10neg,right,1,0,1,f,0,1.8078191999993578,None,0,2,2,2,1,0,1,0,298.2123267999996,,,,,,,,,,,,,,,298.2007407000001,298.2123267999996,298.2123267999996,299.09311349999916,298.2123267999996,300.0265722999993,f,0,1.8078191999993578,None,direct,20,[],0,shifteddirectgaze.png,f,0,3,results8,001,2026-04-13_14h15.55.382,mogelijke versie adaptive staircase builder,,2026.1.3,59.981022004584744,2026-04-13 14h15.55.602584 +0200,
20.5,ecc10neg,right,2,0,2,j,0,2.175908999999592,None,0,2,2,2,2,0,2,0,300.1482032999993,,,,,,,,,,,,,,,300.1367143999996,300.1482032999993,300.1482032999993,301.0261293000003,300.1482032999993,302.32648250000057,j,0,2.175908999999592,None,right,20,[],0,shiftedgaze_R_20.png,j,0,3,results8,001,2026-04-13_14h15.55.382,mogelijke versie adaptive staircase builder,,2026.1.3,59.981022004584744,2026-04-13 14h15.55.602584 +0200,
20.5,ecc10neg,right,3,0,3,j,0,3.0803704999998445,None,0,2,2,2,3,0,3,0,302.4518033000004,,,,,,,,,,,,,,,302.44072570000026,302.4518033000004,302.4518033000004,303.3263453999989,302.4518033000004,305.5430615000005,j,0,3.0803704999998445,None,left,20,[],0,shiftedgaze_L_20.png,j,0,3,results8,001,2026-04-13_14h15.55.382,mogelijke versie adaptive staircase builder,,2026.1.3,59.981022004584744,2026-04-13 14h15.55.602584 +0200,
20.5,ecc10neg,right,4,0,4,j,1,2.742253000000346,None,0,2,2,2,4,0,4,0,305.6378771999989,,,,,,,,,,,,,,,305.6275324999988,305.6378771999989,305.6378771999989,306.54278689999956,305.6378771999989,308.3930614000001,j,1,2.742253000000346,None,direct,20,[20],1,shifteddirectgaze.png,j,1,3,results8,001,2026-04-13_14h15.55.382,mogelijke versie adaptive staircase builder,,2026.1.3,59.981022004584744,2026-04-13 14h15.55.602584 +0200,
20.5,ecc10neg,right,5,0,5,f,1,1.3004445999995369,None,0,2,2,2,5,0,5,0,308.49564719999944,,,,,,,,,,,,,,,308.4845561000002,308.49564719999944,308.49564719999944,309.39288250000027,308.49564719999944,309.80975860000035,f,1,1.3004445999995369,None,left,19,[20],1,shiftedgaze_L_19.png,f,1,3,results8,001,2026-04-13_14h15.55.382,mogelijke versie adaptive staircase builder,,2026.1.3,59.981022004584744,2026-04-13 14h15.55.602584 +0200,
20.5,ecc10neg,right,6,0,6,f,1,1.6228516000010131,None,0,2,2,2,6,0,6,0,309.94134099999974,,,,,,,,,,,,,,,309.93010200000026,309.94134099999974,309.94134099999974,310.8094373999993,309.94134099999974,311.5765204999989,f,1,1.6228516000010131,None,right,18,[20],1,shiftedgaze_R_18.png,f,1,3,results8,001,2026-04-13_14h15.55.382,mogelijke versie adaptive staircase builder,,2026.1.3,59.981022004584744,2026-04-13 14h15.55.602584 +0200,
20.5,ecc10neg,right,7,0,7,j,0,1.6658633000006375,None,0,2,2,2,7,0,7,0,311.69836120000036,,,,,,,,,,,,,,,311.68680610000047,311.69836120000036,311.69836120000036,312.5762326999993,311.69836120000036,313.37623189999977,j,0,1.6658633000006375,None,left,17,"[20, 17]",2,shiftedgaze_L_17.png,j,0,3,results8,001,2026-04-13_14h15.55.382,mogelijke versie adaptive staircase builder,,2026.1.3,59.981022004584744,2026-04-13 14h15.55.602584 +0200,
20.5,ecc10neg,right,8,0,8,j,1,1.967993899999783,None,0,2,2,2,8,0,8,0,313.4761079,,,,,,,,,,,,,,,313.4652066999988,313.4761079,313.4761079,314.37614980000035,313.4761079,315.45983200000046,j,1,1.967993899999783,None,direct,18,"[20, 17, 18]",3,shifteddirectgaze.png,j,1,3,results8,001,2026-04-13_14h15.55.382,mogelijke versie adaptive staircase builder,,2026.1.3,59.981022004584744,2026-04-13 14h15.55.602584 +0200,
20.5,ecc10neg,right,9,0,9,j,0,2.032806699999128,None,0,2,2,2,9,0,9,0,315.5873343000003,,,,,,,,,,,,,,,315.57590569999957,315.5873343000003,315.5873343000003,316.45936450000045,315.5873343000003,317.62636349999957,j,0,2.032806699999128,None,right,17,"[20, 17, 18, 17]",4,shiftedgaze_R_17.png,j,0,3,results8,001,2026-04-13_14h15.55.382,mogelijke versie adaptive staircase builder,,2026.1.3,59.981022004584744,2026-04-13 14h15.55.602584 +0200,
20.5,ecc10neg,right,10,0,10,f,1,2.013619800000015,None,0,2,2,2,10,0,10,0,317.7345029999997,,,,,,,,,,,,,,,317.7221651,317.7345029999997,317.7345029999997,318.62615519999963,317.7345029999997,319.7596532999996,f,1,2.013619800000015,None,right,18,"[20, 17, 18, 17, 18]",5,shiftedgaze_R_18.png,f,1,3,results8,001,2026-04-13_14h15.55.382,mogelijke versie adaptive staircase builder,,2026.1.3,59.981022004584744,2026-04-13 14h15.55.602584 +0200,
20.5,ecc10neg,right,11,0,11,j,0,2.450152600000365,None,0,2,2,2,11,0,11,0,319.87397789999886,,,,,,,,,,,,,,,319.86292309999953,319.87397789999886,319.87397789999886,320.759493399999,319.87397789999886,322.32616249999955,j,0,2.450152600000365,None,left,17,"[20, 17, 18, 17, 18, 17]",6,shiftedgaze_L_17.png,j,0,3,results8,001,2026-04-13_14h15.55.382,mogelijke versie adaptive staircase builder,,2026.1.3,59.981022004584744,2026-04-13 14h15.55.602584 +0200,
20.5,ecc10neg,right,12,0,12,f,1,2.5594215000000986,None,0,2,2,2,12,0,12,0,322.42871170000035,,,,,,,,,,,,,,,322.4181241999995,322.42871170000035,322.42871170000035,323.32591440000033,322.42871170000035,324.99282219999986,f,1,2.5594215000000986,None,left,18,"[20, 17, 18, 17, 18, 17, 18]",7,shiftedgaze_L_18.png,f,1,3,results8,001,2026-04-13_14h15.55.382,mogelijke versie adaptive staircase builder,,2026.1.3,59.981022004584744,2026-04-13 14h15.55.602584 +0200,
20.5,ecc10neg,right,13,0,13,f,1,2.5542060999996465,None,0,2,2,2,13,0,13,0,325.1138871999992,,,,,,,,,,,,,,,325.1023948999991,325.1138871999992,325.1138871999992,325.9924104999991,325.1138871999992,327.6760493999991,f,1,2.5542060999996465,None,right,17,"[20, 17, 18, 17, 18, 17, 18]",7,shiftedgaze_R_17.png,f,1,3,results8,001,2026-04-13_14h15.55.382,mogelijke versie adaptive staircase builder,,2026.1.3,59.981022004584744,2026-04-13 14h15.55.602584 +0200,
20.5,ecc10neg,right,14,0,14,j,0,3.0829073999993852,None,0,2,2,2,14,0,14,0,327.7855208000001,,,,,,,,,,,,,,,327.7740737999993,327.7855208000001,327.7855208000001,328.67573300000004,327.7855208000001,330.8759119999995,j,0,3.0829073999993852,None,right,16,"[20, 17, 18, 17, 18, 17, 18, 16]",8,shiftedgaze_R_16.png,j,0,3,results8,001,2026-04-13_14h15.55.382,mogelijke versie adaptive staircase builder,,2026.1.3,59.981022004584744,2026-04-13 14h15.55.602584 +0200,
20.5,ecc10neg,right,15,0,15,f,0,2.6930652000010014,None,0,2,2,2,15,0,15,0,330.9911078999994,,,,,,,,,,,,,,,330.98000969999885,330.9911078999994,330.9911078999994,331.87594349999927,330.9911078999994,333.6927737999995,f,0,2.6930652000010014,None,direct,17,"[20, 17, 18, 17, 18, 17, 18, 16]",8,shifteddirectgaze.png,f,0,3,results8,001,2026-04-13_14h15.55.382,mogelijke versie adaptive staircase builder,,2026.1.3,59.981022004584744,2026-04-13 14h15.55.602584 +0200,
20.5,ecc10neg,right,16,0,16,j,0,2.0132406000011542,None,0,2,2,2,16,0,16,0,333.79093040000043,,,,,,,,,,,,,,,333.7781954000002,333.79093040000043,333.79093040000043,334.69235019999905,333.79093040000043,335.80946380000023,j,0,2.0132406000011542,None,left,18,"[20, 17, 18, 17, 18, 17, 18, 16]",8,shiftedgaze_L_18.png,j,0,3,results8,001,2026-04-13_14h15.55.382,mogelijke versie adaptive staircase builder,,2026.1.3,59.981022004584744,2026-04-13 14h15.55.602584 +0200,
20.5,ecc10neg,right,17,0,17,j,0,1.696440800000346,None,0,2,2,2,17,0,17,0,335.9396431999994,,,,,,,,,,,,,,,335.92791209999996,335.9396431999994,335.9396431999994,336.80916479999905,335.9396431999994,337.6427421999997,j,0,1.696440800000346,None,right,19,"[20, 17, 18, 17, 18, 17, 18, 16]",8,shiftedgaze_R_19.png,j,0,3,results8,001,2026-04-13_14h15.55.382,mogelijke versie adaptive staircase builder,,2026.1.3,59.981022004584744,2026-04-13 14h15.55.602584 +0200,
20.5,ecc10neg,right,18,0,18,f,1,2.3707806000002165,None,0,2,2,2,18,0,18,0,337.7453676999994,,,,,,,,,,,,,,,337.73487339999883,337.7453676999994,337.7453676999994,338.6424251999997,337.7453676999994,340.12610850000056,f,1,2.3707806000002165,None,right,20,"[20, 17, 18, 17, 18, 17, 18, 16, 20]",9,shiftedgaze_R_20.png,f,1,3,results8,001,2026-04-13_14h15.55.382,mogelijke versie adaptive staircase builder,,2026.1.3,59.981022004584744,2026-04-13 14h15.55.602584 +0200,
20.5,ecc10neg,right,19,0,19,j,0,2.0044898000014655,None,0,2,2,2,19,0,19,0,340.23968520000017,,,,,,,,,,,,,,,340.22845269999925,340.23968520000017,340.23968520000017,341.1256861999991,340.23968520000017,342.2597120999999,j,0,2.0044898000014655,None,left,19,"[20, 17, 18, 17, 18, 17, 18, 16, 20, 19]",10,shiftedgaze_L_19.png,j,0,3,results8,001,2026-04-13_14h15.55.382,mogelijke versie adaptive staircase builder,,2026.1.3,59.981022004584744,2026-04-13 14h15.55.602584 +0200,
20.5,ecc10neg,right,20,0,20,j,0,1.746376600000076,None,0,2,2,2,20,0,20,0,342.3538332999997,,,,,,,,,,,,,,,342.3435327999996,342.3538332999997,342.3538332999997,343.2757287000004,342.3538332999997,344.10945009999887,j,0,1.746376600000076,None,left,20,"[20, 17, 18, 17, 18, 17, 18, 16, 20, 19]",10,shiftedgaze_L_20.png,j,0,3,results8,001,2026-04-13_14h15.55.382,mogelijke versie adaptive staircase builder,,2026.1.3,59.981022004584744,2026-04-13 14h15.55.602584 +0200,
20.5,ecc10neg,right,21,0,21,f,1,2.046697800000402,None,0,2,2,2,21,0,21,0,344.22953099999904,,,,,,,,,,,,,,,344.2180721000004,344.22953099999904,344.22953099999904,345.10903060000055,344.22953099999904,346.29262989999916,f,1,2.046697800000402,None,right,20,"[20, 17, 18, 17, 18, 17, 18, 16, 20, 19, 20]",11,shiftedgaze_R_20.png,f,1,3,results8,001,2026-04-13_14h15.55.382,mogelijke versie adaptive staircase builder,,2026.1.3,59.981022004584744,2026-04-13 14h15.55.602584 +0200,
20.5,ecc10neg,right,22,0,22,j,0,3.470036099999561,None,0,2,2,2,22,0,22,0,346.4061359999996,,,,,,,,,,,,,,,346.3954496000006,346.4061359999996,346.4061359999996,347.2923324000003,346.4061359999996,349.89263629999914,j,0,3.470036099999561,None,left,19,"[20, 17, 18, 17, 18, 17, 18, 16, 20, 19, 20, 19]",12,shiftedgaze_L_19.png,j,0,3,results8,001,2026-04-13_14h15.55.382,mogelijke versie adaptive staircase builder,,2026.1.3,59.981022004584744,2026-04-13 14h15.55.602584 +0200,
20.5,ecc10neg,right,23,0,23,j,1,1.9023603000005096,None,0,2,2,2,23,0,23,0,349.98987080000006,,,,,,,,,,,,,,,349.9786514999996,349.98987080000006,349.98987080000006,350.8921551000003,349.98987080000006,351.8925280000003,j,1,1.9023603000005096,None,direct,20,"[20, 17, 18, 17, 18, 17, 18, 16, 20, 19, 20, 19, 20]",13,shifteddirectgaze.png,j,1,3,results8,001,2026-04-13_14h15.55.382,mogelijke versie adaptive staircase builder,,2026.1.3,59.981022004584744,2026-04-13 14h15.55.602584 +0200,
20.5,ecc10neg,right,24,0,24,f,0,2.3112521000002744,None,0,2,2,2,24,0,24,0,351.9888633999999,,,,,,,,,,,,,,,351.97912030000043,351.9888633999999,351.9888633999999,352.8921830999989,351.9888633999999,354.3091525,f,0,2.3112521000002744,None,direct,19,"[20, 17, 18, 17, 18, 17, 18, 16, 20, 19, 20, 19, 20, 19]",14,shifteddirectgaze.png,f,0,3,results8,001,2026-04-13_14h15.55.382,mogelijke versie adaptive staircase builder,,2026.1.3,59.981022004584744,2026-04-13 14h15.55.602584 +0200,
20.5,ecc10neg,right,25,0,25,f,1,1.7328603000005387,None,0,2,2,2,25,0,25,0,354.43132999999943,,,,,,,,,,,,,,,354.4193780000005,354.43132999999943,354.43132999999943,355.3088716000002,354.43132999999943,356.17570479999995,f,1,1.7328603000005387,None,right,20,"[20, 17, 18, 17, 18, 17, 18, 16, 20, 19, 20, 19, 20, 19, 20]",15,shiftedgaze_R_20.png,f,1,3,results8,001,2026-04-13_14h15.55.382,mogelijke versie adaptive staircase builder,,2026.1.3,59.981022004584744,2026-04-13 14h15.55.602584 +0200,
20.5,ecc10neg,right,26,0,26,j,1,1.4405860999995639,None,0,2,2,2,26,0,26,0,356.291781599999,,,,,,,,,,,,,,,356.28095349999967,356.291781599999,356.291781599999,357.17552029999933,356.291781599999,357.74245560000054,j,1,1.4405860999995639,None,direct,19,"[20, 17, 18, 17, 18, 17, 18, 16, 20, 19, 20, 19, 20, 19, 20]",15,shifteddirectgaze.png,j,1,3,results8,001,2026-04-13_14h15.55.382,mogelijke versie adaptive staircase builder,,2026.1.3,59.981022004584744,2026-04-13 14h15.55.602584 +0200,
20.5,ecc10neg,right,27,0,27,j,0,1.714754399999947,None,0,2,2,2,27,0,27,0,357.8654301000006,,,,,,,,,,,,,,,357.8543200999993,357.8654301000006,357.8654301000006,358.7422108999999,357.8654301000006,359.5923115000005,j,0,1.714754399999947,None,right,18,"[20, 17, 18, 17, 18, 17, 18, 16, 20, 19, 20, 19, 20, 19, 20, 18]",16,shiftedgaze_R_18.png,j,0,3,results8,001,2026-04-13_14h15.55.382,mogelijke versie adaptive staircase builder,,2026.1.3,59.981022004584744,2026-04-13 14h15.55.602584 +0200,
20.5,ecc10neg,right,28,0,28,j,0,1.8898119000004954,None,0,2,2,2,28,0,28,0,359.69829559999926,,,,,,,,,,,,,,,359.6872528999993,359.69829559999926,359.69829559999926,360.59200409999903,359.69829559999926,361.59231030000046,j,0,1.8898119000004954,None,right,19,"[20, 17, 18, 17, 18, 17, 18, 16, 20, 19, 20, 19, 20, 19, 20, 18]",16,shiftedgaze_R_19.png,j,0,3,results8,001,2026-04-13_14h15.55.382,mogelijke versie adaptive staircase builder,,2026.1.3,59.981022004584744,2026-04-13 14h15.55.602584 +0200,
20.5,ecc10neg,right,29,0,29,j,0,1.9686954999997397,None,0,2,2,2,29,0,29,0,361.6993874999989,,,,,,,,,,,,,,,361.68794829999933,361.6993874999989,361.6993874999989,362.5920480999994,361.6993874999989,363.67568799999935,j,0,1.9686954999997397,None,left,20,"[20, 17, 18, 17, 18, 17, 18, 16, 20, 19, 20, 19, 20, 19, 20, 18]",16,shiftedgaze_L_20.png,j,0,3,results8,001,2026-04-13_14h15.55.382,mogelijke versie adaptive staircase builder,,2026.1.3,59.981022004584744,2026-04-13 14h15.55.602584 +0200,
20.5,ecc10neg,right,30,0,30,f,0,1.5660559999996622,None,0,2,2,2,30,0,30,0,363.76601669999945,,,,,,,,,,,,,,,363.75529370000004,363.76601669999945,363.76601669999945,364.67534949999936,363.76601669999945,365.34221629999956,f,0,1.5660559999996622,None,direct,20,"[20, 17, 18, 17, 18, 17, 18, 16, 20, 19, 20, 19, 20, 19, 20, 18]",16,shifteddirectgaze.png,f,0,3,results8,001,2026-04-13_14h15.55.382,mogelijke versie adaptive staircase builder,,2026.1.3,59.981022004584744,2026-04-13 14h15.55.602584 +0200,
20.5,ecc10neg,right,31,0,31,f,1,2.2964814999995724,None,0,2,2,2,31,0,31,0,365.4358341999996,,,,,,,,,,,,,,,365.42447059999904,365.4358341999996,365.4358341999996,366.3419577000004,365.4358341999996,367.74204289999943,f,1,2.2964814999995724,None,left,20,"[20, 17, 18, 17, 18, 17, 18, 16, 20, 19, 20, 19, 20, 19, 20, 18, 20]",17,shiftedgaze_L_20.png,f,1,3,results8,001,2026-04-13_14h15.55.382,mogelijke versie adaptive staircase builder,,2026.1.3,59.981022004584744,2026-04-13 14h15.55.602584 +0200,
20.5,ecc10neg,right,32,0,32,f,1,2.8020414000002347,None,0,2,2,2,32,0,32,0,367.8581488,,,,,,,,,,,,,,,367.84680219999973,367.8581488,367.8581488,368.74190689999887,367.8581488,370.67552479999904,f,1,2.8020414000002347,None,right,19,"[20, 17, 18, 17, 18, 17, 18, 16, 20, 19, 20, 19, 20, 19, 20, 18, 20]",17,shiftedgaze_R_19.png,f,1,3,results8,001,2026-04-13_14h15.55.382,mogelijke versie adaptive staircase builder,,2026.1.3,59.981022004584744,2026-04-13 14h15.55.602584 +0200,
20.5,ecc10neg,right,33,0,33,j,1,2.588700999998764,None,0,2,2,2,33,0,33,0,370.78345909999916,,,,,,,,,,,,,,,370.7721569000005,370.78345909999916,370.78345909999916,371.67526910000015,370.78345909999916,373.37534289999894,j,1,2.588700999998764,None,direct,18,"[20, 17, 18, 17, 18, 17, 18, 16, 20, 19, 20, 19, 20, 19, 20, 18, 20]",17,shifteddirectgaze.png,j,1,3,results8,001,2026-04-13_14h15.55.382,mogelijke versie adaptive staircase builder,,2026.1.3,59.981022004584744,2026-04-13 14h15.55.602584 +0200,
20.5,ecc10neg,right,34,0,34,j,1,2.076120300000184,None,0,2,2,2,34,0,34,0,373.46397419999994,,,,,,,,,,,,,,,373.4526821999989,373.46397419999994,373.46397419999994,374.3752934000004,373.46397419999994,375.54216219999944,j,1,2.076120300000184,None,direct,17,"[20, 17, 18, 17, 18, 17, 18, 16, 20, 19, 20, 19, 20, 19, 20, 18, 20]",17,shifteddirectgaze.png,j,1,3,results8,001,2026-04-13_14h15.55.382,mogelijke versie adaptive staircase builder,,2026.1.3,59.981022004584744,2026-04-13 14h15.55.602584 +0200,
20.5,ecc10neg,right,35,0,35,f,1,2.075162299999647,None,0,2,2,2,35,0,35,0,375.6579512999997,,,,,,,,,,,,,,,375.6466524999996,375.6579512999997,375.6579512999997,376.54185320000033,375.6579512999997,377.7421775999992,f,1,2.075162299999647,None,right,16,"[20, 17, 18, 17, 18, 17, 18, 16, 20, 19, 20, 19, 20, 19, 20, 18, 20]",17,shiftedgaze_R_16.png,f,1,3,results8,001,2026-04-13_14h15.55.382,mogelijke versie adaptive staircase builder,,2026.1.3,59.981022004584744,2026-04-13 14h15.55.602584 +0200,
20.5,ecc10neg,right,36,0,36,f,1,1.9267416000002413,None,0,2,2,2,36,0,36,0,377.8614228999995,,,,,,,,,,,,,,,377.849849799999,377.8614228999995,377.8614228999995,378.741765499999,377.8614228999995,379.79214239999965,f,1,1.9267416000002413,None,right,15,"[20, 17, 18, 17, 18, 17, 18, 16, 20, 19, 20, 19, 20, 19, 20, 18, 20]",17,shiftedgaze_R_15.png,f,1,3,results8,001,2026-04-13_14h15.55.382,mogelijke versie adaptive staircase builder,,2026.1.3,59.981022004584744,2026-04-13 14h15.55.602584 +0200,
20.5,ecc10neg,right,37,0,37,j,0,1.8944210999998177,None,0,2,2,2,37,0,37,0,379.8936226000005,,,,,,,,,,,,,,,379.882145399999,379.8936226000005,379.8936226000005,380.7917431999995,379.8936226000005,381.7920457,j,0,1.8944210999998177,None,left,14,"[20, 17, 18, 17, 18, 17, 18, 16, 20, 19, 20, 19, 20, 19, 20, 18, 20, 14]",18,shiftedgaze_L_14.png,j,0,3,results8,001,2026-04-13_14h15.55.382,mogelijke versie adaptive staircase builder,,2026.1.3,59.981022004584744,2026-04-13 14h15.55.602584 +0200,
20.5,ecc10neg,right,38,0,38,j,0,2.169995199999903,None,0,2,2,2,38,0,38,0,381.88213429999996,,,,,,,,,,,,,,,381.87097410000024,381.88213429999996,381.88213429999996,382.79171080000015,381.88213429999996,384.0585967999996,j,0,2.169995199999903,None,right,15,"[20, 17, 18, 17, 18, 17, 18, 16, 20, 19, 20, 19, 20, 19, 20, 18, 20, 14]",18,shiftedgaze_R_15.png,j,0,3,results8,001,2026-04-13_14h15.55.382,mogelijke versie adaptive staircase builder,,2026.1.3,59.981022004584744,2026-04-13 14h15.55.602584 +0200,
20.5,ecc10neg,right,39,0,39,j,0,1.979699100000289,None,0,2,2,2,39,0,39,0,384.17640050000045,,,,,,,,,,,,,,,384.16550069999903,384.17640050000045,384.17640050000045,385.0584706999998,384.17640050000045,386.1586977999996,j,0,1.979699100000289,None,right,16,"[20, 17, 18, 17, 18, 17, 18, 16, 20, 19, 20, 19, 20, 19, 20, 18, 20, 14]",18,shiftedgaze_R_16.png,j,0,3,results8,001,2026-04-13_14h15.55.382,mogelijke versie adaptive staircase builder,,2026.1.3,59.981022004584744,2026-04-13 14h15.55.602584 +0200,
20.5,ecc10neg,right,40,0,40,j,1,2.012456499998734,None,0,2,2,2,40,0,40,0,386.2716485000001,,,,,,,,,,,,,,,386.2603789999994,386.2716485000001,386.2716485000001,387.15842669999984,386.2716485000001,388.2919435999993,j,1,2.012456499998734,None,direct,17,"[20, 17, 18, 17, 18, 17, 18, 16, 20, 19, 20, 19, 20, 19, 20, 18, 20, 14, 17]",19,shifteddirectgaze.png,j,1,3,results8,001,2026-04-13_14h15.55.382,mogelijke versie adaptive staircase builder,,2026.1.3,59.981022004584744,2026-04-13 14h15.55.602584 +0200,
20.5,ecc10neg,right,41,0,41,j,0,1.9122341999991477,None,0,2,2,2,41,0,41,0,388.3879477999999,,,,,,,,,,,,,,,388.37730759999977,388.3879477999999,388.3879477999999,389.2916927999995,388.3879477999999,390.30855659999906,j,0,1.9122341999991477,None,left,16,"[20, 17, 18, 17, 18, 17, 18, 16, 20, 19, 20, 19, 20, 19, 20, 18, 20, 14, 17, 16]",20,shiftedgaze_L_16.png,j,0,3,results8,001,2026-04-13_14h15.55.382,mogelijke versie adaptive staircase builder,,2026.1.3,59.981022004584744,2026-04-13 14h15.55.602584 +0200,
20.5,ecc10neg,right,42,0,42,f,1,1.9245960999996896,None,0,2,2,2,42,0,42,0,390.3995653000002,,,,,,,,,,,,,,,390.38869499999964,390.3995653000002,390.3995653000002,391.30835359999946,390.3995653000002,392.3252242999988,f,1,1.9245960999996896,None,left,17,"[20, 17, 18, 17, 18, 17, 18, 16, 20, 19, 20, 19, 20, 19, 20, 18, 20, 14, 17, 16, 17]",21,shiftedgaze_L_17.png,f,1,3,results8,001,2026-04-13_14h15.55.382,mogelijke versie adaptive staircase builder,,2026.1.3,59.981022004584744,2026-04-13 14h15.55.602584 +0200,
20.5,ecc10neg,right,43,0,43,j,0,2.5006691999988107,None,0,2,2,2,43,0,43,0,392.4154187000004,,,,,,,,,,,,,,,392.40481799999907,392.4154187000004,392.4154187000004,393.32482849999906,392.4154187000004,394.9251480999992,j,0,2.5006691999988107,None,left,16,"[20, 17, 18, 17, 18, 17, 18, 16, 20, 19, 20, 19, 20, 19, 20, 18, 20, 14, 17, 16, 17, 16]",22,shiftedgaze_L_16.png,j,0,3,results8,001,2026-04-13_14h15.55.382,mogelijke versie adaptive staircase builder,,2026.1.3,59.981022004584744,2026-04-13 14h15.55.602584 +0200,
20.5,ecc10neg,right,44,0,44,f,0,1.821233000000575,None,0,2,2,2,44,0,44,0,395.05482089999896,,,,,,,,,,,,,,,395.0072796000004,395.05482089999896,395.05482089999896,395.92470259999936,395.05482089999896,396.89158300000054,f,0,1.821233000000575,None,direct,17,"[20, 17, 18, 17, 18, 17, 18, 16, 20, 19, 20, 19, 20, 19, 20, 18, 20, 14, 17, 16, 17, 16]",22,shifteddirectgaze.png,f,0,3,results8,001,2026-04-13_14h15.55.382,mogelijke versie adaptive staircase builder,,2026.1.3,59.981022004584744,2026-04-13 14h15.55.602584 +0200,
20.5,ecc10neg,right,45,0,45,j,1,1.7883401999988564,None,0,2,2,2,45,0,45,0,396.98370889999933,,,,,,,,,,,,,,,396.9731472000003,396.98370889999933,396.98370889999933,397.8914468999992,396.98370889999933,398.77506899999935,j,1,1.7883401999988564,None,direct,18,"[20, 17, 18, 17, 18, 17, 18, 16, 20, 19, 20, 19, 20, 19, 20, 18, 20, 14, 17, 16, 17, 16, 18]",23,shifteddirectgaze.png,j,1,3,results8,001,2026-04-13_14h15.55.382,mogelijke versie adaptive staircase builder,,2026.1.3,59.981022004584744,2026-04-13 14h15.55.602584 +0200,
20.5,ecc10neg,right,46,0,46,j,0,2.2971031999986735,None,0,2,2,2,46,0,46,0,398.89101429999937,,,,,,,,,,,,,,,398.88002159999996,398.89101429999937,398.89101429999937,399.7748821999994,398.89101429999937,401.1915147999989,j,0,2.2971031999986735,None,right,17,"[20, 17, 18, 17, 18, 17, 18, 16, 20, 19, 20, 19, 20, 19, 20, 18, 20, 14, 17, 16, 17, 16, 18, 17]",24,shiftedgaze_R_17.png,j,0,3,results8,001,2026-04-13_14h15.55.382,mogelijke versie adaptive staircase builder,,2026.1.3,59.981022004584744,2026-04-13 14h15.55.602584 +0200,
20.5,ecc10neg,right,47,0,47,j,1,2.029866000000766,None,0,2,2,2,47,0,47,0,401.3022380000002,,,,,,,,,,,,,,,401.2907804999995,401.3022380000002,401.3022380000002,402.19138360000034,401.3022380000002,403.3417099999988,j,1,2.029866000000766,None,direct,18,"[20, 17, 18, 17, 18, 17, 18, 16, 20, 19, 20, 19, 20, 19, 20, 18, 20, 14, 17, 16, 17, 16, 18, 17, 18]",25,shifteddirectgaze.png,j,1,3,results8,001,2026-04-13_14h15.55.382,mogelijke versie adaptive staircase builder,,2026.1.3,59.981022004584744,2026-04-13 14h15.55.602584 +0200,
20.5,ecc10neg,right,48,0,48,f,0,2.4279748999997537,None,0,2,2,2,48,0,48,0,403.43212180000046,,,,,,,,,,,,,,,403.4209613000003,403.43212180000046,403.43212180000046,404.34151199999906,403.43212180000046,405.8750326999998,f,0,2.4279748999997537,None,direct,17,"[20, 17, 18, 17, 18, 17, 18, 16, 20, 19, 20, 19, 20, 19, 20, 18, 20, 14, 17, 16, 17, 16, 18, 17, 18, 17]",26,shifteddirectgaze.png,f,0,3,results8,001,2026-04-13_14h15.55.382,mogelijke versie adaptive staircase builder,,2026.1.3,59.981022004584744,2026-04-13 14h15.55.602584 +0200,
20.5,ecc10neg,right,49,0,49,j,1,2.4061596999999892,None,0,2,2,2,49,0,49,0,405.9659539000004,,,,,,,,,,,,,,,405.9553870999989,405.9659539000004,405.9659539000004,406.87482009999985,405.9659539000004,408.37502510000013,j,1,2.4061596999999892,None,direct,18,"[20, 17, 18, 17, 18, 17, 18, 16, 20, 19, 20, 19, 20, 19, 20, 18, 20, 14, 17, 16, 17, 16, 18, 17, 18, 17, 18]",27,shifteddirectgaze.png,j,1,3,results8,001,2026-04-13_14h15.55.382,mogelijke versie adaptive staircase builder,,2026.1.3,59.981022004584744,2026-04-13 14h15.55.602584 +0200,
20.5,ecc10neg,right,50,0,50,j,1,2.2872981000000436,None,0,2,2,2,50,0,50,0,408.46881360000043,,,,,,,,,,,,,,,408.4574627000002,408.46881360000043,408.46881360000043,409.37477670000044,408.46881360000043,410.75821890000043,j,1,2.2872981000000436,None,direct,17,"[20, 17, 18, 17, 18, 17, 18, 16, 20, 19, 20, 19, 20, 19, 20, 18, 20, 14, 17, 16, 17, 16, 18, 17, 18, 17, 18]",27,shifteddirectgaze.png,j,1,3,results8,001,2026-04-13_14h15.55.382,mogelijke versie adaptive staircase builder,,2026.1.3,59.981022004584744,2026-04-13 14h15.55.602584 +0200,
20.5,ecc10neg,right,51,0,51,f,1,2.5067703000004258,None,0,2,2,2,51,0,51,0,410.8493469999994,,,,,,,,,,,,,,,410.8385763999995,410.8493469999994,410.8493469999994,411.757908399999,410.8493469999994,413.3581918999989,f,1,2.5067703000004258,None,left,16,"[20, 17, 18, 17, 18, 17, 18, 16, 20, 19, 20, 19, 20, 19, 20, 18, 20, 14, 17, 16, 17, 16, 18, 17, 18, 17, 18]",27,shiftedgaze_L_16.png,f,1,3,results8,001,2026-04-13_14h15.55.382,mogelijke versie adaptive staircase builder,,2026.1.3,59.981022004584744,2026-04-13 14h15.55.602584 +0200,
20.5,ecc10neg,right,52,0,52,f,0,1.9918029000000388,None,0,2,2,2,52,0,52,0,413.45225649999884,,,,,,,,,,,,,,,413.44080329999997,413.45225649999884,413.45225649999884,414.357850299999,413.45225649999884,415.4581331999998,f,0,1.9918029000000388,None,direct,15,"[20, 17, 18, 17, 18, 17, 18, 16, 20, 19, 20, 19, 20, 19, 20, 18, 20, 14, 17, 16, 17, 16, 18, 17, 18, 17, 18, 15]",28,shifteddirectgaze.png,f,0,3,results8,001,2026-04-13_14h15.55.382,mogelijke versie adaptive staircase builder,,2026.1.3,59.981022004584744,2026-04-13 14h15.55.602584 +0200,
20.5,ecc10neg,right,53,0,53,f,1,1.9233029999995779,None,0,2,2,2,53,0,53,0,415.57679669999925,,,,,,,,,,,,,,,415.5652111999989,415.57679669999925,415.57679669999925,416.4580109999988,415.57679669999925,417.50819779999983,f,1,1.9233029999995779,None,right,16,"[20, 17, 18, 17, 18, 17, 18, 16, 20, 19, 20, 19, 20, 19, 20, 18, 20, 14, 17, 16, 17, 16, 18, 17, 18, 17, 18, 15, 16]",29,shiftedgaze_R_16.png,f,1,3,results8,001,2026-04-13_14h15.55.382,mogelijke versie adaptive staircase builder,,2026.1.3,59.981022004584744,2026-04-13 14h15.55.602584 +0200,
20.5,ecc10neg,right,54,0,54,j,0,2.337869999999384,None,0,2,2,2,54,0,54,0,417.6271137999993,,,,,,,,,,,,,,,417.6160792999999,417.6271137999993,417.6271137999993,418.5080177,417.6271137999993,419.97483830000056,j,0,2.337869999999384,None,left,15,"[20, 17, 18, 17, 18, 17, 18, 16, 20, 19, 20, 19, 20, 19, 20, 18, 20, 14, 17, 16, 17, 16, 18, 17, 18, 17, 18, 15, 16, 15]",30,shiftedgaze_L_15.png,j,0,3,results8,001,2026-04-13_14h15.55.382,mogelijke versie adaptive staircase builder,,2026.1.3,59.981022004584744,2026-04-13 14h15.55.602584 +0200,
20.5,ecc10neg,right,55,0,55,f,1,2.098652000000584,None,0,2,2,2,55,0,55,0,420.0974477999989,,,,,,,,,,,,,,,420.08556829999907,420.0974477999989,420.0974477999989,420.97431359999973,420.0974477999989,422.208094399999,f,1,2.098652000000584,None,right,16,"[20, 17, 18, 17, 18, 17, 18, 16, 20, 19, 20, 19, 20, 19, 20, 18, 20, 14, 17, 16, 17, 16, 18, 17, 18, 17, 18, 15, 16, 15, 16]",31,shiftedgaze_R_16.png,f,1,3,results8,001,2026-04-13_14h15.55.382,mogelijke versie adaptive staircase builder,,2026.1.3,59.981022004584744,2026-04-13 14h15.55.602584 +0200,
20.5,ecc10neg,right,56,0,56,f,1,2.0906648999989557,None,0,2,2,2,56,0,56,0,422.32142600000043,,,,,,,,,,,,,,,422.3109320000003,422.32142600000043,422.32142600000043,423.20780340000056,422.32142600000043,424.4245637999993,f,1,2.0906648999989557,None,left,15,"[20, 17, 18, 17, 18, 17, 18, 16, 20, 19, 20, 19, 20, 19, 20, 18, 20, 14, 17, 16, 17, 16, 18, 17, 18, 17, 18, 15, 16, 15, 16]",31,shiftedgaze_L_15.png,f,1,3,results8,001,2026-04-13_14h15.55.382,mogelijke versie adaptive staircase builder,,2026.1.3,59.981022004584744,2026-04-13 14h15.55.602584 +0200,
20.5,ecc10neg,right,57,0,57,f,1,1.8084015000004001,None,0,2,2,2,57,0,57,0,424.52374690000033,,,,,,,,,,,,,,,424.51285069999903,424.52374690000033,424.52374690000033,425.42442780000056,424.52374690000033,426.34136099999887,f,1,1.8084015000004001,None,left,14,"[20, 17, 18, 17, 18, 17, 18, 16, 20, 19, 20, 19, 20, 19, 20, 18, 20, 14, 17, 16, 17, 16, 18, 17, 18, 17, 18, 15, 16, 15, 16]",31,shiftedgaze_L_14.png,f,1,3,results8,001,2026-04-13_14h15.55.382,mogelijke versie adaptive staircase builder,,2026.1.3,59.981022004584744,2026-04-13 14h15.55.602584 +0200,
20.5,ecc10neg,right,58,0,58,f,0,2.6037662999988243,None,0,2,2,2,58,0,58,0,426.4324517999994,,,,,,,,,,,,,,,426.4220664000004,426.4324517999994,426.4324517999994,427.34118390000003,426.4324517999994,429.04146279999986,f,0,2.6037662999988243,None,direct,13,"[20, 17, 18, 17, 18, 17, 18, 16, 20, 19, 20, 19, 20, 19, 20, 18, 20, 14, 17, 16, 17, 16, 18, 17, 18, 17, 18, 15, 16, 15, 16, 13]",32,shifteddirectgaze.png,f,0,3,results8,001,2026-04-13_14h15.55.382,mogelijke versie adaptive staircase builder,,2026.1.3,59.981022004584744,2026-04-13 14h15.55.602584 +0200,
20.5,ecc10neg,right,59,0,59,f,1,2.414857399999164,None,0,2,2,2,59,0,59,0,429.13319860000047,,,,,,,,,,,,,,,429.1227600000002,429.13319860000047,429.13319860000047,430.04093739999917,429.13319860000047,431.55783169999995,f,1,2.414857399999164,None,left,14,"[20, 17, 18, 17, 18, 17, 18, 16, 20, 19, 20, 19, 20, 19, 20, 18, 20, 14, 17, 16, 17, 16, 18, 17, 18, 17, 18, 15, 16, 15, 16, 13, 14]",33,shiftedgaze_L_14.png,f,1,3,results8,001,2026-04-13_14h15.55.382,mogelijke versie adaptive staircase builder,,2026.1.3,59.981022004584744,2026-04-13 14h15.55.602584 +0200,
20.5,ecc10neg,right,2,2,0,,,,,0,2,2,2,,,,,,,,,,,,,,,,,,,,,,,,,,,,,,,,,,,,,,results8,001,2026-04-13_14h15.55.382,mogelijke versie adaptive staircase builder,,2026.1.3,59.981022004584744,2026-04-13 14h15.55.602584 +0200,
