xPos,stimulusSet,whichImage,thisN,thisTrialN,thisRepN,key_resp.keys,key_resp.corr,key_resp.rt,key_resp.duration,blocks.thisRepN,blocks.thisTrialN,blocks.thisN,blocks.thisIndex,trials.thisRepN,trials.thisTrialN,trials.thisN,trials.thisIndex,thisRow.t,notes,piloting,intro.started,introinstructions.started,intro_key.started,demo_image_left.started,demo_image_middle.started,demo_image_right.started,intro.stopped,intro_key.keys,intro_key.rt,intro_key.duration,block_start.started,block_start.stopped,trial.started,key_resp.started,middle_image.started,right_image.started,left_image.started,trial.stopped,trials.key_resp.keys,trials.key_resp.corr,trials.key_resp.rt,trials.key_resp.duration,direction,angle,reversal_intensities,number_reversals,stimulus,response,correct,blockNumber,participant,session,date,expName,expVersion,psychopyVersion,frameRate,expStart,
,,,,,,,,,,,,,,,,,,,,False,0.056772299999920506,0.06811629999992874,0.06811629999992874,0.06811629999992874,0.06811629999992874,0.06811629999992874,1667.9484346,space,1667.7502544999998,0.12788980000004813,,,,,,,,,,,,,,,,,,,,,results24,001,2026-04-20_10h42.42.166,mogelijke versie adaptive staircase builder,,2026.1.3,60.05309895013105,2026-04-20 10h42.42.503344 +0200,
4.5,ecc10pos,left,0,0,0,j,1,2.6930982000003496,None,0,0,0,0,0,0,0,0,1668.749178,,,,,,,,,,,,,1668.5959125999998,1668.5959727999998,1668.7383135999999,1668.749178,1668.749178,1668.749178,1669.5979498999995,1671.4483018,j,1,2.6930982000003496,None,direct,20,[],0,shifteddirectgaze.png,j,1,1,results24,001,2026-04-20_10h42.42.166,mogelijke versie adaptive staircase builder,,2026.1.3,60.05309895013105,2026-04-20 10h42.42.503344 +0200,
4.5,ecc10pos,left,1,0,1,j,1,2.1562033999998675,None,0,0,0,0,1,0,1,0,1671.5422608999997,,,,,,,,,,,,,,,1671.5305797,1671.5422608999997,1671.5422608999997,1671.5422608999997,1672.4479713,1673.7149708999996,j,1,2.1562033999998675,None,direct,19,[],0,shifteddirectgaze.png,j,1,1,results24,001,2026-04-20_10h42.42.166,mogelijke versie adaptive staircase builder,,2026.1.3,60.05309895013105,2026-04-20 10h42.42.503344 +0200,
4.5,ecc10pos,left,2,0,2,j,0,1.8323743000000832,None,0,0,0,0,2,0,2,0,1673.9859110999996,,,,,,,,,,,,,,,1673.9730451999994,1673.9859110999996,1673.9859110999996,1673.9859110999996,1674.7146482999997,1675.8315960999998,j,0,1.8323743000000832,None,left,18,[18],1,shiftedgaze_L_18.png,j,0,1,results24,001,2026-04-20_10h42.42.166,mogelijke versie adaptive staircase builder,,2026.1.3,60.05309895013105,2026-04-20 10h42.42.503344 +0200,
4.5,ecc10pos,left,3,0,3,f,0,1.8440160000000105,None,0,0,0,0,3,0,3,0,1675.9423668,,,,,,,,,,,,,,,1675.9306473999995,1675.9423668,1675.9423668,1675.9423668,1676.8311566000002,1677.7984387999995,f,0,1.8440160000000105,None,direct,19,[18],1,shifteddirectgaze.png,f,0,1,results24,001,2026-04-20_10h42.42.166,mogelijke versie adaptive staircase builder,,2026.1.3,60.05309895013105,2026-04-20 10h42.42.503344 +0200,
4.5,ecc10pos,left,4,0,4,f,0,1.688202199999978,None,0,0,0,0,4,0,4,0,1677.8901618,,,,,,,,,,,,,,,1677.8793486999994,1677.8901618,1677.8901618,1677.8901618,1678.7979930000001,1679.5816322,f,0,1.688202199999978,None,direct,20,[18],1,shifteddirectgaze.png,f,0,1,results24,001,2026-04-20_10h42.42.166,mogelijke versie adaptive staircase builder,,2026.1.3,60.05309895013105,2026-04-20 10h42.42.503344 +0200,
4.5,ecc10pos,left,5,0,5,f,1,2.648718700000245,None,0,0,0,0,5,0,5,0,1679.7855695999997,,,,,,,,,,,,,,,1679.7738506999995,1679.7855695999997,1679.7855695999997,1679.7855695999997,1680.5813936999994,1682.4482626999998,f,1,2.648718700000245,None,right,20,"[18, 20]",2,shiftedgaze_R_20.png,f,1,1,results24,001,2026-04-20_10h42.42.166,mogelijke versie adaptive staircase builder,,2026.1.3,60.05309895013105,2026-04-20 10h42.42.503344 +0200,
4.5,ecc10pos,left,6,0,6,f,0,3.254323299999669,None,0,0,0,0,6,0,6,0,1682.5398718999995,,,,,,,,,,,,,,,1682.5294205999999,1682.5398718999995,1682.5398718999995,1682.5398718999995,1683.4478799999997,1685.7981344,f,0,3.254323299999669,None,direct,19,"[18, 20, 19]",3,shifteddirectgaze.png,f,0,1,results24,001,2026-04-20_10h42.42.166,mogelijke versie adaptive staircase builder,,2026.1.3,60.05309895013105,2026-04-20 10h42.42.503344 +0200,
4.5,ecc10pos,left,7,0,7,j,1,2.245966000000408,None,0,0,0,0,7,0,7,0,1685.8922016999995,,,,,,,,,,,,,,,1685.8811079999996,1685.8922016999995,1685.8922016999995,1685.8922016999995,1686.7977835000002,1688.1482121,j,1,2.245966000000408,None,direct,20,"[18, 20, 19, 20]",4,shifteddirectgaze.png,j,1,1,results24,001,2026-04-20_10h42.42.166,mogelijke versie adaptive staircase builder,,2026.1.3,60.05309895013105,2026-04-20 10h42.42.503344 +0200,
4.5,ecc10pos,left,8,0,8,j,0,1.5081638000001476,None,0,0,0,0,8,0,8,0,1688.3741210999997,,,,,,,,,,,,,,,1688.3640140999996,1688.3741210999997,1688.3741210999997,1688.3741210999997,1689.1476966,1689.8981053999996,j,0,1.5081638000001476,None,right,19,"[18, 20, 19, 20, 19]",5,shiftedgaze_R_19.png,j,0,1,results24,001,2026-04-20_10h42.42.166,mogelijke versie adaptive staircase builder,,2026.1.3,60.05309895013105,2026-04-20 10h42.42.503344 +0200,
4.5,ecc10pos,left,9,0,9,f,0,1.9912703999998485,None,0,0,0,0,9,0,9,0,1690.0028660999997,,,,,,,,,,,,,,,1689.991857,1690.0028660999997,1690.0028660999997,1690.0028660999997,1690.8976900999996,1691.9980475000002,f,0,1.9912703999998485,None,direct,20,"[18, 20, 19, 20, 19]",5,shifteddirectgaze.png,f,0,1,results24,001,2026-04-20_10h42.42.166,mogelijke versie adaptive staircase builder,,2026.1.3,60.05309895013105,2026-04-20 10h42.42.503344 +0200,
4.5,ecc10pos,left,10,0,10,f,1,3.18981470000017,None,0,0,0,0,10,0,10,0,1692.0924741999997,,,,,,,,,,,,,,,1692.0823156999995,1692.0924741999997,1692.0924741999997,1692.0924741999997,1692.9976823999996,1695.2981761,f,1,3.18981470000017,None,right,20,"[18, 20, 19, 20, 19, 20]",6,shiftedgaze_R_20.png,f,1,1,results24,001,2026-04-20_10h42.42.166,mogelijke versie adaptive staircase builder,,2026.1.3,60.05309895013105,2026-04-20 10h42.42.503344 +0200,
4.5,ecc10pos,left,11,0,11,f,1,2.2088690999999017,None,0,0,0,0,11,0,11,0,1695.4175272000002,,,,,,,,,,,,,,,1695.4034643999994,1695.4175272000002,1695.4175272000002,1695.4175272000002,1696.2976874999995,1697.6312423,f,1,2.2088690999999017,None,right,19,"[18, 20, 19, 20, 19, 20]",6,shiftedgaze_R_19.png,f,1,1,results24,001,2026-04-20_10h42.42.166,mogelijke versie adaptive staircase builder,,2026.1.3,60.05309895013105,2026-04-20 10h42.42.503344 +0200,
4.5,ecc10pos,left,12,0,12,j,1,2.7688439999992625,None,0,0,0,0,12,0,12,0,1697.7374644000001,,,,,,,,,,,,,,,1697.7277843000002,1697.7374644000001,1697.7374644000001,1697.7374644000001,1698.6309092000001,1700.5145831999998,j,1,2.7688439999992625,None,direct,18,"[18, 20, 19, 20, 19, 20]",6,shifteddirectgaze.png,j,1,1,results24,001,2026-04-20_10h42.42.166,mogelijke versie adaptive staircase builder,,2026.1.3,60.05309895013105,2026-04-20 10h42.42.503344 +0200,
4.5,ecc10pos,left,13,0,13,f,1,1.6671415999999226,None,0,0,0,0,13,0,13,0,1700.9912280999997,,,,,,,,,,,,,,,1700.979926,1700.9912280999997,1700.9912280999997,1700.9912280999997,1701.5142445000001,1702.6648132999999,f,1,1.6671415999999226,None,left,17,"[18, 20, 19, 20, 19, 20]",6,shiftedgaze_L_17.png,f,1,1,results24,001,2026-04-20_10h42.42.166,mogelijke versie adaptive staircase builder,,2026.1.3,60.05309895013105,2026-04-20 10h42.42.503344 +0200,
4.5,ecc10pos,left,14,0,14,j,1,3.3483981999997923,None,0,0,0,0,14,0,14,0,1702.7818373999999,,,,,,,,,,,,,,,1702.7707578999998,1702.7818373999999,1702.7818373999999,1702.7818373999999,1703.6642485000002,1706.1312643,j,1,3.3483981999997923,None,direct,16,"[18, 20, 19, 20, 19, 20]",6,shifteddirectgaze.png,j,1,1,results24,001,2026-04-20_10h42.42.166,mogelijke versie adaptive staircase builder,,2026.1.3,60.05309895013105,2026-04-20 10h42.42.503344 +0200,
4.5,ecc10pos,left,15,0,15,f,1,3.0095596999999543,None,0,0,0,0,15,0,15,0,1706.3449259,,,,,,,,,,,,,,,1706.3350197,1706.3449259,1706.3449259,1706.3449259,1707.1309652999998,1709.3644834999996,f,1,3.0095596999999543,None,left,15,"[18, 20, 19, 20, 19, 20]",6,shiftedgaze_L_15.png,f,1,1,results24,001,2026-04-20_10h42.42.166,mogelijke versie adaptive staircase builder,,2026.1.3,60.05309895013105,2026-04-20 10h42.42.503344 +0200,
4.5,ecc10pos,left,16,0,16,f,1,3.100489099999322,None,0,0,0,0,16,0,16,0,1709.5898234999995,,,,,,,,,,,,,,,1709.5803047,1709.5898234999995,1709.5898234999995,1709.5898234999995,1710.3640643999997,1712.6977566999994,f,1,3.100489099999322,None,right,14,"[18, 20, 19, 20, 19, 20]",6,shiftedgaze_R_14.png,f,1,1,results24,001,2026-04-20_10h42.42.166,mogelijke versie adaptive staircase builder,,2026.1.3,60.05309895013105,2026-04-20 10h42.42.503344 +0200,
4.5,ecc10pos,left,17,0,17,j,0,3.15136960000018,None,0,0,0,0,17,0,17,0,1712.9148810999995,,,,,,,,,,,,,,,1712.9036237,1712.9148810999995,1712.9148810999995,1712.9148810999995,1713.6974627,1716.0812096,j,0,3.15136960000018,None,right,13,"[18, 20, 19, 20, 19, 20, 13]",7,shiftedgaze_R_13.png,j,0,1,results24,001,2026-04-20_10h42.42.166,mogelijke versie adaptive staircase builder,,2026.1.3,60.05309895013105,2026-04-20 10h42.42.503344 +0200,
4.5,ecc10pos,left,18,0,18,j,0,2.8639802000006966,None,0,0,0,0,18,0,18,0,1716.1782512999998,,,,,,,,,,,,,,,1716.1678673999995,1716.1782512999998,1716.1782512999998,1716.1782512999998,1717.0807705999996,1719.0476413999995,j,0,2.8639802000006966,None,right,14,"[18, 20, 19, 20, 19, 20, 13]",7,shiftedgaze_R_14.png,j,0,1,results24,001,2026-04-20_10h42.42.166,mogelijke versie adaptive staircase builder,,2026.1.3,60.05309895013105,2026-04-20 10h42.42.503344 +0200,
4.5,ecc10pos,left,19,0,19,f,1,4.087310900000375,None,0,0,0,0,19,0,19,0,1719.1549138999999,,,,,,,,,,,,,,,1719.1435575999994,1719.1549138999999,1719.1549138999999,1719.1549138999999,1720.0473433999996,1723.2475367999996,f,1,4.087310900000375,None,left,15,"[18, 20, 19, 20, 19, 20, 13, 15]",8,shiftedgaze_L_15.png,f,1,1,results24,001,2026-04-20_10h42.42.166,mogelijke versie adaptive staircase builder,,2026.1.3,60.05309895013105,2026-04-20 10h42.42.503344 +0200,
4.5,ecc10pos,left,20,0,20,f,1,2.3578184999996665,None,0,0,0,0,20,0,20,0,1723.3567419,,,,,,,,,,,,,,,1723.3466792999998,1723.3567419,1723.3567419,1723.3567419,1724.2474243999995,1725.7311142999997,f,1,2.3578184999996665,None,right,14,"[18, 20, 19, 20, 19, 20, 13, 15]",8,shiftedgaze_R_14.png,f,1,1,results24,001,2026-04-20_10h42.42.166,mogelijke versie adaptive staircase builder,,2026.1.3,60.05309895013105,2026-04-20 10h42.42.503344 +0200,
4.5,ecc10pos,left,21,0,21,f,0,2.4030543999997462,None,0,0,0,0,21,0,21,0,1725.8312330999997,,,,,,,,,,,,,,,1725.8208893,1725.8312330999997,1725.8312330999997,1725.8312330999997,1726.7305166999995,1728.2475511000002,f,0,2.4030543999997462,None,direct,13,"[18, 20, 19, 20, 19, 20, 13, 15, 13]",9,shifteddirectgaze.png,f,0,1,results24,001,2026-04-20_10h42.42.166,mogelijke versie adaptive staircase builder,,2026.1.3,60.05309895013105,2026-04-20 10h42.42.503344 +0200,
4.5,ecc10pos,left,22,0,22,f,1,3.601375100000041,None,0,0,0,0,22,0,22,0,1728.3449706000001,,,,,,,,,,,,,,,1728.3341088999996,1728.3449706000001,1728.3449706000001,1728.3449706000001,1729.2472658999995,1731.9475469999998,f,1,3.601375100000041,None,right,14,"[18, 20, 19, 20, 19, 20, 13, 15, 13, 14]",10,shiftedgaze_R_14.png,f,1,1,results24,001,2026-04-20_10h42.42.166,mogelijke versie adaptive staircase builder,,2026.1.3,60.05309895013105,2026-04-20 10h42.42.503344 +0200,
4.5,ecc10pos,left,23,0,23,j,1,3.422582500000317,None,0,0,0,0,23,0,23,0,1732.0437018000002,,,,,,,,,,,,,,,1732.0332853,1732.0437018000002,1732.0437018000002,1732.0437018000002,1732.9472249,1735.4807763999997,j,1,3.422582500000317,None,direct,13,"[18, 20, 19, 20, 19, 20, 13, 15, 13, 14]",10,shifteddirectgaze.png,j,1,1,results24,001,2026-04-20_10h42.42.166,mogelijke versie adaptive staircase builder,,2026.1.3,60.05309895013105,2026-04-20 10h42.42.503344 +0200,
4.5,ecc10pos,left,24,0,24,j,0,1.6680860999995275,None,0,0,0,0,24,0,24,0,1735.9501830999998,,,,,,,,,,,,,,,1735.9391925999998,1735.9501830999998,1735.9501830999998,1735.9501830999998,1736.4803602000002,1737.6308715999994,j,0,1.6680860999995275,None,right,12,"[18, 20, 19, 20, 19, 20, 13, 15, 13, 14, 12]",11,shiftedgaze_R_12.png,j,0,1,results24,001,2026-04-20_10h42.42.166,mogelijke versie adaptive staircase builder,,2026.1.3,60.05309895013105,2026-04-20 10h42.42.503344 +0200,
4.5,ecc10pos,left,25,0,25,j,0,2.4407406000000265,None,0,0,0,0,25,0,25,0,1737.841601,,,,,,,,,,,,,,,1737.8314292999994,1737.841601,1737.841601,1737.841601,1738.6305140999993,1740.297458,j,0,2.4407406000000265,None,left,13,"[18, 20, 19, 20, 19, 20, 13, 15, 13, 14, 12]",11,shiftedgaze_L_13.png,j,0,1,results24,001,2026-04-20_10h42.42.166,mogelijke versie adaptive staircase builder,,2026.1.3,60.05309895013105,2026-04-20 10h42.42.503344 +0200,
4.5,ecc10pos,left,26,0,26,j,0,2.321348399999806,None,0,0,0,0,26,0,26,0,1740.4091965999996,,,,,,,,,,,,,,,1740.3979498999997,1740.4091965999996,1740.4091965999996,1740.4091965999996,1741.2970514999997,1742.7474135000002,j,0,2.321348399999806,None,left,14,"[18, 20, 19, 20, 19, 20, 13, 15, 13, 14, 12]",11,shiftedgaze_L_14.png,j,0,1,results24,001,2026-04-20_10h42.42.166,mogelijke versie adaptive staircase builder,,2026.1.3,60.05309895013105,2026-04-20 10h42.42.503344 +0200,
4.5,ecc10pos,left,27,0,27,f,0,2.8128634999993665,None,0,0,0,0,27,0,27,0,1742.8455944999996,,,,,,,,,,,,,,,1742.8341439999995,1742.8455944999996,1742.8455944999996,1742.8455944999996,1743.7470875999998,1745.6642247999998,f,0,2.8128634999993665,None,direct,15,"[18, 20, 19, 20, 19, 20, 13, 15, 13, 14, 12]",11,shifteddirectgaze.png,f,0,1,results24,001,2026-04-20_10h42.42.166,mogelijke versie adaptive staircase builder,,2026.1.3,60.05309895013105,2026-04-20 10h42.42.503344 +0200,
4.5,ecc10pos,left,28,0,28,j,0,2.93331709999984,None,0,0,0,0,28,0,28,0,1745.8050254,,,,,,,,,,,,,,,1745.7947552999995,1745.8050254,1745.8050254,1745.8050254,1746.6635551,1748.7473488999995,j,0,2.93331709999984,None,right,16,"[18, 20, 19, 20, 19, 20, 13, 15, 13, 14, 12]",11,shiftedgaze_R_16.png,j,0,1,results24,001,2026-04-20_10h42.42.166,mogelijke versie adaptive staircase builder,,2026.1.3,60.05309895013105,2026-04-20 10h42.42.503344 +0200,
4.5,ecc10pos,left,29,0,29,f,0,2.660762099999374,None,0,0,0,0,29,0,29,0,1748.8455801,,,,,,,,,,,,,,,1748.8345061999999,1748.8455801,1748.8455801,1748.8455801,1749.7469069999997,1751.5139853,f,0,2.660762099999374,None,direct,17,"[18, 20, 19, 20, 19, 20, 13, 15, 13, 14, 12]",11,shifteddirectgaze.png,f,0,1,results24,001,2026-04-20_10h42.42.166,mogelijke versie adaptive staircase builder,,2026.1.3,60.05309895013105,2026-04-20 10h42.42.503344 +0200,
4.5,ecc10pos,left,30,0,30,j,0,2.4425320999998803,None,0,0,0,0,30,0,30,0,1751.7918251,,,,,,,,,,,,,,,1751.7809766,1751.7918251,1751.7918251,1751.7918251,1752.5135261999994,1754.2471995999995,j,0,2.4425320999998803,None,right,18,"[18, 20, 19, 20, 19, 20, 13, 15, 13, 14, 12]",11,shiftedgaze_R_18.png,j,0,1,results24,001,2026-04-20_10h42.42.166,mogelijke versie adaptive staircase builder,,2026.1.3,60.05309895013105,2026-04-20 10h42.42.503344 +0200,
4.5,ecc10pos,left,31,0,31,j,0,3.0149806999997963,None,0,0,0,0,31,0,31,0,1754.3560142999995,,,,,,,,,,,,,,,1754.3454493999998,1754.3560142999995,1754.3560142999995,1754.3560142999995,1755.2468498999997,1757.3805072999994,j,0,3.0149806999997963,None,right,19,"[18, 20, 19, 20, 19, 20, 13, 15, 13, 14, 12]",11,shiftedgaze_R_19.png,j,0,1,results24,001,2026-04-20_10h42.42.166,mogelijke versie adaptive staircase builder,,2026.1.3,60.05309895013105,2026-04-20 10h42.42.503344 +0200,
4.5,ecc10pos,left,32,0,32,f,1,2.1050794000002497,None,0,0,0,0,32,0,32,0,1757.6812283,,,,,,,,,,,,,,,1757.6694130999995,1757.6812283,1757.6812283,1757.6812283,1758.3801429999994,1759.7972044999997,f,1,2.1050794000002497,None,left,20,"[18, 20, 19, 20, 19, 20, 13, 15, 13, 14, 12, 20]",12,shiftedgaze_L_20.png,f,1,1,results24,001,2026-04-20_10h42.42.166,mogelijke versie adaptive staircase builder,,2026.1.3,60.05309895013105,2026-04-20 10h42.42.503344 +0200,
4.5,ecc10pos,left,33,0,33,f,0,2.209617700000308,None,0,0,0,0,33,0,33,0,1759.9127459000001,,,,,,,,,,,,,,,1759.9012843,1759.9127459000001,1759.9127459000001,1759.9127459000001,1760.7971327999994,1762.1305981999994,f,0,2.209617700000308,None,direct,19,"[18, 20, 19, 20, 19, 20, 13, 15, 13, 14, 12, 20, 19]",13,shifteddirectgaze.png,f,0,1,results24,001,2026-04-20_10h42.42.166,mogelijke versie adaptive staircase builder,,2026.1.3,60.05309895013105,2026-04-20 10h42.42.503344 +0200,
4.5,ecc10pos,left,34,0,34,j,0,1.5752277999999933,None,0,0,0,0,34,0,34,0,1762.2272548,,,,,,,,,,,,,,,1762.2164256999995,1762.2272548,1762.2272548,1762.2272548,1763.1301684999999,1763.8139375,j,0,1.5752277999999933,None,right,20,"[18, 20, 19, 20, 19, 20, 13, 15, 13, 14, 12, 20, 19]",13,shiftedgaze_R_20.png,j,0,1,results24,001,2026-04-20_10h42.42.166,mogelijke versie adaptive staircase builder,,2026.1.3,60.05309895013105,2026-04-20 10h42.42.503344 +0200,
4.5,ecc10pos,left,35,0,35,j,0,2.0998670999997557,None,0,0,0,0,35,0,35,0,1763.9104837999994,,,,,,,,,,,,,,,1763.8992610999994,1763.9104837999994,1763.9104837999994,1763.9104837999994,1764.8136734999998,1766.0137183999996,j,0,2.0998670999997557,None,right,20,"[18, 20, 19, 20, 19, 20, 13, 15, 13, 14, 12, 20, 19]",13,shiftedgaze_R_20.png,j,0,1,results24,001,2026-04-20_10h42.42.166,mogelijke versie adaptive staircase builder,,2026.1.3,60.05309895013105,2026-04-20 10h42.42.503344 +0200,
4.5,ecc10pos,left,36,0,36,j,0,3.872449200000119,None,0,0,0,0,36,0,36,0,1766.1380180999995,,,,,,,,,,,,,,,1766.1265082999998,1766.1380180999995,1766.1380180999995,1766.1380180999995,1767.0134999000002,1770.0137948000001,j,0,3.872449200000119,None,left,20,"[18, 20, 19, 20, 19, 20, 13, 15, 13, 14, 12, 20, 19]",13,shiftedgaze_L_20.png,j,0,1,results24,001,2026-04-20_10h42.42.166,mogelijke versie adaptive staircase builder,,2026.1.3,60.05309895013105,2026-04-20 10h42.42.503344 +0200,
4.5,ecc10pos,left,37,0,37,f,1,1.8956218000002991,None,0,0,0,0,37,0,37,0,1770.1310351000002,,,,,,,,,,,,,,,1770.1195071000002,1770.1310351000002,1770.1310351000002,1770.1310351000002,1771.0134305000001,1772.0302548999998,f,1,1.8956218000002991,None,right,20,"[18, 20, 19, 20, 19, 20, 13, 15, 13, 14, 12, 20, 19, 20]",14,shiftedgaze_R_20.png,f,1,1,results24,001,2026-04-20_10h42.42.166,mogelijke versie adaptive staircase builder,,2026.1.3,60.05309895013105,2026-04-20 10h42.42.503344 +0200,
4.5,ecc10pos,left,38,0,38,f,0,3.5955000000003565,None,0,0,0,0,38,0,38,0,1772.1269490999994,,,,,,,,,,,,,,,1772.1164546999998,1772.1269490999994,1772.1269490999994,1772.1269490999994,1773.0298211999998,1775.7302598999995,f,0,3.5955000000003565,None,direct,19,"[18, 20, 19, 20, 19, 20, 13, 15, 13, 14, 12, 20, 19, 20, 19]",15,shifteddirectgaze.png,f,0,1,results24,001,2026-04-20_10h42.42.166,mogelijke versie adaptive staircase builder,,2026.1.3,60.05309895013105,2026-04-20 10h42.42.503344 +0200,
4.5,ecc10pos,left,39,0,39,f,1,2.4740615999999136,None,0,0,0,0,39,0,39,0,1775.8562290999998,,,,,,,,,,,,,,,1775.8452312999998,1775.8562290999998,1775.8562290999998,1775.8562290999998,1776.7298935999997,1778.3468834999994,f,1,2.4740615999999136,None,left,20,"[18, 20, 19, 20, 19, 20, 13, 15, 13, 14, 12, 20, 19, 20, 19, 20]",16,shiftedgaze_L_20.png,f,1,1,results24,001,2026-04-20_10h42.42.166,mogelijke versie adaptive staircase builder,,2026.1.3,60.05309895013105,2026-04-20 10h42.42.503344 +0200,
4.5,ecc10pos,left,40,0,40,f,1,3.254299200000787,None,0,0,0,0,40,0,40,0,1778.4601278999999,,,,,,,,,,,,,,,1778.4478568999994,1778.4601278999999,1778.4601278999999,1778.4601278999999,1779.3464779999995,1781.7301737999996,f,1,3.254299200000787,None,right,19,"[18, 20, 19, 20, 19, 20, 13, 15, 13, 14, 12, 20, 19, 20, 19, 20]",16,shiftedgaze_R_19.png,f,1,1,results24,001,2026-04-20_10h42.42.166,mogelijke versie adaptive staircase builder,,2026.1.3,60.05309895013105,2026-04-20 10h42.42.503344 +0200,
4.5,ecc10pos,left,41,0,41,f,1,3.4011419000007663,None,0,0,0,0,41,0,41,0,1781.8332166,,,,,,,,,,,,,,,1781.8226826999999,1781.8332166,1781.8332166,1781.8332166,1782.7297749999998,1785.2467940999995,f,1,3.4011419000007663,None,right,18,"[18, 20, 19, 20, 19, 20, 13, 15, 13, 14, 12, 20, 19, 20, 19, 20]",16,shiftedgaze_R_18.png,f,1,1,results24,001,2026-04-20_10h42.42.166,mogelijke versie adaptive staircase builder,,2026.1.3,60.05309895013105,2026-04-20 10h42.42.503344 +0200,
4.5,ecc10pos,left,42,0,42,j,0,0.14815159999943717,None,0,0,0,0,42,0,42,0,1785.7502820999998,,,,,,,,,,,,,,,1785.7391945999998,1785.7502820999998,1785.7502820999998,1785.7502820999998,,1785.9134508999996,j,0,0.14815159999943717,None,right,17,"[18, 20, 19, 20, 19, 20, 13, 15, 13, 14, 12, 20, 19, 20, 19, 20, 17]",17,shiftedgaze_R_17.png,j,0,1,results24,001,2026-04-20_10h42.42.166,mogelijke versie adaptive staircase builder,,2026.1.3,60.05309895013105,2026-04-20 10h42.42.503344 +0200,
4.5,ecc10pos,left,43,0,43,j,0,2.180270799999562,None,0,0,0,0,43,0,43,0,1786.0381765000002,,,,,,,,,,,,,,,1786.0259895999998,1786.0381765000002,1786.0381765000002,1786.0381765000002,1786.9130629,1788.2300573000002,j,0,2.180270799999562,None,left,18,"[18, 20, 19, 20, 19, 20, 13, 15, 13, 14, 12, 20, 19, 20, 19, 20, 17]",17,shiftedgaze_L_18.png,j,0,1,results24,001,2026-04-20_10h42.42.166,mogelijke versie adaptive staircase builder,,2026.1.3,60.05309895013105,2026-04-20 10h42.42.503344 +0200,
4.5,ecc10pos,left,44,0,44,f,1,2.1768246000001454,None,0,0,0,0,44,0,44,0,1788.3455427999997,,,,,,,,,,,,,,,1788.3347752999998,1788.3455427999997,1788.3455427999997,1788.3455427999997,1789.229711,1790.5300422999999,f,1,2.1768246000001454,None,left,19,"[18, 20, 19, 20, 19, 20, 13, 15, 13, 14, 12, 20, 19, 20, 19, 20, 17, 19]",18,shiftedgaze_L_19.png,f,1,1,results24,001,2026-04-20_10h42.42.166,mogelijke versie adaptive staircase builder,,2026.1.3,60.05309895013105,2026-04-20 10h42.42.503344 +0200,
4.5,ecc10pos,left,45,0,45,j,0,5.381857299999865,None,0,0,0,0,45,0,45,0,1790.6447379,,,,,,,,,,,,,,,1790.6331997999996,1790.6447379,1790.6447379,1790.6447379,1791.5296156999993,1796.0300133,j,0,5.381857299999865,None,right,18,"[18, 20, 19, 20, 19, 20, 13, 15, 13, 14, 12, 20, 19, 20, 19, 20, 17, 19, 18]",19,shiftedgaze_R_18.png,j,0,1,results24,001,2026-04-20_10h42.42.166,mogelijke versie adaptive staircase builder,,2026.1.3,60.05309895013105,2026-04-20 10h42.42.503344 +0200,
4.5,ecc10pos,left,46,0,46,f,1,2.0255851000001712,None,0,0,0,0,46,0,46,0,1796.1528129999997,,,,,,,,,,,,,,,1796.1409133999996,1796.1528129999997,1796.1528129999997,1796.1528129999997,1797.0296693999999,1798.1798866,f,1,2.0255851000001712,None,left,19,"[18, 20, 19, 20, 19, 20, 13, 15, 13, 14, 12, 20, 19, 20, 19, 20, 17, 19, 18, 19]",20,shiftedgaze_L_19.png,f,1,1,results24,001,2026-04-20_10h42.42.166,mogelijke versie adaptive staircase builder,,2026.1.3,60.05309895013105,2026-04-20 10h42.42.503344 +0200,
4.5,ecc10pos,left,47,0,47,j,0,2.6809393000003183,None,0,0,0,0,47,0,47,0,1798.2975859999997,,,,,,,,,,,,,,,1798.2860185,1798.2975859999997,1798.2975859999997,1798.2975859999997,1799.1797021000002,1800.9799739,j,0,2.6809393000003183,None,right,18,"[18, 20, 19, 20, 19, 20, 13, 15, 13, 14, 12, 20, 19, 20, 19, 20, 17, 19, 18, 19, 18]",21,shiftedgaze_R_18.png,j,0,1,results24,001,2026-04-20_10h42.42.166,mogelijke versie adaptive staircase builder,,2026.1.3,60.05309895013105,2026-04-20 10h42.42.503344 +0200,
4.5,ecc10pos,left,48,0,48,j,0,3.4035313999993377,None,0,0,0,0,48,0,48,0,1801.0868155999997,,,,,,,,,,,,,,,1801.0767636,1801.0868155999997,1801.0868155999997,1801.0868155999997,1801.9795706999994,1804.4967158999998,j,0,3.4035313999993377,None,right,19,"[18, 20, 19, 20, 19, 20, 13, 15, 13, 14, 12, 20, 19, 20, 19, 20, 17, 19, 18, 19, 18]",21,shiftedgaze_R_19.png,j,0,1,results24,001,2026-04-20_10h42.42.166,mogelijke versie adaptive staircase builder,,2026.1.3,60.05309895013105,2026-04-20 10h42.42.503344 +0200,
4.5,ecc10pos,left,49,0,49,f,1,2.6662308000004487,None,0,0,0,0,49,0,49,0,1804.6081580999999,,,,,,,,,,,,,,,1804.5979605000002,1804.6081580999999,1804.6081580999999,1804.6081580999999,1805.4962028,1807.2799596999994,f,1,2.6662308000004487,None,right,20,"[18, 20, 19, 20, 19, 20, 13, 15, 13, 14, 12, 20, 19, 20, 19, 20, 17, 19, 18, 19, 18, 20]",22,shiftedgaze_R_20.png,f,1,1,results24,001,2026-04-20_10h42.42.166,mogelijke versie adaptive staircase builder,,2026.1.3,60.05309895013105,2026-04-20 10h42.42.503344 +0200,
4.5,ecc10pos,left,50,0,50,j,0,3.7276074999999764,None,0,0,0,0,50,0,50,0,1807.3866615999996,,,,,,,,,,,,,,,1807.3764691999995,1807.3866615999996,1807.3866615999996,1807.3866615999996,1808.2795090999998,1811.1297232999996,j,0,3.7276074999999764,None,right,19,"[18, 20, 19, 20, 19, 20, 13, 15, 13, 14, 12, 20, 19, 20, 19, 20, 17, 19, 18, 19, 18, 20, 19]",23,shiftedgaze_R_19.png,j,0,1,results24,001,2026-04-20_10h42.42.166,mogelijke versie adaptive staircase builder,,2026.1.3,60.05309895013105,2026-04-20 10h42.42.503344 +0200,
4.5,ecc10pos,left,51,0,51,j,1,4.037767100000565,None,0,0,0,0,51,0,51,0,1811.2366757,,,,,,,,,,,,,,,1811.227417,1811.2366757,1811.2366757,1811.2366757,1812.1293938,1815.279842,j,1,4.037767100000565,None,direct,20,"[18, 20, 19, 20, 19, 20, 13, 15, 13, 14, 12, 20, 19, 20, 19, 20, 17, 19, 18, 19, 18, 20, 19, 20]",24,shifteddirectgaze.png,j,1,1,results24,001,2026-04-20_10h42.42.166,mogelijke versie adaptive staircase builder,,2026.1.3,60.05309895013105,2026-04-20 10h42.42.503344 +0200,
4.5,ecc10pos,left,52,0,52,f,1,2.0551390999999057,None,0,0,0,0,52,0,52,0,1815.3872683999998,,,,,,,,,,,,,,,1815.3769858999995,1815.3872683999998,1815.3872683999998,1815.3872683999998,1816.2794317999997,1817.4462730999994,f,1,2.0551390999999057,None,right,19,"[18, 20, 19, 20, 19, 20, 13, 15, 13, 14, 12, 20, 19, 20, 19, 20, 17, 19, 18, 19, 18, 20, 19, 20]",24,shiftedgaze_R_19.png,f,1,1,results24,001,2026-04-20_10h42.42.166,mogelijke versie adaptive staircase builder,,2026.1.3,60.05309895013105,2026-04-20 10h42.42.503344 +0200,
4.5,ecc10pos,left,53,0,53,f,0,3.2883135000001857,None,0,0,0,0,53,0,53,0,1817.5540799,,,,,,,,,,,,,,,1817.5438457999999,1817.5540799,1817.5540799,1817.5540799,1818.4459215999996,1820.8462895000002,f,0,3.2883135000001857,None,direct,18,"[18, 20, 19, 20, 19, 20, 13, 15, 13, 14, 12, 20, 19, 20, 19, 20, 17, 19, 18, 19, 18, 20, 19, 20, 18]",25,shifteddirectgaze.png,f,0,1,results24,001,2026-04-20_10h42.42.166,mogelijke versie adaptive staircase builder,,2026.1.3,60.05309895013105,2026-04-20 10h42.42.503344 +0200,
4.5,ecc10pos,left,54,0,54,j,0,2.3367558999998437,None,0,0,0,0,54,0,54,0,1820.9695517,,,,,,,,,,,,,,,1820.9577537999994,1820.9695517,1820.9695517,1820.9695517,1821.8459955999997,1823.3130185999999,j,0,2.3367558999998437,None,left,19,"[18, 20, 19, 20, 19, 20, 13, 15, 13, 14, 12, 20, 19, 20, 19, 20, 17, 19, 18, 19, 18, 20, 19, 20, 18]",25,shiftedgaze_L_19.png,j,0,1,results24,001,2026-04-20_10h42.42.166,mogelijke versie adaptive staircase builder,,2026.1.3,60.05309895013105,2026-04-20 10h42.42.503344 +0200,
4.5,ecc10pos,left,55,0,55,j,0,3.4755006999994293,None,0,0,0,0,55,0,55,0,1823.4147874999999,,,,,,,,,,,,,,,1823.4039598,1823.4147874999999,1823.4147874999999,1823.4147874999999,1824.312567,1826.8964409999999,j,0,3.4755006999994293,None,left,20,"[18, 20, 19, 20, 19, 20, 13, 15, 13, 14, 12, 20, 19, 20, 19, 20, 17, 19, 18, 19, 18, 20, 19, 20, 18]",25,shiftedgaze_L_20.png,j,0,1,results24,001,2026-04-20_10h42.42.166,mogelijke versie adaptive staircase builder,,2026.1.3,60.05309895013105,2026-04-20 10h42.42.503344 +0200,
4.5,ecc10pos,left,56,0,56,j,0,2.3771214000007603,None,0,0,0,0,56,0,56,0,1827.0012441999997,,,,,,,,,,,,,,,1826.9899764000002,1827.0012441999997,1827.0012441999997,1827.0012441999997,1827.895907,1829.3795088999996,j,0,2.3771214000007603,None,left,20,"[18, 20, 19, 20, 19, 20, 13, 15, 13, 14, 12, 20, 19, 20, 19, 20, 17, 19, 18, 19, 18, 20, 19, 20, 18]",25,shiftedgaze_L_20.png,j,0,1,results24,001,2026-04-20_10h42.42.166,mogelijke versie adaptive staircase builder,,2026.1.3,60.05309895013105,2026-04-20 10h42.42.503344 +0200,
4.5,ecc10pos,left,57,0,57,j,0,1.6912421999995786,None,0,0,0,0,57,0,57,0,1829.4951409999994,,,,,,,,,,,,,,,1829.4844813999998,1829.4951409999994,1829.4951409999994,1829.4951409999994,1830.3791252,1831.1961997999997,j,0,1.6912421999995786,None,right,20,"[18, 20, 19, 20, 19, 20, 13, 15, 13, 14, 12, 20, 19, 20, 19, 20, 17, 19, 18, 19, 18, 20, 19, 20, 18]",25,shiftedgaze_R_20.png,j,0,1,results24,001,2026-04-20_10h42.42.166,mogelijke versie adaptive staircase builder,,2026.1.3,60.05309895013105,2026-04-20 10h42.42.503344 +0200,
4.5,ecc10pos,left,58,0,58,j,0,2.115887500000099,None,0,0,0,0,58,0,58,0,1831.3184904,,,,,,,,,,,,,,,1831.3064208999995,1831.3184904,1831.3184904,1831.3184904,1832.195791,1833.4461695999998,j,0,2.115887500000099,None,left,20,"[18, 20, 19, 20, 19, 20, 13, 15, 13, 14, 12, 20, 19, 20, 19, 20, 17, 19, 18, 19, 18, 20, 19, 20, 18]",25,shiftedgaze_L_20.png,j,0,1,results24,001,2026-04-20_10h42.42.166,mogelijke versie adaptive staircase builder,,2026.1.3,60.05309895013105,2026-04-20 10h42.42.503344 +0200,
4.5,ecc10pos,left,59,0,59,j,0,1.749408300000141,None,0,0,0,0,59,0,59,0,1833.5489947999995,,,,,,,,,,,,,,,1833.5385725999995,1833.5489947999995,1833.5489947999995,1833.5489947999995,1834.4457794999998,1835.3128820000002,j,0,1.749408300000141,None,left,20,"[18, 20, 19, 20, 19, 20, 13, 15, 13, 14, 12, 20, 19, 20, 19, 20, 17, 19, 18, 19, 18, 20, 19, 20, 18]",25,shiftedgaze_L_20.png,j,0,1,results24,001,2026-04-20_10h42.42.166,mogelijke versie adaptive staircase builder,,2026.1.3,60.05309895013105,2026-04-20 10h42.42.503344 +0200,
4.5,ecc10pos,left,0,0,0,,,,,0,0,0,0,,,,,,,,,,,,,,,,,,,,,,,,,,,,,,,,,,,,,,results24,001,2026-04-20_10h42.42.166,mogelijke versie adaptive staircase builder,,2026.1.3,60.05309895013105,2026-04-20 10h42.42.503344 +0200,
12.5,ecc0,mid,0,0,0,f,0,0.10086739999951533,None,0,1,1,1,0,0,0,0,1835.8456423999996,,,,,,,,,,,,,1835.3174085,1835.3174431999996,1835.8341572999998,1835.8456423999996,,1835.8456423999996,1835.8456423999996,1835.9626856999994,f,0,0.10086739999951533,None,direct,20,[],0,direct_gaze.png,f,0,2,results24,001,2026-04-20_10h42.42.166,mogelijke versie adaptive staircase builder,,2026.1.3,60.05309895013105,2026-04-20 10h42.42.503344 +0200,
12.5,ecc0,mid,1,0,1,f,1,1.7375565000002098,None,0,1,1,1,1,0,1,0,1836.0968621000002,,,,,,,,,,,,,,,1836.0853190999997,1836.0968621000002,1836.9629145999997,1836.0968621000002,1836.0968621000002,1837.8462202,f,1,1.7375565000002098,None,right,20,[20],1,gaze_R_20.png,f,1,2,results24,001,2026-04-20_10h42.42.166,mogelijke versie adaptive staircase builder,,2026.1.3,60.05309895013105,2026-04-20 10h42.42.503344 +0200,
12.5,ecc0,mid,2,0,2,f,0,1.7981722000004083,None,0,1,1,1,2,0,2,0,1837.9402548999997,,,,,,,,,,,,,,,1837.9300374999993,1837.9402548999997,1838.8456981999998,1837.9402548999997,1837.9402548999997,1839.7460219999994,f,0,1.7981722000004083,None,direct,19,"[20, 19]",2,direct_gaze.png,f,0,2,results24,001,2026-04-20_10h42.42.166,mogelijke versie adaptive staircase builder,,2026.1.3,60.05309895013105,2026-04-20 10h42.42.503344 +0200,
12.5,ecc0,mid,3,0,3,j,0,1.9144037000005483,None,0,1,1,1,3,0,3,0,1839.8399528999998,,,,,,,,,,,,,,,1839.8294582999997,1839.8399528999998,1840.7458324999998,1839.8399528999998,1839.8399528999998,1841.7626192999996,j,0,1.9144037000005483,None,right,20,"[20, 19]",2,gaze_R_20.png,j,0,2,results24,001,2026-04-20_10h42.42.166,mogelijke versie adaptive staircase builder,,2026.1.3,60.05309895013105,2026-04-20 10h42.42.503344 +0200,
12.5,ecc0,mid,4,0,4,j,0,1.5406560999999783,None,0,1,1,1,4,0,4,0,1841.9737629,,,,,,,,,,,,,,,1841.9632659,1841.9737629,1842.7622488999996,1841.9737629,1841.9737629,1843.5292668000002,j,0,1.5406560999999783,None,left,20,"[20, 19]",2,gaze_L_20.png,j,0,2,results24,001,2026-04-20_10h42.42.166,mogelijke versie adaptive staircase builder,,2026.1.3,60.05309895013105,2026-04-20 10h42.42.503344 +0200,
12.5,ecc0,mid,5,0,5,f,1,1.618273500000214,None,0,1,1,1,5,0,5,0,1843.6242291999997,,,,,,,,,,,,,,,1843.6140275999996,1843.6242291999997,1844.5290207999997,1843.6242291999997,1843.6242291999997,1845.2459522999998,f,1,1.618273500000214,None,left,20,"[20, 19, 20]",3,gaze_L_20.png,f,1,2,results24,001,2026-04-20_10h42.42.166,mogelijke versie adaptive staircase builder,,2026.1.3,60.05309895013105,2026-04-20 10h42.42.503344 +0200,
12.5,ecc0,mid,6,0,6,f,1,2.0049558000000616,None,0,1,1,1,6,0,6,0,1845.453582,,,,,,,,,,,,,,,1845.4429277999998,1845.453582,1846.2456296999999,1845.453582,1845.453582,1847.4626486999996,f,1,2.0049558000000616,None,right,19,"[20, 19, 20]",3,gaze_R_19.png,f,1,2,results24,001,2026-04-20_10h42.42.166,mogelijke versie adaptive staircase builder,,2026.1.3,60.05309895013105,2026-04-20 10h42.42.503344 +0200,
12.5,ecc0,mid,7,0,7,j,0,1.5901084999995874,None,0,1,1,1,7,0,7,0,1847.6843878999998,,,,,,,,,,,,,,,1847.6735178999998,1847.6843878999998,1848.4625583999996,1847.6843878999998,1847.6843878999998,1849.2791504999996,j,0,1.5901084999995874,None,left,18,"[20, 19, 20, 18]",4,gaze_L_18.png,j,0,2,results24,001,2026-04-20_10h42.42.166,mogelijke versie adaptive staircase builder,,2026.1.3,60.05309895013105,2026-04-20 10h42.42.503344 +0200,
12.5,ecc0,mid,8,0,8,j,0,1.883969900000011,None,0,1,1,1,8,0,8,0,1849.3904573,,,,,,,,,,,,,,,1849.3801770999999,1849.3904573,1850.2788904999998,1849.3904573,1849.3904573,1851.2792033999995,j,0,1.883969900000011,None,left,19,"[20, 19, 20, 18]",4,gaze_L_19.png,j,0,2,results24,001,2026-04-20_10h42.42.166,mogelijke versie adaptive staircase builder,,2026.1.3,60.05309895013105,2026-04-20 10h42.42.503344 +0200,
12.5,ecc0,mid,9,0,9,j,0,1.579421999999795,None,0,1,1,1,9,0,9,0,1851.3749935999995,,,,,,,,,,,,,,,1851.3637966999995,1851.3749935999995,1852.2788044999998,1851.3749935999995,1851.3749935999995,1852.9625422999998,j,0,1.579421999999795,None,left,20,"[20, 19, 20, 18]",4,gaze_L_20.png,j,0,2,results24,001,2026-04-20_10h42.42.166,mogelijke versie adaptive staircase builder,,2026.1.3,60.05309895013105,2026-04-20 10h42.42.503344 +0200,
12.5,ecc0,mid,10,0,10,f,1,1.79387559999941,None,0,1,1,1,10,0,10,0,1853.0565372,,,,,,,,,,,,,,,1853.0464665999998,1853.0565372,1853.9621320999995,1853.0565372,1853.0565372,1854.8624701999997,f,1,1.79387559999941,None,left,20,"[20, 19, 20, 18, 20]",5,gaze_L_20.png,f,1,2,results24,001,2026-04-20_10h42.42.166,mogelijke versie adaptive staircase builder,,2026.1.3,60.05309895013105,2026-04-20 10h42.42.503344 +0200,
12.5,ecc0,mid,11,0,11,f,1,3.13998299999912,None,0,1,1,1,11,0,11,0,1854.9584546999995,,,,,,,,,,,,,,,1854.947819,1854.9584546999995,1855.8621403999996,1854.9584546999995,1854.9584546999995,1858.1127546999996,f,1,3.13998299999912,None,right,19,"[20, 19, 20, 18, 20]",5,gaze_R_19.png,f,1,2,results24,001,2026-04-20_10h42.42.166,mogelijke versie adaptive staircase builder,,2026.1.3,60.05309895013105,2026-04-20 10h42.42.503344 +0200,
12.5,ecc0,mid,12,0,12,j,0,2.7122191999997085,None,0,1,1,1,12,0,12,0,1858.242115,,,,,,,,,,,,,,,1858.2319042999998,1858.242115,1859.1120580999996,1858.242115,1858.242115,1860.9623602000001,j,0,2.7122191999997085,None,right,18,"[20, 19, 20, 18, 20, 18]",6,gaze_R_18.png,j,0,2,results24,001,2026-04-20_10h42.42.166,mogelijke versie adaptive staircase builder,,2026.1.3,60.05309895013105,2026-04-20 10h42.42.503344 +0200,
12.5,ecc0,mid,13,0,13,j,1,1.8008074999997916,None,0,1,1,1,13,0,13,0,1861.0575264999998,,,,,,,,,,,,,,,1861.0473278,1861.0575264999998,1861.9623407999998,1861.0575264999998,1861.0575264999998,1862.8624025,j,1,1.8008074999997916,None,direct,19,"[20, 19, 20, 18, 20, 18, 19]",7,direct_gaze.png,j,1,2,results24,001,2026-04-20_10h42.42.166,mogelijke versie adaptive staircase builder,,2026.1.3,60.05309895013105,2026-04-20 10h42.42.503344 +0200,
12.5,ecc0,mid,14,0,14,j,0,2.059835099999873,None,0,1,1,1,14,0,14,0,1862.9590492999996,,,,,,,,,,,,,,,1862.9478463999994,1862.9590492999996,1863.862043,1862.9590492999996,1862.9590492999996,1865.0289818,j,0,2.059835099999873,None,left,18,"[20, 19, 20, 18, 20, 18, 19, 18]",8,gaze_L_18.png,j,0,2,results24,001,2026-04-20_10h42.42.166,mogelijke versie adaptive staircase builder,,2026.1.3,60.05309895013105,2026-04-20 10h42.42.503344 +0200,
12.5,ecc0,mid,15,0,15,f,1,1.590642399999524,None,0,1,1,1,15,0,15,0,1865.1237470999995,,,,,,,,,,,,,,,1865.1138609999998,1865.1237470999995,1866.0286716,1865.1237470999995,1865.1237470999995,1866.7290966,f,1,1.590642399999524,None,right,19,"[20, 19, 20, 18, 20, 18, 19, 18, 19]",9,gaze_R_19.png,f,1,2,results24,001,2026-04-20_10h42.42.166,mogelijke versie adaptive staircase builder,,2026.1.3,60.05309895013105,2026-04-20 10h42.42.503344 +0200,
12.5,ecc0,mid,16,0,16,f,1,1.6667186000004222,None,0,1,1,1,16,0,16,0,1866.8236646999994,,,,,,,,,,,,,,,1866.8128422999998,1866.8236646999994,1867.7286465999996,1866.8236646999994,1866.8236646999994,1868.4956161,f,1,1.6667186000004222,None,right,18,"[20, 19, 20, 18, 20, 18, 19, 18, 19]",9,gaze_R_18.png,f,1,2,results24,001,2026-04-20_10h42.42.166,mogelijke versie adaptive staircase builder,,2026.1.3,60.05309895013105,2026-04-20 10h42.42.503344 +0200,
12.5,ecc0,mid,17,0,17,f,1,1.7644741000003705,None,0,1,1,1,17,0,17,0,1868.9659100999997,,,,,,,,,,,,,,,1868.9544710999999,1868.9659100999997,1869.4954663999997,1868.9659100999997,1868.9659100999997,1870.7454959999995,f,1,1.7644741000003705,None,right,17,"[20, 19, 20, 18, 20, 18, 19, 18, 19]",9,gaze_R_17.png,f,1,2,results24,001,2026-04-20_10h42.42.166,mogelijke versie adaptive staircase builder,,2026.1.3,60.05309895013105,2026-04-20 10h42.42.503344 +0200,
12.5,ecc0,mid,18,0,18,j,1,1.67249240000001,None,0,1,1,1,18,0,18,0,1870.8418885,,,,,,,,,,,,,,,1870.8317812999994,1870.8418885,1871.7453171999996,1870.8418885,1870.8418885,1872.5289045,j,1,1.67249240000001,None,direct,16,"[20, 19, 20, 18, 20, 18, 19, 18, 19]",9,direct_gaze.png,j,1,2,results24,001,2026-04-20_10h42.42.166,mogelijke versie adaptive staircase builder,,2026.1.3,60.05309895013105,2026-04-20 10h42.42.503344 +0200,
12.5,ecc0,mid,19,0,19,j,0,1.339927500000158,None,0,1,1,1,19,0,19,0,1872.7745518000002,,,,,,,,,,,,,,,1872.7612092,1872.7745518000002,1873.5285878999994,1872.7745518000002,1872.7745518000002,1874.1288913999997,j,0,1.339927500000158,None,left,15,"[20, 19, 20, 18, 20, 18, 19, 18, 19, 15]",10,gaze_L_15.png,j,0,2,results24,001,2026-04-20_10h42.42.166,mogelijke versie adaptive staircase builder,,2026.1.3,60.05309895013105,2026-04-20 10h42.42.503344 +0200,
12.5,ecc0,mid,20,0,20,j,0,1.5090624000004027,None,0,1,1,1,20,0,20,0,1874.3892998000001,,,,,,,,,,,,,,,1874.3785526000001,1874.3892998000001,1875.1285207,1874.3892998000001,1874.3892998000001,1875.9123768,j,0,1.5090624000004027,None,left,16,"[20, 19, 20, 18, 20, 18, 19, 18, 19, 15]",10,gaze_L_16.png,j,0,2,results24,001,2026-04-20_10h42.42.166,mogelijke versie adaptive staircase builder,,2026.1.3,60.05309895013105,2026-04-20 10h42.42.503344 +0200,
12.5,ecc0,mid,21,0,21,j,1,2.063122399999884,None,0,1,1,1,21,0,21,0,1876.0111982999997,,,,,,,,,,,,,,,1876.0006346,1876.0111982999997,1876.9118056999996,1876.0111982999997,1876.0111982999997,1878.0787495999994,j,1,2.063122399999884,None,direct,17,"[20, 19, 20, 18, 20, 18, 19, 18, 19, 15, 17]",11,direct_gaze.png,j,1,2,results24,001,2026-04-20_10h42.42.166,mogelijke versie adaptive staircase builder,,2026.1.3,60.05309895013105,2026-04-20 10h42.42.503344 +0200,
12.5,ecc0,mid,22,0,22,f,0,1.8597227999998722,None,0,1,1,1,22,0,22,0,1878.1745915000001,,,,,,,,,,,,,,,1878.1636155999995,1878.1745915000001,1879.0785319999995,1878.1745915000001,1878.1745915000001,1880.0454399999999,f,0,1.8597227999998722,None,direct,16,"[20, 19, 20, 18, 20, 18, 19, 18, 19, 15, 17, 16]",12,direct_gaze.png,f,0,2,results24,001,2026-04-20_10h42.42.166,mogelijke versie adaptive staircase builder,,2026.1.3,60.05309895013105,2026-04-20 10h42.42.503344 +0200,
12.5,ecc0,mid,23,0,23,f,1,1.5728761000000304,None,0,1,1,1,23,0,23,0,1880.1415196999997,,,,,,,,,,,,,,,1880.1310257999994,1880.1415196999997,1881.0454972999996,1880.1415196999997,1880.1415196999997,1881.7288901000002,f,1,1.5728761000000304,None,right,17,"[20, 19, 20, 18, 20, 18, 19, 18, 19, 15, 17, 16, 17]",13,gaze_R_17.png,f,1,2,results24,001,2026-04-20_10h42.42.166,mogelijke versie adaptive staircase builder,,2026.1.3,60.05309895013105,2026-04-20 10h42.42.503344 +0200,
12.5,ecc0,mid,24,0,24,j,0,1.983217599999989,None,0,1,1,1,24,0,24,0,1881.9472876999998,,,,,,,,,,,,,,,1881.9365436999997,1881.9472876999998,1882.7285276000002,1881.9472876999998,1881.9472876999998,1883.9454624999998,j,0,1.983217599999989,None,right,16,"[20, 19, 20, 18, 20, 18, 19, 18, 19, 15, 17, 16, 17, 16]",14,gaze_R_16.png,j,0,2,results24,001,2026-04-20_10h42.42.166,mogelijke versie adaptive staircase builder,,2026.1.3,60.05309895013105,2026-04-20 10h42.42.503344 +0200,
12.5,ecc0,mid,25,0,25,f,0,1.7579138999999486,None,0,1,1,1,25,0,25,0,1884.0364547999998,,,,,,,,,,,,,,,1884.0250248000002,1884.0364547999998,1884.9450236000002,1884.0364547999998,1884.0364547999998,1885.7954026999996,f,0,1.7579138999999486,None,direct,17,"[20, 19, 20, 18, 20, 18, 19, 18, 19, 15, 17, 16, 17, 16]",14,direct_gaze.png,f,0,2,results24,001,2026-04-20_10h42.42.166,mogelijke versie adaptive staircase builder,,2026.1.3,60.05309895013105,2026-04-20 10h42.42.503344 +0200,
12.5,ecc0,mid,26,0,26,f,0,1.6854940000002898,None,0,1,1,1,26,0,26,0,1885.8848251,,,,,,,,,,,,,,,1885.8744971999995,1885.8848251,1886.7951790999996,1885.8848251,1885.8848251,1887.5788039,f,0,1.6854940000002898,None,direct,18,"[20, 19, 20, 18, 20, 18, 19, 18, 19, 15, 17, 16, 17, 16]",14,direct_gaze.png,f,0,2,results24,001,2026-04-20_10h42.42.166,mogelijke versie adaptive staircase builder,,2026.1.3,60.05309895013105,2026-04-20 10h42.42.503344 +0200,
12.5,ecc0,mid,27,0,27,j,0,1.5463252999998076,None,0,1,1,1,27,0,27,0,1887.6726466,,,,,,,,,,,,,,,1887.6615846999994,1887.6726466,1888.5784232999995,1887.6726466,1887.6726466,1889.2288749999998,j,0,1.5463252999998076,None,left,19,"[20, 19, 20, 18, 20, 18, 19, 18, 19, 15, 17, 16, 17, 16]",14,gaze_L_19.png,j,0,2,results24,001,2026-04-20_10h42.42.166,mogelijke versie adaptive staircase builder,,2026.1.3,60.05309895013105,2026-04-20 10h42.42.503344 +0200,
12.5,ecc0,mid,28,0,28,j,0,2.664705299999696,None,0,1,1,1,28,0,28,0,1889.3216594999994,,,,,,,,,,,,,,,1889.3108063,1889.3216594999994,1890.2284155999996,1889.3216594999994,1889.3216594999994,1891.9955652999997,j,0,2.664705299999696,None,right,20,"[20, 19, 20, 18, 20, 18, 19, 18, 19, 15, 17, 16, 17, 16]",14,gaze_R_20.png,j,0,2,results24,001,2026-04-20_10h42.42.166,mogelijke versie adaptive staircase builder,,2026.1.3,60.05309895013105,2026-04-20 10h42.42.503344 +0200,
12.5,ecc0,mid,29,0,29,f,1,2.3024094999991576,None,0,1,1,1,29,0,29,0,1892.084046,,,,,,,,,,,,,,,1892.0738259999998,1892.084046,1892.9950135999998,1892.084046,1892.084046,1894.3952454999999,f,1,2.3024094999991576,None,right,20,"[20, 19, 20, 18, 20, 18, 19, 18, 19, 15, 17, 16, 17, 16, 20]",15,gaze_R_20.png,f,1,2,results24,001,2026-04-20_10h42.42.166,mogelijke versie adaptive staircase builder,,2026.1.3,60.05309895013105,2026-04-20 10h42.42.503344 +0200,
12.5,ecc0,mid,30,0,30,f,1,2.39543169999979,None,0,1,1,1,30,0,30,0,1894.4871211,,,,,,,,,,,,,,,1894.4754078999995,1894.4871211,1895.3949643999995,1894.4871211,1894.4871211,1896.8953530999997,f,1,2.39543169999979,None,right,19,"[20, 19, 20, 18, 20, 18, 19, 18, 19, 15, 17, 16, 17, 16, 20]",15,gaze_R_19.png,f,1,2,results24,001,2026-04-20_10h42.42.166,mogelijke versie adaptive staircase builder,,2026.1.3,60.05309895013105,2026-04-20 10h42.42.503344 +0200,
12.5,ecc0,mid,31,0,31,f,1,1.7749367000005805,None,0,1,1,1,31,0,31,0,1896.9875700000002,,,,,,,,,,,,,,,1896.9769035,1896.9875700000002,1897.8951958999996,1896.9875700000002,1896.9875700000002,1898.7786568000001,f,1,1.7749367000005805,None,right,18,"[20, 19, 20, 18, 20, 18, 19, 18, 19, 15, 17, 16, 17, 16, 20]",15,gaze_R_18.png,f,1,2,results24,001,2026-04-20_10h42.42.166,mogelijke versie adaptive staircase builder,,2026.1.3,60.05309895013105,2026-04-20 10h42.42.503344 +0200,
12.5,ecc0,mid,32,0,32,f,0,2.1581909999995332,None,0,1,1,1,32,0,32,0,1898.8685043999994,,,,,,,,,,,,,,,1898.8573712999996,1898.8685043999994,1899.7781734,1898.8685043999994,1898.8685043999994,1901.0286084,f,0,2.1581909999995332,None,direct,17,"[20, 19, 20, 18, 20, 18, 19, 18, 19, 15, 17, 16, 17, 16, 20, 17]",16,direct_gaze.png,f,0,2,results24,001,2026-04-20_10h42.42.166,mogelijke versie adaptive staircase builder,,2026.1.3,60.05309895013105,2026-04-20 10h42.42.503344 +0200,
12.5,ecc0,mid,33,0,33,f,0,1.8429065999998784,None,0,1,1,1,33,0,33,0,1901.1195356999997,,,,,,,,,,,,,,,1901.1082330999998,1901.1195356999997,1902.0282864,1901.1195356999997,1901.1195356999997,1902.9786292,f,0,1.8429065999998784,None,direct,18,"[20, 19, 20, 18, 20, 18, 19, 18, 19, 15, 17, 16, 17, 16, 20, 17]",16,direct_gaze.png,f,0,2,results24,001,2026-04-20_10h42.42.166,mogelijke versie adaptive staircase builder,,2026.1.3,60.05309895013105,2026-04-20 10h42.42.503344 +0200,
12.5,ecc0,mid,34,0,34,f,1,1.498455599999943,None,0,1,1,1,34,0,34,0,1903.0719957000001,,,,,,,,,,,,,,,1903.0614946999995,1903.0719957000001,1903.9783784,1903.0719957000001,1903.0719957000001,1904.5786776999994,f,1,1.498455599999943,None,right,19,"[20, 19, 20, 18, 20, 18, 19, 18, 19, 15, 17, 16, 17, 16, 20, 17, 19]",17,gaze_R_19.png,f,1,2,results24,001,2026-04-20_10h42.42.166,mogelijke versie adaptive staircase builder,,2026.1.3,60.05309895013105,2026-04-20 10h42.42.503344 +0200,
12.5,ecc0,mid,35,0,35,j,0,1.5819298000005801,None,0,1,1,1,35,0,35,0,1904.6685535999995,,,,,,,,,,,,,,,1904.6573592999994,1904.6685535999995,1905.5780822999996,1904.6685535999995,1904.6685535999995,1906.2618158999994,j,0,1.5819298000005801,None,left,18,"[20, 19, 20, 18, 20, 18, 19, 18, 19, 15, 17, 16, 17, 16, 20, 17, 19, 18]",18,gaze_L_18.png,j,0,2,results24,001,2026-04-20_10h42.42.166,mogelijke versie adaptive staircase builder,,2026.1.3,60.05309895013105,2026-04-20 10h42.42.503344 +0200,
12.5,ecc0,mid,36,0,36,f,1,1.704880299999786,None,0,1,1,1,36,0,36,0,1906.3534889000002,,,,,,,,,,,,,,,1906.3431154999998,1906.3534889000002,1907.2614242,1906.3534889000002,1906.3534889000002,1908.0616885,f,1,1.704880299999786,None,right,19,"[20, 19, 20, 18, 20, 18, 19, 18, 19, 15, 17, 16, 17, 16, 20, 17, 19, 18, 19]",19,gaze_R_19.png,f,1,2,results24,001,2026-04-20_10h42.42.166,mogelijke versie adaptive staircase builder,,2026.1.3,60.05309895013105,2026-04-20 10h42.42.503344 +0200,
12.5,ecc0,mid,37,0,37,j,0,2.7128836000001684,None,0,1,1,1,37,0,37,0,1908.1536473999995,,,,,,,,,,,,,,,1908.1429649000002,1908.1536473999995,1909.0613773999994,1908.1536473999995,1908.1536473999995,1910.8784690000002,j,0,2.7128836000001684,None,right,18,"[20, 19, 20, 18, 20, 18, 19, 18, 19, 15, 17, 16, 17, 16, 20, 17, 19, 18, 19, 18]",20,gaze_R_18.png,j,0,2,results24,001,2026-04-20_10h42.42.166,mogelijke versie adaptive staircase builder,,2026.1.3,60.05309895013105,2026-04-20 10h42.42.503344 +0200,
12.5,ecc0,mid,38,0,38,j,0,1.8718471000001955,None,0,1,1,1,38,0,38,0,1910.9706694999995,,,,,,,,,,,,,,,1910.959186,1910.9706694999995,1911.8780283999995,1910.9706694999995,1910.9706694999995,1912.8451372,j,0,1.8718471000001955,None,left,19,"[20, 19, 20, 18, 20, 18, 19, 18, 19, 15, 17, 16, 17, 16, 20, 17, 19, 18, 19, 18]",20,gaze_L_19.png,j,0,2,results24,001,2026-04-20_10h42.42.166,mogelijke versie adaptive staircase builder,,2026.1.3,60.05309895013105,2026-04-20 10h42.42.503344 +0200,
12.5,ecc0,mid,39,0,39,j,0,1.9468212000001586,None,0,1,1,1,39,0,39,0,1912.9355387999994,,,,,,,,,,,,,,,1912.9251970999994,1912.9355387999994,1913.8451249,1912.9355387999994,1912.9355387999994,1914.8950353999999,j,0,1.9468212000001586,None,left,20,"[20, 19, 20, 18, 20, 18, 19, 18, 19, 15, 17, 16, 17, 16, 20, 17, 19, 18, 19, 18]",20,gaze_L_20.png,j,0,2,results24,001,2026-04-20_10h42.42.166,mogelijke versie adaptive staircase builder,,2026.1.3,60.05309895013105,2026-04-20 10h42.42.503344 +0200,
12.5,ecc0,mid,40,0,40,f,1,1.5961858999999095,None,0,1,1,1,40,0,40,0,1914.9901668000002,,,,,,,,,,,,,,,1914.9791599,1914.9901668000002,1915.8945367999995,1914.9901668000002,1914.9901668000002,1916.5950846999995,f,1,1.5961858999999095,None,left,20,"[20, 19, 20, 18, 20, 18, 19, 18, 19, 15, 17, 16, 17, 16, 20, 17, 19, 18, 19, 18, 20]",21,gaze_L_20.png,f,1,2,results24,001,2026-04-20_10h42.42.166,mogelijke versie adaptive staircase builder,,2026.1.3,60.05309895013105,2026-04-20 10h42.42.503344 +0200,
12.5,ecc0,mid,41,0,41,f,1,1.4573731000000407,None,0,1,1,1,41,0,41,0,1916.6891368999995,,,,,,,,,,,,,,,1916.677659,1916.6891368999995,1917.5946394000002,1916.6891368999995,1916.6891368999995,1918.1615788,f,1,1.4573731000000407,None,right,19,"[20, 19, 20, 18, 20, 18, 19, 18, 19, 15, 17, 16, 17, 16, 20, 17, 19, 18, 19, 18, 20]",21,gaze_R_19.png,f,1,2,results24,001,2026-04-20_10h42.42.166,mogelijke versie adaptive staircase builder,,2026.1.3,60.05309895013105,2026-04-20 10h42.42.503344 +0200,
12.5,ecc0,mid,42,0,42,f,1,1.516764800000601,None,0,1,1,1,42,0,42,0,1918.2536073,,,,,,,,,,,,,,,1918.2431412999995,1918.2536073,1919.1613923999994,1918.2536073,1918.2536073,1919.7782664999995,f,1,1.516764800000601,None,right,18,"[20, 19, 20, 18, 20, 18, 19, 18, 19, 15, 17, 16, 17, 16, 20, 17, 19, 18, 19, 18, 20]",21,gaze_R_18.png,f,1,2,results24,001,2026-04-20_10h42.42.166,mogelijke versie adaptive staircase builder,,2026.1.3,60.05309895013105,2026-04-20 10h42.42.503344 +0200,
12.5,ecc0,mid,43,0,43,f,0,1.581540799999857,None,0,1,1,1,43,0,43,0,1919.868899,,,,,,,,,,,,,,,1919.8579543999995,1919.868899,1920.7779962999994,1919.868899,1919.868899,1921.4617724999998,f,0,1.581540799999857,None,direct,17,"[20, 19, 20, 18, 20, 18, 19, 18, 19, 15, 17, 16, 17, 16, 20, 17, 19, 18, 19, 18, 20, 17]",22,direct_gaze.png,f,0,2,results24,001,2026-04-20_10h42.42.166,mogelijke versie adaptive staircase builder,,2026.1.3,60.05309895013105,2026-04-20 10h42.42.503344 +0200,
12.5,ecc0,mid,44,0,44,f,0,1.6163013999994291,None,0,1,1,1,44,0,44,0,1921.5622796999996,,,,,,,,,,,,,,,1921.5516941999995,1921.5622796999996,1922.4612616999993,1921.5622796999996,1921.5622796999996,1923.1950046000002,f,0,1.6163013999994291,None,direct,18,"[20, 19, 20, 18, 20, 18, 19, 18, 19, 15, 17, 16, 17, 16, 20, 17, 19, 18, 19, 18, 20, 17]",22,direct_gaze.png,f,0,2,results24,001,2026-04-20_10h42.42.166,mogelijke versie adaptive staircase builder,,2026.1.3,60.05309895013105,2026-04-20 10h42.42.503344 +0200,
12.5,ecc0,mid,45,0,45,j,1,1.2735560000000987,None,0,1,1,1,45,0,45,0,1923.2968285999996,,,,,,,,,,,,,,,1923.2845607999998,1923.2968285999996,1924.1945404999997,1923.2968285999996,1923.2968285999996,1924.5784931999997,j,1,1.2735560000000987,None,direct,19,"[20, 19, 20, 18, 20, 18, 19, 18, 19, 15, 17, 16, 17, 16, 20, 17, 19, 18, 19, 18, 20, 17, 19]",23,direct_gaze.png,j,1,2,results24,001,2026-04-20_10h42.42.166,mogelijke versie adaptive staircase builder,,2026.1.3,60.05309895013105,2026-04-20 10h42.42.503344 +0200,
12.5,ecc0,mid,46,0,46,f,1,1.7355884999997215,None,0,1,1,1,46,0,46,0,1924.6829146999999,,,,,,,,,,,,,,,1924.6715255999998,1924.6829146999999,1925.5778882999994,1924.6829146999999,1924.6829146999999,1926.4282423999994,f,1,1.7355884999997215,None,right,18,"[20, 19, 20, 18, 20, 18, 19, 18, 19, 15, 17, 16, 17, 16, 20, 17, 19, 18, 19, 18, 20, 17, 19]",23,gaze_R_18.png,f,1,2,results24,001,2026-04-20_10h42.42.166,mogelijke versie adaptive staircase builder,,2026.1.3,60.05309895013105,2026-04-20 10h42.42.503344 +0200,
12.5,ecc0,mid,47,0,47,j,0,1.8985743000002913,None,0,1,1,1,47,0,47,0,1926.5277869000001,,,,,,,,,,,,,,,1926.5175836999997,1926.5277869000001,1927.4276546,1926.5277869000001,1926.5277869000001,1928.4281007,j,0,1.8985743000002913,None,right,17,"[20, 19, 20, 18, 20, 18, 19, 18, 19, 15, 17, 16, 17, 16, 20, 17, 19, 18, 19, 18, 20, 17, 19, 17]",24,gaze_R_17.png,j,0,2,results24,001,2026-04-20_10h42.42.166,mogelijke versie adaptive staircase builder,,2026.1.3,60.05309895013105,2026-04-20 10h42.42.503344 +0200,
12.5,ecc0,mid,48,0,48,f,1,1.785899999999856,None,0,1,1,1,48,0,48,0,1928.5286061999996,,,,,,,,,,,,,,,1928.5172358,1928.5286061999996,1929.4286174,1928.5286061999996,1928.5286061999996,1930.3281699,f,1,1.785899999999856,None,left,18,"[20, 19, 20, 18, 20, 18, 19, 18, 19, 15, 17, 16, 17, 16, 20, 17, 19, 18, 19, 18, 20, 17, 19, 17, 18]",25,gaze_L_18.png,f,1,2,results24,001,2026-04-20_10h42.42.166,mogelijke versie adaptive staircase builder,,2026.1.3,60.05309895013105,2026-04-20 10h42.42.503344 +0200,
12.5,ecc0,mid,49,0,49,f,0,2.2164662999994107,None,0,1,1,1,49,0,49,0,1930.4259167999999,,,,,,,,,,,,,,,1930.4150300000001,1930.4259167999999,1931.327746,1930.4259167999999,1930.4259167999999,1932.6449591,f,0,2.2164662999994107,None,direct,17,"[20, 19, 20, 18, 20, 18, 19, 18, 19, 15, 17, 16, 17, 16, 20, 17, 19, 18, 19, 18, 20, 17, 19, 17, 18, 17]",26,direct_gaze.png,f,0,2,results24,001,2026-04-20_10h42.42.166,mogelijke versie adaptive staircase builder,,2026.1.3,60.05309895013105,2026-04-20 10h42.42.503344 +0200,
12.5,ecc0,mid,50,0,50,j,1,1.8300438999995094,None,0,1,1,1,50,0,50,0,1932.7486013999996,,,,,,,,,,,,,,,1932.7381312999996,1932.7486013999996,1933.6444113999996,1932.7486013999996,1932.7486013999996,1934.5955207999996,j,1,1.8300438999995094,None,direct,18,"[20, 19, 20, 18, 20, 18, 19, 18, 19, 15, 17, 16, 17, 16, 20, 17, 19, 18, 19, 18, 20, 17, 19, 17, 18, 17, 18]",27,direct_gaze.png,j,1,2,results24,001,2026-04-20_10h42.42.166,mogelijke versie adaptive staircase builder,,2026.1.3,60.05309895013105,2026-04-20 10h42.42.503344 +0200,
12.5,ecc0,mid,51,0,51,j,0,3.076316699999552,None,0,1,1,1,51,0,51,0,1934.6940743999994,,,,,,,,,,,,,,,1934.6831819,1934.6940743999994,1935.6108911000001,1934.6940743999994,1934.6940743999994,1937.7781478999996,j,0,3.076316699999552,None,right,17,"[20, 19, 20, 18, 20, 18, 19, 18, 19, 15, 17, 16, 17, 16, 20, 17, 19, 18, 19, 18, 20, 17, 19, 17, 18, 17, 18, 17]",28,gaze_R_17.png,j,0,2,results24,001,2026-04-20_10h42.42.166,mogelijke versie adaptive staircase builder,,2026.1.3,60.05309895013105,2026-04-20 10h42.42.503344 +0200,
12.5,ecc0,mid,52,0,52,j,0,2.446371199999703,None,0,1,1,1,52,0,52,0,1937.8680261999998,,,,,,,,,,,,,,,1937.8576443000002,1937.8680261999998,1938.7775468,1937.8680261999998,1937.8680261999998,1940.3280249,j,0,2.446371199999703,None,left,18,"[20, 19, 20, 18, 20, 18, 19, 18, 19, 15, 17, 16, 17, 16, 20, 17, 19, 18, 19, 18, 20, 17, 19, 17, 18, 17, 18, 17]",28,gaze_L_18.png,j,0,2,results24,001,2026-04-20_10h42.42.166,mogelijke versie adaptive staircase builder,,2026.1.3,60.05309895013105,2026-04-20 10h42.42.503344 +0200,
12.5,ecc0,mid,53,0,53,j,1,1.8159168000001955,None,0,1,1,1,53,0,53,0,1940.4188592,,,,,,,,,,,,,,,1940.4083827999993,1940.4188592,1941.3276833,1940.4188592,1940.4188592,1942.2449731999995,j,1,1.8159168000001955,None,direct,19,"[20, 19, 20, 18, 20, 18, 19, 18, 19, 15, 17, 16, 17, 16, 20, 17, 19, 18, 19, 18, 20, 17, 19, 17, 18, 17, 18, 17, 19]",29,direct_gaze.png,j,1,2,results24,001,2026-04-20_10h42.42.166,mogelijke versie adaptive staircase builder,,2026.1.3,60.05309895013105,2026-04-20 10h42.42.503344 +0200,
12.5,ecc0,mid,54,0,54,j,0,1.5843324999996184,None,0,1,1,1,54,0,54,0,1942.3380470000002,,,,,,,,,,,,,,,1942.3265542,1942.3380470000002,1943.2442555999996,1942.3380470000002,1942.3380470000002,1943.9279639999995,j,0,1.5843324999996184,None,left,18,"[20, 19, 20, 18, 20, 18, 19, 18, 19, 15, 17, 16, 17, 16, 20, 17, 19, 18, 19, 18, 20, 17, 19, 17, 18, 17, 18, 17, 19, 18]",30,gaze_L_18.png,j,0,2,results24,001,2026-04-20_10h42.42.166,mogelijke versie adaptive staircase builder,,2026.1.3,60.05309895013105,2026-04-20 10h42.42.503344 +0200,
12.5,ecc0,mid,55,0,55,f,1,1.7051831999997376,None,0,1,1,1,55,0,55,0,1944.0172611999997,,,,,,,,,,,,,,,1944.0065973,1944.0172611999997,1944.9275917999994,1944.0172611999997,1944.0172611999997,1945.7280891,f,1,1.7051831999997376,None,right,19,"[20, 19, 20, 18, 20, 18, 19, 18, 19, 15, 17, 16, 17, 16, 20, 17, 19, 18, 19, 18, 20, 17, 19, 17, 18, 17, 18, 17, 19, 18, 19]",31,gaze_R_19.png,f,1,2,results24,001,2026-04-20_10h42.42.166,mogelijke versie adaptive staircase builder,,2026.1.3,60.05309895013105,2026-04-20 10h42.42.503344 +0200,
12.5,ecc0,mid,56,0,56,f,1,2.1678326999999626,None,0,1,1,1,56,0,56,0,1945.8185364,,,,,,,,,,,,,,,1945.8078568,1945.8185364,1946.7278551,1945.8185364,1945.8185364,1947.9946843999996,f,1,2.1678326999999626,None,left,18,"[20, 19, 20, 18, 20, 18, 19, 18, 19, 15, 17, 16, 17, 16, 20, 17, 19, 18, 19, 18, 20, 17, 19, 17, 18, 17, 18, 17, 19, 18, 19]",31,gaze_L_18.png,f,1,2,results24,001,2026-04-20_10h42.42.166,mogelijke versie adaptive staircase builder,,2026.1.3,60.05309895013105,2026-04-20 10h42.42.503344 +0200,
12.5,ecc0,mid,57,0,57,j,0,1.8113014999998995,None,0,1,1,1,57,0,57,0,1948.4630873999995,,,,,,,,,,,,,,,1948.4518502,1948.4630873999995,1948.9942099,1948.4630873999995,1948.4630873999995,1950.2779904999998,j,0,1.8113014999998995,None,left,17,"[20, 19, 20, 18, 20, 18, 19, 18, 19, 15, 17, 16, 17, 16, 20, 17, 19, 18, 19, 18, 20, 17, 19, 17, 18, 17, 18, 17, 19, 18, 19, 17]",32,gaze_L_17.png,j,0,2,results24,001,2026-04-20_10h42.42.166,mogelijke versie adaptive staircase builder,,2026.1.3,60.05309895013105,2026-04-20 10h42.42.503344 +0200,
12.5,ecc0,mid,58,0,58,j,0,3.8330040000000736,None,0,1,1,1,58,0,58,0,1950.3695201,,,,,,,,,,,,,,,1950.3594297999998,1950.3695201,1951.2774791000002,1950.3695201,1950.3695201,1954.2112871999998,j,0,3.8330040000000736,None,right,18,"[20, 19, 20, 18, 20, 18, 19, 18, 19, 15, 17, 16, 17, 16, 20, 17, 19, 18, 19, 18, 20, 17, 19, 17, 18, 17, 18, 17, 19, 18, 19, 17]",32,gaze_R_18.png,j,0,2,results24,001,2026-04-20_10h42.42.166,mogelijke versie adaptive staircase builder,,2026.1.3,60.05309895013105,2026-04-20 10h42.42.503344 +0200,
12.5,ecc0,mid,59,0,59,j,1,3.0127087999999276,None,0,1,1,1,59,0,59,0,1954.3017186999996,,,,,,,,,,,,,,,1954.2910281999993,1954.3017186999996,1955.2107938999998,1954.3017186999996,1954.3017186999996,1957.3275635,j,1,3.0127087999999276,None,direct,19,"[20, 19, 20, 18, 20, 18, 19, 18, 19, 15, 17, 16, 17, 16, 20, 17, 19, 18, 19, 18, 20, 17, 19, 17, 18, 17, 18, 17, 19, 18, 19, 17, 19]",33,direct_gaze.png,j,1,2,results24,001,2026-04-20_10h42.42.166,mogelijke versie adaptive staircase builder,,2026.1.3,60.05309895013105,2026-04-20 10h42.42.503344 +0200,
12.5,ecc0,mid,1,1,0,,,,,0,1,1,1,,,,,,,,,,,,,,,,,,,,,,,,,,,,,,,,,,,,,,results24,001,2026-04-20_10h42.42.166,mogelijke versie adaptive staircase builder,,2026.1.3,60.05309895013105,2026-04-20 10h42.42.503344 +0200,
20.5,ecc10neg,right,0,0,0,j,0,1.6231362999997145,None,0,2,2,2,0,0,0,0,1957.6033766,,,,,,,,,,,,,1957.3303655999998,1957.3304005999998,1957.5919803999996,1957.6033766,1957.6033766,1958.3443332999996,1957.6033766,1959.2277722,j,0,1.6231362999997145,None,right,20,[],0,shiftedgaze_R_20.png,j,0,3,results24,001,2026-04-20_10h42.42.166,mogelijke versie adaptive staircase builder,,2026.1.3,60.05309895013105,2026-04-20 10h42.42.503344 +0200,
20.5,ecc10neg,right,1,0,1,f,1,1.861246200000096,None,0,2,2,2,1,0,1,0,1959.3252287999994,,,,,,,,,,,,,,,1959.3141359,1959.3252287999994,1959.3252287999994,1960.2274890999997,1959.3252287999994,1961.1945512000002,f,1,1.861246200000096,None,right,20,[20],1,shiftedgaze_R_20.png,f,1,3,results24,001,2026-04-20_10h42.42.166,mogelijke versie adaptive staircase builder,,2026.1.3,60.05309895013105,2026-04-20 10h42.42.503344 +0200,
20.5,ecc10neg,right,2,0,2,f,0,1.5369070000006104,None,0,2,2,2,2,0,2,0,1961.4254621999999,,,,,,,,,,,,,,,1961.4142194999995,1961.4254621999999,1961.4254621999999,1962.1942457999994,1961.4254621999999,1962.9775215999998,f,0,1.5369070000006104,None,direct,19,"[20, 19]",2,shifteddirectgaze.png,f,0,3,results24,001,2026-04-20_10h42.42.166,mogelijke versie adaptive staircase builder,,2026.1.3,60.05309895013105,2026-04-20 10h42.42.503344 +0200,
20.5,ecc10neg,right,3,0,3,j,0,1.4947384999995847,None,0,2,2,2,3,0,3,0,1963.1796862,,,,,,,,,,,,,,,1963.1693205000001,1963.1796862,1963.1796862,1963.9780873999998,1963.1796862,1964.6785504999998,j,0,1.4947384999995847,None,left,20,"[20, 19]",2,shiftedgaze_L_20.png,j,0,3,results24,001,2026-04-20_10h42.42.166,mogelijke versie adaptive staircase builder,,2026.1.3,60.05309895013105,2026-04-20 10h42.42.503344 +0200,
20.5,ecc10neg,right,4,0,4,j,0,2.1609150000003865,None,0,2,2,2,4,0,4,0,1964.7695576999995,,,,,,,,,,,,,,,1964.7589025999996,1964.7695576999995,1964.7695576999995,1965.6939099,1964.7695576999995,1966.9442645,j,0,2.1609150000003865,None,left,20,"[20, 19]",2,shiftedgaze_L_20.png,j,0,3,results24,001,2026-04-20_10h42.42.166,mogelijke versie adaptive staircase builder,,2026.1.3,60.05309895013105,2026-04-20 10h42.42.503344 +0200,
20.5,ecc10neg,right,5,0,5,j,0,1.5978605000000243,None,0,2,2,2,5,0,5,0,1967.060579,,,,,,,,,,,,,,,1967.0480692,1967.060579,1967.060579,1967.9439189999994,1967.060579,1968.6607655999996,j,0,1.5978605000000243,None,right,20,"[20, 19]",2,shiftedgaze_R_20.png,j,0,3,results24,001,2026-04-20_10h42.42.166,mogelijke versie adaptive staircase builder,,2026.1.3,60.05309895013105,2026-04-20 10h42.42.503344 +0200,
20.5,ecc10neg,right,6,0,6,f,0,1.7456759999995484,None,0,2,2,2,6,0,6,0,1968.7687445000001,,,,,,,,,,,,,,,1968.7573469999998,1968.7687445000001,1968.7687445000001,1969.6606628,1968.7687445000001,1970.5276575999997,f,0,1.7456759999995484,None,direct,20,"[20, 19]",2,shifteddirectgaze.png,f,0,3,results24,001,2026-04-20_10h42.42.166,mogelijke versie adaptive staircase builder,,2026.1.3,60.05309895013105,2026-04-20 10h42.42.503344 +0200,
20.5,ecc10neg,right,7,0,7,f,0,2.6719428999995216,None,0,2,2,2,7,0,7,0,1970.6186388999995,,,,,,,,,,,,,,,1970.6080832999996,1970.6186388999995,1970.6186388999995,1971.5275825999997,1970.6186388999995,1973.2945313999999,f,0,2.6719428999995216,None,direct,20,"[20, 19]",2,shifteddirectgaze.png,f,0,3,results24,001,2026-04-20_10h42.42.166,mogelijke versie adaptive staircase builder,,2026.1.3,60.05309895013105,2026-04-20 10h42.42.503344 +0200,
20.5,ecc10neg,right,8,0,8,j,0,1.5113573999997243,None,0,2,2,2,8,0,8,0,1973.4111109999994,,,,,,,,,,,,,,,1973.3994831,1973.4111109999994,1973.4111109999994,1974.2937252000002,1973.4111109999994,1974.9277511,j,0,1.5113573999997243,None,right,20,"[20, 19]",2,shiftedgaze_R_20.png,j,0,3,results24,001,2026-04-20_10h42.42.166,mogelijke versie adaptive staircase builder,,2026.1.3,60.05309895013105,2026-04-20 10h42.42.503344 +0200,
20.5,ecc10neg,right,9,0,9,f,1,1.5963963000003787,None,0,2,2,2,9,0,9,0,1975.0223865999997,,,,,,,,,,,,,,,1975.0113559000001,1975.0223865999997,1975.0223865999997,1975.9275857000002,1975.0223865999997,1976.6283070999998,f,1,1.5963963000003787,None,right,20,"[20, 19, 20]",3,shiftedgaze_R_20.png,f,1,3,results24,001,2026-04-20_10h42.42.166,mogelijke versie adaptive staircase builder,,2026.1.3,60.05309895013105,2026-04-20 10h42.42.503344 +0200,
20.5,ecc10neg,right,10,0,10,f,0,1.320748599999206,None,0,2,2,2,10,0,10,0,1976.7377606999999,,,,,,,,,,,,,,,1976.7266083999993,1976.7377606999999,1976.7377606999999,1977.6437580000002,1976.7377606999999,1978.0610067999996,f,0,1.320748599999206,None,direct,19,"[20, 19, 20, 19]",4,shifteddirectgaze.png,f,0,3,results24,001,2026-04-20_10h42.42.166,mogelijke versie adaptive staircase builder,,2026.1.3,60.05309895013105,2026-04-20 10h42.42.503344 +0200,
20.5,ecc10neg,right,11,0,11,f,1,1.5063356999999087,None,0,2,2,2,11,0,11,0,1978.1520781999998,,,,,,,,,,,,,,,1978.1408307000002,1978.1520781999998,1978.1520781999998,1979.0612058999995,1978.1520781999998,1979.6606874999998,f,1,1.5063356999999087,None,left,20,"[20, 19, 20, 19, 20]",5,shiftedgaze_L_20.png,f,1,3,results24,001,2026-04-20_10h42.42.166,mogelijke versie adaptive staircase builder,,2026.1.3,60.05309895013105,2026-04-20 10h42.42.503344 +0200,
20.5,ecc10neg,right,12,0,12,j,0,1.4999379999999292,None,0,2,2,2,12,0,12,0,1980.1106292999993,,,,,,,,,,,,,,,1980.0999413,1980.1106292999993,1980.1106292999993,1980.6605644,1980.1106292999993,1981.6108243999997,j,0,1.4999379999999292,None,left,19,"[20, 19, 20, 19, 20, 19]",6,shiftedgaze_L_19.png,j,0,3,results24,001,2026-04-20_10h42.42.166,mogelijke versie adaptive staircase builder,,2026.1.3,60.05309895013105,2026-04-20 10h42.42.503344 +0200,
20.5,ecc10neg,right,13,0,13,f,1,2.0893765000000712,None,0,2,2,2,13,0,13,0,1981.7290677,,,,,,,,,,,,,,,1981.7174305999997,1981.7290677,1981.7290677,1982.6111407999997,1981.7290677,1983.8284646000002,f,1,2.0893765000000712,None,right,20,"[20, 19, 20, 19, 20, 19, 20]",7,shiftedgaze_R_20.png,f,1,3,results24,001,2026-04-20_10h42.42.166,mogelijke versie adaptive staircase builder,,2026.1.3,60.05309895013105,2026-04-20 10h42.42.503344 +0200,
20.5,ecc10neg,right,14,0,14,j,0,2.304616299999907,None,0,2,2,2,14,0,14,0,1983.9381392999994,,,,,,,,,,,,,,,1983.9268139999995,1983.9381392999994,1983.9381392999994,1984.844615,1983.9381392999994,1986.2441430999997,j,0,2.304616299999907,None,left,19,"[20, 19, 20, 19, 20, 19, 20, 19]",8,shiftedgaze_L_19.png,j,0,3,results24,001,2026-04-20_10h42.42.166,mogelijke versie adaptive staircase builder,,2026.1.3,60.05309895013105,2026-04-20 10h42.42.503344 +0200,
20.5,ecc10neg,right,15,0,15,j,0,1.7776506999998674,None,0,2,2,2,15,0,15,0,1986.3607559000002,,,,,,,,,,,,,,,1986.3493865,1986.3607559000002,1986.3607559000002,1987.2437031,1986.3607559000002,1988.1441753,j,0,1.7776506999998674,None,right,20,"[20, 19, 20, 19, 20, 19, 20, 19]",8,shiftedgaze_R_20.png,j,0,3,results24,001,2026-04-20_10h42.42.166,mogelijke versie adaptive staircase builder,,2026.1.3,60.05309895013105,2026-04-20 10h42.42.503344 +0200,
20.5,ecc10neg,right,16,0,16,f,0,1.5493804999996428,None,0,2,2,2,16,0,16,0,1988.2530511999994,,,,,,,,,,,,,,,1988.2417544,1988.2530511999994,1988.2530511999994,1989.1436322999998,1988.2530511999994,1989.8106358999994,f,0,1.5493804999996428,None,direct,20,"[20, 19, 20, 19, 20, 19, 20, 19]",8,shifteddirectgaze.png,f,0,3,results24,001,2026-04-20_10h42.42.166,mogelijke versie adaptive staircase builder,,2026.1.3,60.05309895013105,2026-04-20 10h42.42.503344 +0200,
20.5,ecc10neg,right,17,0,17,f,1,1.8831766000002972,None,0,2,2,2,17,0,17,0,1989.9274948000002,,,,,,,,,,,,,,,1989.9158066999998,1989.9274948000002,1989.9274948000002,1990.8103285999996,1989.9274948000002,1991.8274120999995,f,1,1.8831766000002972,None,right,20,"[20, 19, 20, 19, 20, 19, 20, 19, 20]",9,shiftedgaze_R_20.png,f,1,3,results24,001,2026-04-20_10h42.42.166,mogelijke versie adaptive staircase builder,,2026.1.3,60.05309895013105,2026-04-20 10h42.42.503344 +0200,
20.5,ecc10neg,right,18,0,18,j,1,2.7134876000000077,None,0,2,2,2,18,0,18,0,1991.9373676999994,,,,,,,,,,,,,,,1991.9262225000002,1991.9373676999994,1991.9373676999994,1992.8269275000002,1991.9373676999994,1994.6606173,j,1,2.7134876000000077,None,direct,19,"[20, 19, 20, 19, 20, 19, 20, 19, 20]",9,shifteddirectgaze.png,j,1,3,results24,001,2026-04-20_10h42.42.166,mogelijke versie adaptive staircase builder,,2026.1.3,60.05309895013105,2026-04-20 10h42.42.503344 +0200,
20.5,ecc10neg,right,19,0,19,j,0,1.0918306999992637,None,0,2,2,2,19,0,19,0,1995.1267099999995,,,,,,,,,,,,,,,1995.1157015999997,1995.1267099999995,1995.1267099999995,1995.6602031000002,1995.1267099999995,1996.2273014000002,j,0,1.0918306999992637,None,left,18,"[20, 19, 20, 19, 20, 19, 20, 19, 20, 18]",10,shiftedgaze_L_18.png,j,0,3,results24,001,2026-04-20_10h42.42.166,mogelijke versie adaptive staircase builder,,2026.1.3,60.05309895013105,2026-04-20 10h42.42.503344 +0200,
20.5,ecc10neg,right,20,0,20,f,1,1.4263129000000845,None,0,2,2,2,20,0,20,0,1996.4401466999998,,,,,,,,,,,,,,,1996.4279032999993,1996.4401466999998,1996.4401466999998,1997.2267856999997,1996.4401466999998,1997.8772831999995,f,1,1.4263129000000845,None,right,19,"[20, 19, 20, 19, 20, 19, 20, 19, 20, 18, 19]",11,shiftedgaze_R_19.png,f,1,3,results24,001,2026-04-20_10h42.42.166,mogelijke versie adaptive staircase builder,,2026.1.3,60.05309895013105,2026-04-20 10h42.42.503344 +0200,
20.5,ecc10neg,right,21,0,21,j,0,1.8167755000004036,None,0,2,2,2,21,0,21,0,1997.9857326000001,,,,,,,,,,,,,,,1997.9740751,1997.9857326000001,1997.9857326000001,1998.8768541,1997.9857326000001,1999.8104133999996,j,0,1.8167755000004036,None,left,18,"[20, 19, 20, 19, 20, 19, 20, 19, 20, 18, 19, 18]",12,shiftedgaze_L_18.png,j,0,3,results24,001,2026-04-20_10h42.42.166,mogelijke versie adaptive staircase builder,,2026.1.3,60.05309895013105,2026-04-20 10h42.42.503344 +0200,
20.5,ecc10neg,right,22,0,22,f,1,1.6144360999996934,None,0,2,2,2,22,0,22,0,1999.9002061,,,,,,,,,,,,,,,1999.8892740000001,1999.9002061,1999.9002061,2000.8101490999998,1999.9002061,2001.5273444999993,f,1,1.6144360999996934,None,left,19,"[20, 19, 20, 19, 20, 19, 20, 19, 20, 18, 19, 18, 19]",13,shiftedgaze_L_19.png,f,1,3,results24,001,2026-04-20_10h42.42.166,mogelijke versie adaptive staircase builder,,2026.1.3,60.05309895013105,2026-04-20 10h42.42.503344 +0200,
20.5,ecc10neg,right,23,0,23,j,0,1.631057200000214,None,0,2,2,2,23,0,23,0,2001.6195228999995,,,,,,,,,,,,,,,2001.6083460999998,2001.6195228999995,2001.6195228999995,2002.5267673999997,2001.6195228999995,2003.2605662999995,j,0,1.631057200000214,None,left,18,"[20, 19, 20, 19, 20, 19, 20, 19, 20, 18, 19, 18, 19, 18]",14,shiftedgaze_L_18.png,j,0,3,results24,001,2026-04-20_10h42.42.166,mogelijke versie adaptive staircase builder,,2026.1.3,60.05309895013105,2026-04-20 10h42.42.503344 +0200,
20.5,ecc10neg,right,24,0,24,f,1,1.5895330000003014,None,0,2,2,2,24,0,24,0,2003.3969459999998,,,,,,,,,,,,,,,2003.3852004,2003.3969459999998,2003.3969459999998,2004.2601135999994,2003.3969459999998,2004.9937014999996,f,1,1.5895330000003014,None,right,19,"[20, 19, 20, 19, 20, 19, 20, 19, 20, 18, 19, 18, 19, 18, 19]",15,shiftedgaze_R_19.png,f,1,3,results24,001,2026-04-20_10h42.42.166,mogelijke versie adaptive staircase builder,,2026.1.3,60.05309895013105,2026-04-20 10h42.42.503344 +0200,
20.5,ecc10neg,right,25,0,25,j,1,1.4827674999996816,None,0,2,2,2,25,0,25,0,2005.1036642,,,,,,,,,,,,,,,2005.0920989999995,2005.1036642,2005.1036642,2005.9943859999994,2005.1036642,2006.5938122999996,j,1,1.4827674999996816,None,direct,18,"[20, 19, 20, 19, 20, 19, 20, 19, 20, 18, 19, 18, 19, 18, 19]",15,shifteddirectgaze.png,j,1,3,results24,001,2026-04-20_10h42.42.166,mogelijke versie adaptive staircase builder,,2026.1.3,60.05309895013105,2026-04-20 10h42.42.503344 +0200,
20.5,ecc10neg,right,26,0,26,j,1,2.231384500000786,None,0,2,2,2,26,0,26,0,2006.6830851999994,,,,,,,,,,,,,,,2006.6713343000001,2006.6830851999994,2006.6830851999994,2007.5934252999996,2006.6830851999994,2008.9269490999995,j,1,2.231384500000786,None,direct,17,"[20, 19, 20, 19, 20, 19, 20, 19, 20, 18, 19, 18, 19, 18, 19]",15,shifteddirectgaze.png,j,1,3,results24,001,2026-04-20_10h42.42.166,mogelijke versie adaptive staircase builder,,2026.1.3,60.05309895013105,2026-04-20 10h42.42.503344 +0200,
20.5,ecc10neg,right,27,0,27,f,1,1.151711499999692,None,0,2,2,2,27,0,27,0,2009.4028059000002,,,,,,,,,,,,,,,2009.3909850999999,2009.4028059000002,2009.4028059000002,2009.9266355,2009.4028059000002,2010.5603016999994,f,1,1.151711499999692,None,right,16,"[20, 19, 20, 19, 20, 19, 20, 19, 20, 18, 19, 18, 19, 18, 19]",15,shiftedgaze_R_16.png,f,1,3,results24,001,2026-04-20_10h42.42.166,mogelijke versie adaptive staircase builder,,2026.1.3,60.05309895013105,2026-04-20 10h42.42.503344 +0200,
20.5,ecc10neg,right,28,0,28,f,1,1.3552237000003515,None,0,2,2,2,28,0,28,0,2010.7833056999998,,,,,,,,,,,,,,,2010.7713961,2010.7833056999998,2010.7833056999998,2011.5598883000002,2010.7833056999998,2012.143825,f,1,1.3552237000003515,None,left,15,"[20, 19, 20, 19, 20, 19, 20, 19, 20, 18, 19, 18, 19, 18, 19]",15,shiftedgaze_L_15.png,f,1,3,results24,001,2026-04-20_10h42.42.166,mogelijke versie adaptive staircase builder,,2026.1.3,60.05309895013105,2026-04-20 10h42.42.503344 +0200,
20.5,ecc10neg,right,29,0,29,f,1,1.587788300000284,None,0,2,2,2,29,0,29,0,2012.3668048999998,,,,,,,,,,,,,,,2012.3540557999995,2012.3668048999998,2012.3668048999998,2013.1432722,2012.3668048999998,2013.9603988,f,1,1.587788300000284,None,right,14,"[20, 19, 20, 19, 20, 19, 20, 19, 20, 18, 19, 18, 19, 18, 19]",15,shiftedgaze_R_14.png,f,1,3,results24,001,2026-04-20_10h42.42.166,mogelijke versie adaptive staircase builder,,2026.1.3,60.05309895013105,2026-04-20 10h42.42.503344 +0200,
20.5,ecc10neg,right,30,0,30,j,1,1.1808788999996978,None,0,2,2,2,30,0,30,0,2014.0537169999998,,,,,,,,,,,,,,,2014.0419327999998,2014.0537169999998,2014.0537169999998,2014.9599822999999,2014.0537169999998,2015.2438727999997,j,1,1.1808788999996978,None,direct,13,"[20, 19, 20, 19, 20, 19, 20, 19, 20, 18, 19, 18, 19, 18, 19]",15,shifteddirectgaze.png,j,1,3,results24,001,2026-04-20_10h42.42.166,mogelijke versie adaptive staircase builder,,2026.1.3,60.05309895013105,2026-04-20 10h42.42.503344 +0200,
20.5,ecc10neg,right,31,0,31,f,1,1.4379903999997623,None,0,2,2,2,31,0,31,0,2015.3486593999996,,,,,,,,,,,,,,,2015.3376904999996,2015.3486593999996,2015.3486593999996,2016.2435287999997,2015.3486593999996,2016.7936779000001,f,1,1.4379903999997623,None,left,12,"[20, 19, 20, 19, 20, 19, 20, 19, 20, 18, 19, 18, 19, 18, 19]",15,shiftedgaze_L_12.png,f,1,3,results24,001,2026-04-20_10h42.42.166,mogelijke versie adaptive staircase builder,,2026.1.3,60.05309895013105,2026-04-20 10h42.42.503344 +0200,
20.5,ecc10neg,right,32,0,32,j,0,1.384914000000208,None,0,2,2,2,32,0,32,0,2017.0016809999997,,,,,,,,,,,,,,,2016.9905708999995,2017.0016809999997,2017.0016809999997,2017.7932614000001,2017.0016809999997,2018.3937741999998,j,0,1.384914000000208,None,left,11,"[20, 19, 20, 19, 20, 19, 20, 19, 20, 18, 19, 18, 19, 18, 19, 11]",16,shiftedgaze_L_11.png,j,0,3,results24,001,2026-04-20_10h42.42.166,mogelijke versie adaptive staircase builder,,2026.1.3,60.05309895013105,2026-04-20 10h42.42.503344 +0200,
20.5,ecc10neg,right,33,0,33,f,0,1.5149476999995386,None,0,2,2,2,33,0,33,0,2018.4876558999995,,,,,,,,,,,,,,,2018.4768238999995,2018.4876558999995,2018.4876558999995,2019.3931535000002,2018.4876558999995,2020.0102594999998,f,0,1.5149476999995386,None,direct,12,"[20, 19, 20, 19, 20, 19, 20, 19, 20, 18, 19, 18, 19, 18, 19, 11]",16,shifteddirectgaze.png,f,0,3,results24,001,2026-04-20_10h42.42.166,mogelijke versie adaptive staircase builder,,2026.1.3,60.05309895013105,2026-04-20 10h42.42.503344 +0200,
20.5,ecc10neg,right,34,0,34,j,0,1.7556071999997584,None,0,2,2,2,34,0,34,0,2020.2149400999997,,,,,,,,,,,,,,,2020.2038255999996,2020.2149400999997,2020.2149400999997,2021.0101125,2020.2149400999997,2021.9769316000002,j,0,1.7556071999997584,None,left,13,"[20, 19, 20, 19, 20, 19, 20, 19, 20, 18, 19, 18, 19, 18, 19, 11]",16,shiftedgaze_L_13.png,j,0,3,results24,001,2026-04-20_10h42.42.166,mogelijke versie adaptive staircase builder,,2026.1.3,60.05309895013105,2026-04-20 10h42.42.503344 +0200,
20.5,ecc10neg,right,35,0,35,j,0,2.48575080000046,None,0,2,2,2,35,0,35,0,2022.0848546999996,,,,,,,,,,,,,,,2022.0707578000001,2022.0848546999996,2022.0848546999996,2022.9764526,2022.0848546999996,2024.5767815999998,j,0,2.48575080000046,None,left,14,"[20, 19, 20, 19, 20, 19, 20, 19, 20, 18, 19, 18, 19, 18, 19, 11]",16,shiftedgaze_L_14.png,j,0,3,results24,001,2026-04-20_10h42.42.166,mogelijke versie adaptive staircase builder,,2026.1.3,60.05309895013105,2026-04-20 10h42.42.503344 +0200,
20.5,ecc10neg,right,36,0,36,f,0,2.016555799999878,None,0,2,2,2,36,0,36,0,2024.6660605999996,,,,,,,,,,,,,,,2024.6554065999999,2024.6660605999996,2024.6660605999996,2025.5763590999995,2024.6660605999996,2026.6937093999995,f,0,2.016555799999878,None,direct,15,"[20, 19, 20, 19, 20, 19, 20, 19, 20, 18, 19, 18, 19, 18, 19, 11]",16,shifteddirectgaze.png,f,0,3,results24,001,2026-04-20_10h42.42.166,mogelijke versie adaptive staircase builder,,2026.1.3,60.05309895013105,2026-04-20 10h42.42.503344 +0200,
20.5,ecc10neg,right,37,0,37,f,0,1.5793378999997003,None,0,2,2,2,37,0,37,0,2026.7832081999995,,,,,,,,,,,,,,,2026.7721971,2026.7832081999995,2026.7832081999995,2027.6930437,2026.7832081999995,2028.3767534999997,f,0,1.5793378999997003,None,direct,16,"[20, 19, 20, 19, 20, 19, 20, 19, 20, 18, 19, 18, 19, 18, 19, 11]",16,shifteddirectgaze.png,f,0,3,results24,001,2026-04-20_10h42.42.166,mogelijke versie adaptive staircase builder,,2026.1.3,60.05309895013105,2026-04-20 10h42.42.503344 +0200,
20.5,ecc10neg,right,38,0,38,j,0,1.6755809000005684,None,0,2,2,2,38,0,38,0,2028.5919638999994,,,,,,,,,,,,,,,2028.5805869999995,2028.5919638999994,2028.5919638999994,2029.3768677999997,2028.5919638999994,2030.2766719,j,0,1.6755809000005684,None,left,17,"[20, 19, 20, 19, 20, 19, 20, 19, 20, 18, 19, 18, 19, 18, 19, 11]",16,shiftedgaze_L_17.png,j,0,3,results24,001,2026-04-20_10h42.42.166,mogelijke versie adaptive staircase builder,,2026.1.3,60.05309895013105,2026-04-20 10h42.42.503344 +0200,
20.5,ecc10neg,right,39,0,39,f,1,1.5558695999998235,None,0,2,2,2,39,0,39,0,2030.3666588999995,,,,,,,,,,,,,,,2030.3558118,2030.3666588999995,2030.3666588999995,2031.276339,2030.3666588999995,2031.9268103999993,f,1,1.5558695999998235,None,left,18,"[20, 19, 20, 19, 20, 19, 20, 19, 20, 18, 19, 18, 19, 18, 19, 11, 18]",17,shiftedgaze_L_18.png,f,1,3,results24,001,2026-04-20_10h42.42.166,mogelijke versie adaptive staircase builder,,2026.1.3,60.05309895013105,2026-04-20 10h42.42.503344 +0200,
20.5,ecc10neg,right,40,0,40,f,1,1.3481580999996368,None,0,2,2,2,40,0,40,0,2032.1584518999998,,,,,,,,,,,,,,,2032.146901,2032.1584518999998,2032.1584518999998,2032.9263352999997,2032.1584518999998,2033.510483,f,1,1.3481580999996368,None,right,17,"[20, 19, 20, 19, 20, 19, 20, 19, 20, 18, 19, 18, 19, 18, 19, 11, 18]",17,shiftedgaze_R_17.png,f,1,3,results24,001,2026-04-20_10h42.42.166,mogelijke versie adaptive staircase builder,,2026.1.3,60.05309895013105,2026-04-20 10h42.42.503344 +0200,
20.5,ecc10neg,right,41,0,41,f,1,1.216139199999816,None,0,2,2,2,41,0,41,0,2033.6107984999999,,,,,,,,,,,,,,,2033.5988853,2033.6107984999999,2033.6107984999999,2034.5262716999996,2033.6107984999999,2034.8434957999998,f,1,1.216139199999816,None,right,16,"[20, 19, 20, 19, 20, 19, 20, 19, 20, 18, 19, 18, 19, 18, 19, 11, 18]",17,shiftedgaze_R_16.png,f,1,3,results24,001,2026-04-20_10h42.42.166,mogelijke versie adaptive staircase builder,,2026.1.3,60.05309895013105,2026-04-20 10h42.42.503344 +0200,
20.5,ecc10neg,right,42,0,42,f,0,1.289369899999656,None,0,2,2,2,42,0,42,0,2034.9535772,,,,,,,,,,,,,,,2034.9418895999997,2034.9535772,2034.9535772,2035.8431974999994,2034.9535772,2036.2435169,f,0,1.289369899999656,None,direct,15,"[20, 19, 20, 19, 20, 19, 20, 19, 20, 18, 19, 18, 19, 18, 19, 11, 18, 15]",18,shifteddirectgaze.png,f,0,3,results24,001,2026-04-20_10h42.42.166,mogelijke versie adaptive staircase builder,,2026.1.3,60.05309895013105,2026-04-20 10h42.42.503344 +0200,
20.5,ecc10neg,right,43,0,43,j,0,1.1651122000002943,None,0,2,2,2,43,0,43,0,2036.4454373999997,,,,,,,,,,,,,,,2036.4336483999996,2036.4454373999997,2036.4454373999997,2037.2431935999994,2036.4454373999997,2037.6268363,j,0,1.1651122000002943,None,left,16,"[20, 19, 20, 19, 20, 19, 20, 19, 20, 18, 19, 18, 19, 18, 19, 11, 18, 15]",18,shiftedgaze_L_16.png,j,0,3,results24,001,2026-04-20_10h42.42.166,mogelijke versie adaptive staircase builder,,2026.1.3,60.05309895013105,2026-04-20 10h42.42.503344 +0200,
20.5,ecc10neg,right,44,0,44,j,0,1.213741999999911,None,0,2,2,2,44,0,44,0,2037.7168106999998,,,,,,,,,,,,,,,2037.7061077999997,2037.7168106999998,2037.7168106999998,2038.6263006,2037.7168106999998,2038.9433774999998,j,0,1.213741999999911,None,left,17,"[20, 19, 20, 19, 20, 19, 20, 19, 20, 18, 19, 18, 19, 18, 19, 11, 18, 15]",18,shiftedgaze_L_17.png,j,0,3,results24,001,2026-04-20_10h42.42.166,mogelijke versie adaptive staircase builder,,2026.1.3,60.05309895013105,2026-04-20 10h42.42.503344 +0200,
20.5,ecc10neg,right,45,0,45,j,0,1.4466725000002043,None,0,2,2,2,45,0,45,0,2039.0366895999996,,,,,,,,,,,,,,,2039.0256301999998,2039.0366895999996,2039.0366895999996,2039.9429363999998,2039.0366895999996,2040.4933799,j,0,1.4466725000002043,None,left,18,"[20, 19, 20, 19, 20, 19, 20, 19, 20, 18, 19, 18, 19, 18, 19, 11, 18, 15]",18,shiftedgaze_L_18.png,j,0,3,results24,001,2026-04-20_10h42.42.166,mogelijke versie adaptive staircase builder,,2026.1.3,60.05309895013105,2026-04-20 10h42.42.503344 +0200,
20.5,ecc10neg,right,46,0,46,j,1,1.3337431999998444,None,0,2,2,2,46,0,46,0,2040.588745,,,,,,,,,,,,,,,2040.5772376999994,2040.588745,2040.588745,2041.492991,2040.588745,2041.9268089999996,j,1,1.3337431999998444,None,direct,19,"[20, 19, 20, 19, 20, 19, 20, 19, 20, 18, 19, 18, 19, 18, 19, 11, 18, 15, 19]",19,shifteddirectgaze.png,j,1,3,results24,001,2026-04-20_10h42.42.166,mogelijke versie adaptive staircase builder,,2026.1.3,60.05309895013105,2026-04-20 10h42.42.503344 +0200,
20.5,ecc10neg,right,47,0,47,f,0,1.5923468000000867,None,0,2,2,2,47,0,47,0,2042.0181893999998,,,,,,,,,,,,,,,2042.0077298999995,2042.0181893999998,2042.0181893999998,2042.9262377999994,2042.0181893999998,2043.6268565,f,0,1.5923468000000867,None,direct,18,"[20, 19, 20, 19, 20, 19, 20, 19, 20, 18, 19, 18, 19, 18, 19, 11, 18, 15, 19, 18]",20,shifteddirectgaze.png,f,0,3,results24,001,2026-04-20_10h42.42.166,mogelijke versie adaptive staircase builder,,2026.1.3,60.05309895013105,2026-04-20 10h42.42.503344 +0200,
20.5,ecc10neg,right,48,0,48,j,0,1.6045074000003297,None,0,2,2,2,48,0,48,0,2043.7259722999997,,,,,,,,,,,,,,,2043.7152580000002,2043.7259722999997,2043.7259722999997,2044.6264229999997,2043.7259722999997,2045.3432469,j,0,1.6045074000003297,None,left,19,"[20, 19, 20, 19, 20, 19, 20, 19, 20, 18, 19, 18, 19, 18, 19, 11, 18, 15, 19, 18]",20,shiftedgaze_L_19.png,j,0,3,results24,001,2026-04-20_10h42.42.166,mogelijke versie adaptive staircase builder,,2026.1.3,60.05309895013105,2026-04-20 10h42.42.503344 +0200,
20.5,ecc10neg,right,49,0,49,j,1,1.950880700000198,None,0,2,2,2,49,0,49,0,2045.4356314999995,,,,,,,,,,,,,,,2045.4254873999998,2045.4356314999995,2045.4356314999995,2046.3431197999998,2045.4356314999995,2047.3932138,j,1,1.950880700000198,None,direct,20,"[20, 19, 20, 19, 20, 19, 20, 19, 20, 18, 19, 18, 19, 18, 19, 11, 18, 15, 19, 18, 20]",21,shifteddirectgaze.png,j,1,3,results24,001,2026-04-20_10h42.42.166,mogelijke versie adaptive staircase builder,,2026.1.3,60.05309895013105,2026-04-20 10h42.42.503344 +0200,
20.5,ecc10neg,right,50,0,50,f,1,1.3918304999997417,None,0,2,2,2,50,0,50,0,2047.5067339999996,,,,,,,,,,,,,,,2047.4948671000002,2047.5067339999996,2047.5067339999996,2048.3927482,2047.5067339999996,2048.9099509,f,1,1.3918304999997417,None,right,19,"[20, 19, 20, 19, 20, 19, 20, 19, 20, 18, 19, 18, 19, 18, 19, 11, 18, 15, 19, 18, 20]",21,shiftedgaze_R_19.png,f,1,3,results24,001,2026-04-20_10h42.42.166,mogelijke versie adaptive staircase builder,,2026.1.3,60.05309895013105,2026-04-20 10h42.42.503344 +0200,
20.5,ecc10neg,right,51,0,51,f,1,1.183763099999851,None,0,2,2,2,51,0,51,0,2049.4027801,,,,,,,,,,,,,,,2049.3914502,2049.4027801,2049.4027801,2049.9095114,2049.4027801,2050.59321,f,1,1.183763099999851,None,right,18,"[20, 19, 20, 19, 20, 19, 20, 19, 20, 18, 19, 18, 19, 18, 19, 11, 18, 15, 19, 18, 20]",21,shiftedgaze_R_18.png,f,1,3,results24,001,2026-04-20_10h42.42.166,mogelijke versie adaptive staircase builder,,2026.1.3,60.05309895013105,2026-04-20 10h42.42.503344 +0200,
20.5,ecc10neg,right,52,0,52,j,0,1.4337890000006155,None,0,2,2,2,52,0,52,0,2050.7046837,,,,,,,,,,,,,,,2050.6932019999995,2050.7046837,2050.7046837,2051.5930185999996,2050.7046837,2052.1432943,j,0,1.4337890000006155,None,left,17,"[20, 19, 20, 19, 20, 19, 20, 19, 20, 18, 19, 18, 19, 18, 19, 11, 18, 15, 19, 18, 20, 17]",22,shiftedgaze_L_17.png,j,0,3,results24,001,2026-04-20_10h42.42.166,mogelijke versie adaptive staircase builder,,2026.1.3,60.05309895013105,2026-04-20 10h42.42.503344 +0200,
20.5,ecc10neg,right,53,0,53,j,0,1.3428908000005322,None,0,2,2,2,53,0,53,0,2052.2596759,,,,,,,,,,,,,,,2052.2479765,2052.2596759,2052.2596759,2053.1428084,2052.2596759,2053.6099126,j,0,1.3428908000005322,None,right,18,"[20, 19, 20, 19, 20, 19, 20, 19, 20, 18, 19, 18, 19, 18, 19, 11, 18, 15, 19, 18, 20, 17]",22,shiftedgaze_R_18.png,j,0,3,results24,001,2026-04-20_10h42.42.166,mogelijke versie adaptive staircase builder,,2026.1.3,60.05309895013105,2026-04-20 10h42.42.503344 +0200,
20.5,ecc10neg,right,54,0,54,j,0,1.9829259999996793,None,0,2,2,2,54,0,54,0,2053.7076329,,,,,,,,,,,,,,,2053.6960271,2053.7076329,2053.7076329,2054.6094623,2053.7076329,2055.6931833,j,0,1.9829259999996793,None,right,19,"[20, 19, 20, 19, 20, 19, 20, 19, 20, 18, 19, 18, 19, 18, 19, 11, 18, 15, 19, 18, 20, 17]",22,shiftedgaze_R_19.png,j,0,3,results24,001,2026-04-20_10h42.42.166,mogelijke versie adaptive staircase builder,,2026.1.3,60.05309895013105,2026-04-20 10h42.42.503344 +0200,
20.5,ecc10neg,right,55,0,55,f,0,1.2130221999996138,None,0,2,2,2,55,0,55,0,2055.8054969999994,,,,,,,,,,,,,,,2055.7940201,2055.8054969999994,2055.8054969999994,2056.6928473,2055.8054969999994,2057.0267365,f,0,1.2130221999996138,None,direct,20,"[20, 19, 20, 19, 20, 19, 20, 19, 20, 18, 19, 18, 19, 18, 19, 11, 18, 15, 19, 18, 20, 17]",22,shifteddirectgaze.png,f,0,3,results24,001,2026-04-20_10h42.42.166,mogelijke versie adaptive staircase builder,,2026.1.3,60.05309895013105,2026-04-20 10h42.42.503344 +0200,
20.5,ecc10neg,right,56,0,56,f,1,1.3222133999997823,None,0,2,2,2,56,0,56,0,2057.1293141999995,,,,,,,,,,,,,,,2057.1139913999996,2057.1293141999995,2057.1293141999995,2058.0426748,2057.1293141999995,2058.4600177,f,1,1.3222133999997823,None,left,20,"[20, 19, 20, 19, 20, 19, 20, 19, 20, 18, 19, 18, 19, 18, 19, 11, 18, 15, 19, 18, 20, 17, 20]",23,shiftedgaze_L_20.png,f,1,3,results24,001,2026-04-20_10h42.42.166,mogelijke versie adaptive staircase builder,,2026.1.3,60.05309895013105,2026-04-20 10h42.42.503344 +0200,
20.5,ecc10neg,right,57,0,57,f,1,1.332217600000149,None,0,2,2,2,57,0,57,0,2058.5582649,,,,,,,,,,,,,,,2058.5460014,2058.5582649,2058.5582649,2059.4761742,2058.5582649,2059.8932788,f,1,1.332217600000149,None,left,19,"[20, 19, 20, 19, 20, 19, 20, 19, 20, 18, 19, 18, 19, 18, 19, 11, 18, 15, 19, 18, 20, 17, 20]",23,shiftedgaze_L_19.png,f,1,3,results24,001,2026-04-20_10h42.42.166,mogelijke versie adaptive staircase builder,,2026.1.3,60.05309895013105,2026-04-20 10h42.42.503344 +0200,
20.5,ecc10neg,right,58,0,58,f,1,1.3876769999997123,None,0,2,2,2,58,0,58,0,2060.0228747,,,,,,,,,,,,,,,2060.0094678999994,2060.0228747,2060.0228747,2060.8928304,2060.0228747,2061.4265963999997,f,1,1.3876769999997123,None,right,18,"[20, 19, 20, 19, 20, 19, 20, 19, 20, 18, 19, 18, 19, 18, 19, 11, 18, 15, 19, 18, 20, 17, 20]",23,shiftedgaze_R_18.png,f,1,3,results24,001,2026-04-20_10h42.42.166,mogelijke versie adaptive staircase builder,,2026.1.3,60.05309895013105,2026-04-20 10h42.42.503344 +0200,
20.5,ecc10neg,right,59,0,59,f,1,1.3216182999994999,None,0,2,2,2,59,0,59,0,2061.536859,,,,,,,,,,,,,,,2061.5236800000002,2061.536859,2061.536859,2062.4261652999994,2061.536859,2062.8599221999993,f,1,1.3216182999994999,None,right,17,"[20, 19, 20, 19, 20, 19, 20, 19, 20, 18, 19, 18, 19, 18, 19, 11, 18, 15, 19, 18, 20, 17, 20]",23,shiftedgaze_R_17.png,f,1,3,results24,001,2026-04-20_10h42.42.166,mogelijke versie adaptive staircase builder,,2026.1.3,60.05309895013105,2026-04-20 10h42.42.503344 +0200,
20.5,ecc10neg,right,2,2,0,,,,,0,2,2,2,,,,,,,,,,,,,,,,,,,,,,,,,,,,,,,,,,,,,,results24,001,2026-04-20_10h42.42.166,mogelijke versie adaptive staircase builder,,2026.1.3,60.05309895013105,2026-04-20 10h42.42.503344 +0200,
