xPos,stimulusSet,whichImage,thisN,thisTrialN,thisRepN,key_resp.keys,key_resp.corr,key_resp.rt,key_resp.duration,blocks.thisRepN,blocks.thisTrialN,blocks.thisN,blocks.thisIndex,trials.thisRepN,trials.thisTrialN,trials.thisN,trials.thisIndex,thisRow.t,notes,piloting,intro.started,introinstructions.started,intro_key.started,demo_image_left.started,demo_image_middle.started,demo_image_right.started,intro.stopped,intro_key.keys,intro_key.rt,intro_key.duration,block_start.started,block_start.stopped,trial.started,key_resp.started,middle_image.started,right_image.started,left_image.started,trial.stopped,trials.key_resp.keys,trials.key_resp.corr,trials.key_resp.rt,trials.key_resp.duration,direction,angle,reversal_intensities,number_reversals,stimulus,response,correct,blockNumber,participant,session,date,expName,expVersion,psychopyVersion,frameRate,expStart,
,,,,,,,,,,,,,,,,,,,,False,0.04962150000028487,0.06055749999904947,0.06055749999904947,0.06055749999904947,0.06055749999904947,0.06055749999904947,892.3048010000002,space,892.1000767999994,0.1278956999994989,,,,,,,,,,,,,,,,,,,,,results27,001,2026-04-20_12h15.58.690,mogelijke versie adaptive staircase builder,,2026.1.3,60.015183840975354,2026-04-20 12h15.59.024946 +0200,
4.5,ecc10pos,left,0,0,0,f,0,2.933035199999722,None,0,0,0,0,0,0,0,0,892.6355648999997,,,,,,,,,,,,,892.5164958999994,892.5165466999988,892.624760499999,892.6355648999997,892.6355648999997,892.6355648999997,893.5211565999998,895.5715130999997,f,0,2.933035199999722,None,direct,20,[],0,shifteddirectgaze.png,f,0,1,results27,001,2026-04-20_12h15.58.690,mogelijke versie adaptive staircase builder,,2026.1.3,60.015183840975354,2026-04-20 12h15.59.024946 +0200,
4.5,ecc10pos,left,1,0,1,f,0,8.802048399998966,None,0,0,0,0,1,0,1,0,895.6705720999998,,,,,,,,,,,,,,,895.6589385999996,895.6705720999998,895.6705720999998,895.6705720999998,896.5712440999996,904.4880224999997,f,0,8.802048399998966,None,direct,20,[],0,shifteddirectgaze.png,f,0,1,results27,001,2026-04-20_12h15.58.690,mogelijke versie adaptive staircase builder,,2026.1.3,60.015183840975354,2026-04-20 12h15.59.024946 +0200,
4.5,ecc10pos,left,2,0,2,f,1,2.1289833999999246,None,0,0,0,0,2,0,2,0,904.623720399999,,,,,,,,,,,,,,,904.6124318999991,904.623720399999,904.623720399999,904.623720399999,905.4877227999987,906.754594,f,1,2.1289833999999246,None,left,20,[20],1,shiftedgaze_L_20.png,f,1,1,results27,001,2026-04-20_12h15.58.690,mogelijke versie adaptive staircase builder,,2026.1.3,60.015183840975354,2026-04-20 12h15.59.024946 +0200,
4.5,ecc10pos,left,3,0,3,f,1,2.1410441000007268,None,0,0,0,0,3,0,3,0,906.8675805000003,,,,,,,,,,,,,,,906.8558981999995,906.8675805000003,906.8675805000003,906.8675805000003,907.7543447999997,909.0223009999991,f,1,2.1410441000007268,None,right,19,[20],1,shiftedgaze_R_19.png,f,1,1,results27,001,2026-04-20_12h15.58.690,mogelijke versie adaptive staircase builder,,2026.1.3,60.015183840975354,2026-04-20 12h15.59.024946 +0200,
4.5,ecc10pos,left,4,0,4,f,1,2.188304400000561,None,0,0,0,0,4,0,4,0,909.1324624999997,,,,,,,,,,,,,,,909.1216217000001,909.1324624999997,909.1324624999997,909.1324624999997,910.0375179999992,911.3213938999997,f,1,2.188304400000561,None,right,18,[20],1,shiftedgaze_R_18.png,f,1,1,results27,001,2026-04-20_12h15.58.690,mogelijke versie adaptive staircase builder,,2026.1.3,60.015183840975354,2026-04-20 12h15.59.024946 +0200,
4.5,ecc10pos,left,5,0,5,j,1,3.0098213000001124,None,0,0,0,0,5,0,5,0,911.4148691999999,,,,,,,,,,,,,,,911.4027116999987,911.4148691999999,911.4148691999999,911.4148691999999,912.3216522000002,914.4378424999995,j,1,3.0098213000001124,None,direct,17,[20],1,shifteddirectgaze.png,j,1,1,results27,001,2026-04-20_12h15.58.690,mogelijke versie adaptive staircase builder,,2026.1.3,60.015183840975354,2026-04-20 12h15.59.024946 +0200,
4.5,ecc10pos,left,6,0,6,f,1,2.50786319999861,None,0,0,0,0,6,0,6,0,914.5566787999996,,,,,,,,,,,,,,,914.5451297,914.5566787999996,914.5566787999996,914.5566787999996,915.4374179999995,917.0712559000003,f,1,2.50786319999861,None,left,16,[20],1,shiftedgaze_L_16.png,f,1,1,results27,001,2026-04-20_12h15.58.690,mogelijke versie adaptive staircase builder,,2026.1.3,60.015183840975354,2026-04-20 12h15.59.024946 +0200,
4.5,ecc10pos,left,7,0,7,f,1,3.2985622999985935,None,0,0,0,0,7,0,7,0,917.190025599999,,,,,,,,,,,,,,,917.1785330999992,917.190025599999,917.190025599999,917.190025599999,918.0708649999997,920.5044438999994,f,1,3.2985622999985935,None,left,15,[20],1,shiftedgaze_L_15.png,f,1,1,results27,001,2026-04-20_12h15.58.690,mogelijke versie adaptive staircase builder,,2026.1.3,60.015183840975354,2026-04-20 12h15.59.024946 +0200,
4.5,ecc10pos,left,8,0,8,f,1,2.3776049000007333,None,0,0,0,0,8,0,8,0,920.6150488999992,,,,,,,,,,,,,,,920.6038087999987,920.6150488999992,920.6150488999992,920.6150488999992,921.5040682999988,923.0043855999993,f,1,2.3776049000007333,None,right,14,[20],1,shiftedgaze_R_14.png,f,1,1,results27,001,2026-04-20_12h15.58.690,mogelijke versie adaptive staircase builder,,2026.1.3,60.015183840975354,2026-04-20 12h15.59.024946 +0200,
4.5,ecc10pos,left,9,0,9,j,0,1.7198611000003439,None,0,0,0,0,9,0,9,0,923.1047433999993,,,,,,,,,,,,,,,923.0942705999987,923.1047433999993,923.1047433999993,923.1047433999993,924.0039089000002,924.8377651999999,j,0,1.7198611000003439,None,left,13,"[20, 13]",2,shiftedgaze_L_13.png,j,0,1,results27,001,2026-04-20_12h15.58.690,mogelijke versie adaptive staircase builder,,2026.1.3,60.015183840975354,2026-04-20 12h15.59.024946 +0200,
4.5,ecc10pos,left,10,0,10,j,1,2.069320799999332,None,0,0,0,0,10,0,10,0,924.9313172000002,,,,,,,,,,,,,,,924.9204334999995,924.9313172000002,924.9313172000002,924.9313172000002,925.8373947,927.004336,j,1,2.069320799999332,None,direct,14,"[20, 13, 14]",3,shifteddirectgaze.png,j,1,1,results27,001,2026-04-20_12h15.58.690,mogelijke versie adaptive staircase builder,,2026.1.3,60.015183840975354,2026-04-20 12h15.59.024946 +0200,
4.5,ecc10pos,left,11,0,11,f,1,3.310630300000412,None,0,0,0,0,11,0,11,0,927.0979709999992,,,,,,,,,,,,,,,927.0867320999987,927.0979709999992,927.0979709999992,927.0979709999992,928.0040718,930.4210165000004,f,1,3.310630300000412,None,left,13,"[20, 13, 14]",3,shiftedgaze_L_13.png,f,1,1,results27,001,2026-04-20_12h15.58.690,mogelijke versie adaptive staircase builder,,2026.1.3,60.015183840975354,2026-04-20 12h15.59.024946 +0200,
4.5,ecc10pos,left,12,0,12,f,1,2.09668690000035,None,0,0,0,0,12,0,12,0,930.5199831999998,,,,,,,,,,,,,,,930.5097270999995,930.5199831999998,930.5199831999998,930.5199831999998,931.4205330000004,932.6209619000001,f,1,2.09668690000035,None,left,12,"[20, 13, 14]",3,shiftedgaze_L_12.png,f,1,1,results27,001,2026-04-20_12h15.58.690,mogelijke versie adaptive staircase builder,,2026.1.3,60.015183840975354,2026-04-20 12h15.59.024946 +0200,
4.5,ecc10pos,left,13,0,13,j,1,1.5258162999998603,None,0,0,0,0,13,0,13,0,932.7148861999995,,,,,,,,,,,,,,,932.7041649000003,932.7148861999995,932.7148861999995,932.7148861999995,933.6205558000001,934.2542603999991,j,1,1.5258162999998603,None,direct,11,"[20, 13, 14]",3,shifteddirectgaze.png,j,1,1,results27,001,2026-04-20_12h15.58.690,mogelijke versie adaptive staircase builder,,2026.1.3,60.015183840975354,2026-04-20 12h15.59.024946 +0200,
4.5,ecc10pos,left,14,0,14,f,1,2.4823947999993834,None,0,0,0,0,14,0,14,0,934.7421794999991,,,,,,,,,,,,,,,934.7304485000004,934.7421794999991,934.7421794999991,934.7421794999991,935.2538478999995,937.2375683999999,f,1,2.4823947999993834,None,right,10,"[20, 13, 14]",3,shiftedgaze_R_10.png,f,1,1,results27,001,2026-04-20_12h15.58.690,mogelijke versie adaptive staircase builder,,2026.1.3,60.015183840975354,2026-04-20 12h15.59.024946 +0200,
4.5,ecc10pos,left,15,0,15,f,0,1.8056675999996514,None,0,0,0,0,15,0,15,0,937.3311326999992,,,,,,,,,,,,,,,937.3206867999997,937.3311326999992,937.3311326999992,937.3311326999992,938.2371932999995,939.1374930000002,f,0,1.8056675999996514,None,direct,9,"[20, 13, 14, 9]",4,shifteddirectgaze.png,f,0,1,results27,001,2026-04-20_12h15.58.690,mogelijke versie adaptive staircase builder,,2026.1.3,60.015183840975354,2026-04-20 12h15.59.024946 +0200,
4.5,ecc10pos,left,16,0,16,j,0,2.480918899998869,None,0,0,0,0,16,0,16,0,939.2316871000003,,,,,,,,,,,,,,,939.2198224999993,939.2316871000003,939.2316871000003,939.2316871000003,940.1371194999992,941.7209462999999,j,0,2.480918899998869,None,right,10,"[20, 13, 14, 9]",4,shiftedgaze_R_10.png,j,0,1,results27,001,2026-04-20_12h15.58.690,mogelijke versie adaptive staircase builder,,2026.1.3,60.015183840975354,2026-04-20 12h15.59.024946 +0200,
4.5,ecc10pos,left,17,0,17,j,1,2.8655261999992945,None,0,0,0,0,17,0,17,0,941.8150009000001,,,,,,,,,,,,,,,941.8044786999999,941.8150009000001,941.8150009000001,941.8150009000001,942.7204346999988,944.687457,j,1,2.8655261999992945,None,direct,11,"[20, 13, 14, 9, 11]",5,shifteddirectgaze.png,j,1,1,results27,001,2026-04-20_12h15.58.690,mogelijke versie adaptive staircase builder,,2026.1.3,60.015183840975354,2026-04-20 12h15.59.024946 +0200,
4.5,ecc10pos,left,18,0,18,j,0,1.7487590000000637,None,0,0,0,0,18,0,18,0,945.1798632999999,,,,,,,,,,,,,,,945.1695729999992,945.1798632999999,945.1798632999999,945.1798632999999,945.6870462999996,946.9374212000002,j,0,1.7487590000000637,None,left,10,"[20, 13, 14, 9, 11, 10]",6,shiftedgaze_L_10.png,j,0,1,results27,001,2026-04-20_12h15.58.690,mogelijke versie adaptive staircase builder,,2026.1.3,60.015183840975354,2026-04-20 12h15.59.024946 +0200,
4.5,ecc10pos,left,19,0,19,f,1,1.5434664999993402,None,0,0,0,0,19,0,19,0,947.1450733999991,,,,,,,,,,,,,,,947.1341634,947.1450733999991,947.1450733999991,947.1450733999991,947.9372354999996,948.7039957999987,f,1,1.5434664999993402,None,right,11,"[20, 13, 14, 9, 11, 10, 11]",7,shiftedgaze_R_11.png,f,1,1,results27,001,2026-04-20_12h15.58.690,mogelijke versie adaptive staircase builder,,2026.1.3,60.015183840975354,2026-04-20 12h15.59.024946 +0200,
4.5,ecc10pos,left,20,0,20,f,1,1.4228124000001117,None,0,0,0,0,20,0,20,0,948.8017937999994,,,,,,,,,,,,,,,948.7915280999987,948.8017937999994,948.8017937999994,948.8017937999994,949.7035619999988,950.2374639999998,f,1,1.4228124000001117,None,left,10,"[20, 13, 14, 9, 11, 10, 11]",7,shiftedgaze_L_10.png,f,1,1,results27,001,2026-04-20_12h15.58.690,mogelijke versie adaptive staircase builder,,2026.1.3,60.015183840975354,2026-04-20 12h15.59.024946 +0200,
4.5,ecc10pos,left,21,0,21,j,0,1.5234425999988161,None,0,0,0,0,21,0,21,0,950.4611719000004,,,,,,,,,,,,,,,950.4507314000002,950.4611719000004,950.4611719000004,950.4611719000004,951.2370358999997,951.9880247000001,j,0,1.5234425999988161,None,right,9,"[20, 13, 14, 9, 11, 10, 11, 9]",8,shiftedgaze_R_9.png,j,0,1,results27,001,2026-04-20_12h15.58.690,mogelijke versie adaptive staircase builder,,2026.1.3,60.015183840975354,2026-04-20 12h15.59.024946 +0200,
4.5,ecc10pos,left,22,0,22,f,1,1.6156561999996484,None,0,0,0,0,22,0,22,0,952.0809138999994,,,,,,,,,,,,,,,952.0695849999993,952.0809138999994,952.0809138999994,952.0809138999994,953.0036849999997,953.7040574999992,f,1,1.6156561999996484,None,right,10,"[20, 13, 14, 9, 11, 10, 11, 9, 10]",9,shiftedgaze_R_10.png,f,1,1,results27,001,2026-04-20_12h15.58.690,mogelijke versie adaptive staircase builder,,2026.1.3,60.015183840975354,2026-04-20 12h15.59.024946 +0200,
4.5,ecc10pos,left,23,0,23,j,1,1.988555300000371,None,0,0,0,0,23,0,23,0,953.7960781999991,,,,,,,,,,,,,,,953.7851960999997,953.7960781999991,953.7960781999991,953.7960781999991,954.7036169999992,955.7873505999996,j,1,1.988555300000371,None,direct,9,"[20, 13, 14, 9, 11, 10, 11, 9, 10]",9,shifteddirectgaze.png,j,1,1,results27,001,2026-04-20_12h15.58.690,mogelijke versie adaptive staircase builder,,2026.1.3,60.015183840975354,2026-04-20 12h15.59.024946 +0200,
4.5,ecc10pos,left,24,0,24,f,1,1.432182800001101,None,0,0,0,0,24,0,24,0,956.0004362,,,,,,,,,,,,,,,955.9893448000003,956.0004362,956.0004362,956.0004362,956.7868665999995,957.4373159999996,f,1,1.432182800001101,None,left,8,"[20, 13, 14, 9, 11, 10, 11, 9, 10]",9,shiftedgaze_L_8.png,f,1,1,results27,001,2026-04-20_12h15.58.690,mogelijke versie adaptive staircase builder,,2026.1.3,60.015183840975354,2026-04-20 12h15.59.024946 +0200,
4.5,ecc10pos,left,25,0,25,f,1,1.5386995000008028,None,0,0,0,0,25,0,25,0,957.6458470999987,,,,,,,,,,,,,,,957.6353576999991,957.6458470999987,957.6458470999987,957.6458470999987,958.4370834000001,959.1872514999995,f,1,1.5386995000008028,None,right,7,"[20, 13, 14, 9, 11, 10, 11, 9, 10]",9,shiftedgaze_R_7.png,f,1,1,results27,001,2026-04-20_12h15.58.690,mogelijke versie adaptive staircase builder,,2026.1.3,60.015183840975354,2026-04-20 12h15.59.024946 +0200,
4.5,ecc10pos,left,26,0,26,f,0,1.8552759000012884,None,0,0,0,0,26,0,26,0,959.2813589999987,,,,,,,,,,,,,,,959.2707926999992,959.2813589999987,959.2813589999987,959.2813589999987,960.1868426000001,961.1372805999999,f,0,1.8552759000012884,None,direct,6,"[20, 13, 14, 9, 11, 10, 11, 9, 10, 6]",10,shifteddirectgaze.png,f,0,1,results27,001,2026-04-20_12h15.58.690,mogelijke versie adaptive staircase builder,,2026.1.3,60.015183840975354,2026-04-20 12h15.59.024946 +0200,
4.5,ecc10pos,left,27,0,27,j,0,1.7781287999987399,None,0,0,0,0,27,0,27,0,961.2305732000004,,,,,,,,,,,,,,,961.218918999999,961.2305732000004,961.2305732000004,961.2305732000004,962.1369467000004,963.0206213000001,j,0,1.7781287999987399,None,right,7,"[20, 13, 14, 9, 11, 10, 11, 9, 10, 6]",10,shiftedgaze_R_7.png,j,0,1,results27,001,2026-04-20_12h15.58.690,mogelijke versie adaptive staircase builder,,2026.1.3,60.015183840975354,2026-04-20 12h15.59.024946 +0200,
4.5,ecc10pos,left,28,0,28,j,0,1.547034100000019,None,0,0,0,0,28,0,28,0,963.2375338000002,,,,,,,,,,,,,,,963.2268076,963.2375338000002,963.2375338000002,963.2375338000002,964.0201268000001,964.7872152999989,j,0,1.547034100000019,None,right,8,"[20, 13, 14, 9, 11, 10, 11, 9, 10, 6]",10,shiftedgaze_R_8.png,j,0,1,results27,001,2026-04-20_12h15.58.690,mogelijke versie adaptive staircase builder,,2026.1.3,60.015183840975354,2026-04-20 12h15.59.024946 +0200,
4.5,ecc10pos,left,29,0,29,j,0,2.625759000000471,None,0,0,0,0,29,0,29,0,964.8788626999994,,,,,,,,,,,,,,,964.8679673999995,964.8788626999994,964.8788626999994,964.8788626999994,965.7866789999989,967.5206160999987,j,0,2.625759000000471,None,right,9,"[20, 13, 14, 9, 11, 10, 11, 9, 10, 6]",10,shiftedgaze_R_9.png,j,0,1,results27,001,2026-04-20_12h15.58.690,mogelijke versie adaptive staircase builder,,2026.1.3,60.015183840975354,2026-04-20 12h15.59.024946 +0200,
4.5,ecc10pos,left,30,0,30,j,0,1.666279699998995,None,0,0,0,0,30,0,30,0,967.6142846000002,,,,,,,,,,,,,,,967.6035186999998,967.6142846000002,967.6142846000002,967.6142846000002,968.5200097999987,969.2871785999996,j,0,1.666279699998995,None,left,10,"[20, 13, 14, 9, 11, 10, 11, 9, 10, 6]",10,shiftedgaze_L_10.png,j,0,1,results27,001,2026-04-20_12h15.58.690,mogelijke versie adaptive staircase builder,,2026.1.3,60.015183840975354,2026-04-20 12h15.59.024946 +0200,
4.5,ecc10pos,left,31,0,31,j,0,1.5096424000003026,None,0,0,0,0,31,0,31,0,969.3789656999998,,,,,,,,,,,,,,,969.3686964999997,969.3789656999998,969.3789656999998,969.3789656999998,970.2867735,970.9038552000002,j,0,1.5096424000003026,None,right,11,"[20, 13, 14, 9, 11, 10, 11, 9, 10, 6]",10,shiftedgaze_R_11.png,j,0,1,results27,001,2026-04-20_12h15.58.690,mogelijke versie adaptive staircase builder,,2026.1.3,60.015183840975354,2026-04-20 12h15.59.024946 +0200,
4.5,ecc10pos,left,32,0,32,j,1,1.3256585999988602,None,0,0,0,0,32,0,32,0,970.9949619999988,,,,,,,,,,,,,,,970.9838882999993,970.9949619999988,970.9949619999988,970.9949619999988,971.9034382999998,972.3371735000001,j,1,1.3256585999988602,None,direct,12,"[20, 13, 14, 9, 11, 10, 11, 9, 10, 6, 12]",11,shifteddirectgaze.png,j,1,1,results27,001,2026-04-20_12h15.58.690,mogelijke versie adaptive staircase builder,,2026.1.3,60.015183840975354,2026-04-20 12h15.59.024946 +0200,
4.5,ecc10pos,left,33,0,33,f,0,2.338837600000261,None,0,0,0,0,33,0,33,0,972.4299363999999,,,,,,,,,,,,,,,972.4192040999988,972.4299363999999,972.4299363999999,972.4299363999999,973.3368399999999,974.7703428999994,f,0,2.338837600000261,None,direct,11,"[20, 13, 14, 9, 11, 10, 11, 9, 10, 6, 12, 11]",12,shifteddirectgaze.png,f,0,1,results27,001,2026-04-20_12h15.58.690,mogelijke versie adaptive staircase builder,,2026.1.3,60.015183840975354,2026-04-20 12h15.59.024946 +0200,
4.5,ecc10pos,left,34,0,34,j,0,3.187918100000388,None,0,0,0,0,34,0,34,0,974.8606461999989,,,,,,,,,,,,,,,974.8500403999988,974.8606461999989,974.8606461999989,974.8606461999989,975.7700527999987,978.0535784999993,j,0,3.187918100000388,None,left,12,"[20, 13, 14, 9, 11, 10, 11, 9, 10, 6, 12, 11]",12,shiftedgaze_L_12.png,j,0,1,results27,001,2026-04-20_12h15.58.690,mogelijke versie adaptive staircase builder,,2026.1.3,60.015183840975354,2026-04-20 12h15.59.024946 +0200,
4.5,ecc10pos,left,35,0,35,j,1,1.6215986000006524,None,0,0,0,0,35,0,35,0,978.1473472999987,,,,,,,,,,,,,,,978.1363224999986,978.1473472999987,978.1473472999987,978.1473472999987,979.0532598999998,979.7709386999995,j,1,1.6215986000006524,None,direct,13,"[20, 13, 14, 9, 11, 10, 11, 9, 10, 6, 12, 11, 13]",13,shifteddirectgaze.png,j,1,1,results27,001,2026-04-20_12h15.58.690,mogelijke versie adaptive staircase builder,,2026.1.3,60.015183840975354,2026-04-20 12h15.59.024946 +0200,
4.5,ecc10pos,left,36,0,36,j,1,1.5330599000008078,None,0,0,0,0,36,0,36,0,979.8594501999996,,,,,,,,,,,,,,,979.8491063000001,979.8594501999996,979.8594501999996,979.8594501999996,980.7866109999995,981.4034553999991,j,1,1.5330599000008078,None,direct,12,"[20, 13, 14, 9, 11, 10, 11, 9, 10, 6, 12, 11, 13]",13,shifteddirectgaze.png,j,1,1,results27,001,2026-04-20_12h15.58.690,mogelijke versie adaptive staircase builder,,2026.1.3,60.015183840975354,2026-04-20 12h15.59.024946 +0200,
4.5,ecc10pos,left,37,0,37,f,1,1.2148526000000857,None,0,0,0,0,37,0,37,0,981.8978384999991,,,,,,,,,,,,,,,981.8877061999992,981.8978384999991,981.8978384999991,981.8978384999991,982.4032725999987,983.1201958999991,f,1,1.2148526000000857,None,left,11,"[20, 13, 14, 9, 11, 10, 11, 9, 10, 6, 12, 11, 13]",13,shiftedgaze_L_11.png,f,1,1,results27,001,2026-04-20_12h15.58.690,mogelijke versie adaptive staircase builder,,2026.1.3,60.015183840975354,2026-04-20 12h15.59.024946 +0200,
4.5,ecc10pos,left,38,0,38,f,0,1.364258699999482,None,0,0,0,0,38,0,38,0,983.228333699999,,,,,,,,,,,,,,,983.2184080999996,983.228333699999,983.228333699999,983.228333699999,984.1198093999992,984.603502599999,f,0,1.364258699999482,None,direct,10,"[20, 13, 14, 9, 11, 10, 11, 9, 10, 6, 12, 11, 13, 10]",14,shifteddirectgaze.png,f,0,1,results27,001,2026-04-20_12h15.58.690,mogelijke versie adaptive staircase builder,,2026.1.3,60.015183840975354,2026-04-20 12h15.59.024946 +0200,
4.5,ecc10pos,left,39,0,39,f,1,1.3764611999995395,None,0,0,0,0,39,0,39,0,984.6962803999995,,,,,,,,,,,,,,,984.6852411,984.6962803999995,984.6962803999995,984.6962803999995,985.6031079999993,986.0868284999997,f,1,1.3764611999995395,None,right,11,"[20, 13, 14, 9, 11, 10, 11, 9, 10, 6, 12, 11, 13, 10, 11]",15,shiftedgaze_R_11.png,f,1,1,results27,001,2026-04-20_12h15.58.690,mogelijke versie adaptive staircase builder,,2026.1.3,60.015183840975354,2026-04-20 12h15.59.024946 +0200,
4.5,ecc10pos,left,40,0,40,j,0,1.8292473000001337,None,0,0,0,0,40,0,40,0,986.1793724999989,,,,,,,,,,,,,,,986.1682445999995,986.1793724999989,986.1793724999989,986.1793724999989,987.0864545000004,988.0200887999999,j,0,1.8292473000001337,None,left,10,"[20, 13, 14, 9, 11, 10, 11, 9, 10, 6, 12, 11, 13, 10, 11, 10]",16,shiftedgaze_L_10.png,j,0,1,results27,001,2026-04-20_12h15.58.690,mogelijke versie adaptive staircase builder,,2026.1.3,60.015183840975354,2026-04-20 12h15.59.024946 +0200,
4.5,ecc10pos,left,41,0,41,f,1,1.4390651999983675,None,0,0,0,0,41,0,41,0,988.1136047999989,,,,,,,,,,,,,,,988.1024519000002,988.1136047999989,988.1136047999989,988.1136047999989,989.0197298999992,989.5534107999993,f,1,1.4390651999983675,None,right,11,"[20, 13, 14, 9, 11, 10, 11, 9, 10, 6, 12, 11, 13, 10, 11, 10, 11]",17,shiftedgaze_R_11.png,f,1,1,results27,001,2026-04-20_12h15.58.690,mogelijke versie adaptive staircase builder,,2026.1.3,60.015183840975354,2026-04-20 12h15.59.024946 +0200,
4.5,ecc10pos,left,42,0,42,f,1,1.269018999999389,None,0,0,0,0,42,0,42,0,989.6436887999989,,,,,,,,,,,,,,,989.6327115999993,989.6436887999989,989.6436887999989,989.6436887999989,990.5530339999987,990.9201456999999,f,1,1.269018999999389,None,left,10,"[20, 13, 14, 9, 11, 10, 11, 9, 10, 6, 12, 11, 13, 10, 11, 10, 11]",17,shiftedgaze_L_10.png,f,1,1,results27,001,2026-04-20_12h15.58.690,mogelijke versie adaptive staircase builder,,2026.1.3,60.015183840975354,2026-04-20 12h15.59.024946 +0200,
4.5,ecc10pos,left,43,0,43,f,1,1.5740314000013313,None,0,0,0,0,43,0,43,0,991.0105881999989,,,,,,,,,,,,,,,991.0004036999999,991.0105881999989,991.0105881999989,991.0105881999989,991.9196940999991,992.5868192999988,f,1,1.5740314000013313,None,right,9,"[20, 13, 14, 9, 11, 10, 11, 9, 10, 6, 12, 11, 13, 10, 11, 10, 11]",17,shiftedgaze_R_9.png,f,1,1,results27,001,2026-04-20_12h15.58.690,mogelijke versie adaptive staircase builder,,2026.1.3,60.015183840975354,2026-04-20 12h15.59.024946 +0200,
4.5,ecc10pos,left,44,0,44,j,0,1.7786792000006244,None,0,0,0,0,44,0,44,0,992.6779955000002,,,,,,,,,,,,,,,992.6673981000004,992.6779955000002,992.6779955000002,992.6779955000002,993.5866532,994.4700116000004,j,0,1.7786792000006244,None,right,8,"[20, 13, 14, 9, 11, 10, 11, 9, 10, 6, 12, 11, 13, 10, 11, 10, 11, 8]",18,shiftedgaze_R_8.png,j,0,1,results27,001,2026-04-20_12h15.58.690,mogelijke versie adaptive staircase builder,,2026.1.3,60.015183840975354,2026-04-20 12h15.59.024946 +0200,
4.5,ecc10pos,left,45,0,45,j,0,1.6865425000014511,None,0,0,0,0,45,0,45,0,994.578137999999,,,,,,,,,,,,,,,994.5667264000003,994.578137999999,994.578137999999,994.578137999999,995.4697153999987,996.2701378999991,j,0,1.6865425000014511,None,left,9,"[20, 13, 14, 9, 11, 10, 11, 9, 10, 6, 12, 11, 13, 10, 11, 10, 11, 8]",18,shiftedgaze_L_9.png,j,0,1,results27,001,2026-04-20_12h15.58.690,mogelijke versie adaptive staircase builder,,2026.1.3,60.015183840975354,2026-04-20 12h15.59.024946 +0200,
4.5,ecc10pos,left,46,0,46,j,1,1.7268631999995705,None,0,0,0,0,46,0,46,0,996.3618435999997,,,,,,,,,,,,,,,996.3515986999992,996.3618435999997,996.3618435999997,996.3618435999997,997.2697492999996,998.1033592000003,j,1,1.7268631999995705,None,direct,10,"[20, 13, 14, 9, 11, 10, 11, 9, 10, 6, 12, 11, 13, 10, 11, 10, 11, 8, 10]",19,shifteddirectgaze.png,j,1,1,results27,001,2026-04-20_12h15.58.690,mogelijke versie adaptive staircase builder,,2026.1.3,60.015183840975354,2026-04-20 12h15.59.024946 +0200,
4.5,ecc10pos,left,47,0,47,j,0,2.164965399999346,None,0,0,0,0,47,0,47,0,998.1956463999995,,,,,,,,,,,,,,,998.1847073999998,998.1956463999995,998.1956463999995,998.1956463999995,999.1030195000003,1000.3699593999991,j,0,2.164965399999346,None,right,9,"[20, 13, 14, 9, 11, 10, 11, 9, 10, 6, 12, 11, 13, 10, 11, 10, 11, 8, 10, 9]",20,shiftedgaze_R_9.png,j,0,1,results27,001,2026-04-20_12h15.58.690,mogelijke versie adaptive staircase builder,,2026.1.3,60.015183840975354,2026-04-20 12h15.59.024946 +0200,
4.5,ecc10pos,left,48,0,48,f,1,2.1372787000000244,None,0,0,0,0,48,0,48,0,1000.4633197999992,,,,,,,,,,,,,,,1000.4515105999999,1000.4633197999992,1000.4633197999992,1000.4633197999992,1001.3696498999998,1002.6034323999993,f,1,2.1372787000000244,None,right,10,"[20, 13, 14, 9, 11, 10, 11, 9, 10, 6, 12, 11, 13, 10, 11, 10, 11, 8, 10, 9, 10]",21,shiftedgaze_R_10.png,f,1,1,results27,001,2026-04-20_12h15.58.690,mogelijke versie adaptive staircase builder,,2026.1.3,60.015183840975354,2026-04-20 12h15.59.024946 +0200,
4.5,ecc10pos,left,49,0,49,j,0,1.5690427999998064,None,0,0,0,0,49,0,49,0,1002.6955835999997,,,,,,,,,,,,,,,1002.6850412999993,1002.6955835999997,1002.6955835999997,1002.6955835999997,1003.6030618000004,1004.2705773999987,j,0,1.5690427999998064,None,right,9,"[20, 13, 14, 9, 11, 10, 11, 9, 10, 6, 12, 11, 13, 10, 11, 10, 11, 8, 10, 9, 10, 9]",22,shiftedgaze_R_9.png,j,0,1,results27,001,2026-04-20_12h15.58.690,mogelijke versie adaptive staircase builder,,2026.1.3,60.015183840975354,2026-04-20 12h15.59.024946 +0200,
4.5,ecc10pos,left,50,0,50,j,0,1.3337921999991522,None,0,0,0,0,50,0,50,0,1004.3628615999987,,,,,,,,,,,,,,,1004.3516159999999,1004.3628615999987,1004.3628615999987,1004.3628615999987,1005.2864442999999,1005.7034200999988,j,0,1.3337921999991522,None,right,10,"[20, 13, 14, 9, 11, 10, 11, 9, 10, 6, 12, 11, 13, 10, 11, 10, 11, 8, 10, 9, 10, 9]",22,shiftedgaze_R_10.png,j,0,1,results27,001,2026-04-20_12h15.58.690,mogelijke versie adaptive staircase builder,,2026.1.3,60.015183840975354,2026-04-20 12h15.59.024946 +0200,
4.5,ecc10pos,left,51,0,51,j,1,1.4057954999989306,None,0,0,0,0,51,0,51,0,1005.7949031999997,,,,,,,,,,,,,,,1005.7846566999997,1005.7949031999997,1005.7949031999997,1005.7949031999997,1006.7029466999993,1007.2034860999993,j,1,1.4057954999989306,None,direct,11,"[20, 13, 14, 9, 11, 10, 11, 9, 10, 6, 12, 11, 13, 10, 11, 10, 11, 8, 10, 9, 10, 9, 11]",23,shifteddirectgaze.png,j,1,1,results27,001,2026-04-20_12h15.58.690,mogelijke versie adaptive staircase builder,,2026.1.3,60.015183840975354,2026-04-20 12h15.59.024946 +0200,
4.5,ecc10pos,left,52,0,52,j,1,1.649384000000282,None,0,0,0,0,52,0,52,0,1007.2952045999991,,,,,,,,,,,,,,,1007.2844833999989,1007.2952045999991,1007.2952045999991,1007.2952045999991,1008.2030102999997,1008.9530648,j,1,1.649384000000282,None,direct,10,"[20, 13, 14, 9, 11, 10, 11, 9, 10, 6, 12, 11, 13, 10, 11, 10, 11, 8, 10, 9, 10, 9, 11]",23,shifteddirectgaze.png,j,1,1,results27,001,2026-04-20_12h15.58.690,mogelijke versie adaptive staircase builder,,2026.1.3,60.015183840975354,2026-04-20 12h15.59.024946 +0200,
4.5,ecc10pos,left,53,0,53,j,1,3.1481917000000976,None,0,0,0,0,53,0,53,0,1009.0452607999996,,,,,,,,,,,,,,,1009.0344886000003,1009.0452607999996,1009.0452607999996,1009.0452607999996,1009.9529494999988,1012.2034549,j,1,3.1481917000000976,None,direct,9,"[20, 13, 14, 9, 11, 10, 11, 9, 10, 6, 12, 11, 13, 10, 11, 10, 11, 8, 10, 9, 10, 9, 11]",23,shifteddirectgaze.png,j,1,1,results27,001,2026-04-20_12h15.58.690,mogelijke versie adaptive staircase builder,,2026.1.3,60.015183840975354,2026-04-20 12h15.59.024946 +0200,
4.5,ecc10pos,left,54,0,54,j,0,2.2566287999998167,None,0,0,0,0,54,0,54,0,1012.2960610999999,,,,,,,,,,,,,,,1012.2852466999993,1012.2960610999999,1012.2960610999999,1012.2960610999999,1013.2031234999995,1014.5533352000002,j,0,2.2566287999998167,None,left,8,"[20, 13, 14, 9, 11, 10, 11, 9, 10, 6, 12, 11, 13, 10, 11, 10, 11, 8, 10, 9, 10, 9, 11, 8]",24,shiftedgaze_L_8.png,j,0,1,results27,001,2026-04-20_12h15.58.690,mogelijke versie adaptive staircase builder,,2026.1.3,60.015183840975354,2026-04-20 12h15.59.024946 +0200,
4.5,ecc10pos,left,55,0,55,j,1,1.3465737999995326,None,0,0,0,0,55,0,55,0,1014.6470470000004,,,,,,,,,,,,,,,1014.6364739,1014.6470470000004,1014.6470470000004,1014.6470470000004,1015.5528264999994,1016.003095099999,j,1,1.3465737999995326,None,direct,9,"[20, 13, 14, 9, 11, 10, 11, 9, 10, 6, 12, 11, 13, 10, 11, 10, 11, 8, 10, 9, 10, 9, 11, 8, 9]",25,shifteddirectgaze.png,j,1,1,results27,001,2026-04-20_12h15.58.690,mogelijke versie adaptive staircase builder,,2026.1.3,60.015183840975354,2026-04-20 12h15.59.024946 +0200,
4.5,ecc10pos,left,56,0,56,f,1,1.6869008999983635,None,0,0,0,0,56,0,56,0,1016.0977179999991,,,,,,,,,,,,,,,1016.0865374000005,1016.0977179999991,1016.0977179999991,1016.0977179999991,1017.0029283000003,1017.7863085999998,f,1,1.6869008999983635,None,left,8,"[20, 13, 14, 9, 11, 10, 11, 9, 10, 6, 12, 11, 13, 10, 11, 10, 11, 8, 10, 9, 10, 9, 11, 8, 9]",25,shiftedgaze_L_8.png,f,1,1,results27,001,2026-04-20_12h15.58.690,mogelijke versie adaptive staircase builder,,2026.1.3,60.015183840975354,2026-04-20 12h15.59.024946 +0200,
4.5,ecc10pos,left,57,0,57,f,1,1.0887250999985554,None,0,0,0,0,57,0,57,0,1018.2479691999997,,,,,,,,,,,,,,,1018.2378931999992,1018.2479691999997,1018.2479691999997,1018.2479691999997,1018.7860282999991,1019.3530436000001,f,1,1.0887250999985554,None,left,7,"[20, 13, 14, 9, 11, 10, 11, 9, 10, 6, 12, 11, 13, 10, 11, 10, 11, 8, 10, 9, 10, 9, 11, 8, 9]",25,shiftedgaze_L_7.png,f,1,1,results27,001,2026-04-20_12h15.58.690,mogelijke versie adaptive staircase builder,,2026.1.3,60.015183840975354,2026-04-20 12h15.59.024946 +0200,
4.5,ecc10pos,left,58,0,58,j,0,1.6560286000003543,None,0,0,0,0,58,0,58,0,1019.5205618999989,,,,,,,,,,,,,,,1019.5093102999999,1019.5205618999989,1019.5205618999989,1019.5205618999989,1020.3528150999991,1021.1862834000003,j,0,1.6560286000003543,None,right,6,"[20, 13, 14, 9, 11, 10, 11, 9, 10, 6, 12, 11, 13, 10, 11, 10, 11, 8, 10, 9, 10, 9, 11, 8, 9, 6]",26,shiftedgaze_R_6.png,j,0,1,results27,001,2026-04-20_12h15.58.690,mogelijke versie adaptive staircase builder,,2026.1.3,60.015183840975354,2026-04-20 12h15.59.024946 +0200,
4.5,ecc10pos,left,59,0,59,j,0,1.3476489999993646,None,0,0,0,0,59,0,59,0,1021.2770431999998,,,,,,,,,,,,,,,1021.2667182999994,1021.2770431999998,1021.2770431999998,1021.2770431999998,1022.1860777000002,1022.6362367000002,j,0,1.3476489999993646,None,right,7,"[20, 13, 14, 9, 11, 10, 11, 9, 10, 6, 12, 11, 13, 10, 11, 10, 11, 8, 10, 9, 10, 9, 11, 8, 9, 6]",26,shiftedgaze_R_7.png,j,0,1,results27,001,2026-04-20_12h15.58.690,mogelijke versie adaptive staircase builder,,2026.1.3,60.015183840975354,2026-04-20 12h15.59.024946 +0200,
4.5,ecc10pos,left,0,0,0,,,,,0,0,0,0,,,,,,,,,,,,,,,,,,,,,,,,,,,,,,,,,,,,,,results27,001,2026-04-20_12h15.58.690,mogelijke versie adaptive staircase builder,,2026.1.3,60.015183840975354,2026-04-20 12h15.59.024946 +0200,
12.5,ecc0,mid,0,0,0,j,0,1.807215400000132,None,0,1,1,1,0,0,0,0,1022.7296823999986,,,,,,,,,,,,,1022.639042499999,1022.6390780000002,1022.7188468999993,1022.7296823999986,1023.6530733999989,1022.7296823999986,1022.7296823999986,1024.5529816999988,j,0,1.807215400000132,None,left,20,[],0,gaze_L_20.png,j,0,2,results27,001,2026-04-20_12h15.58.690,mogelijke versie adaptive staircase builder,,2026.1.3,60.015183840975354,2026-04-20 12h15.59.024946 +0200,
12.5,ecc0,mid,1,0,1,j,0,1.3873516999992717,None,0,1,1,1,1,0,1,0,1024.645332099999,,,,,,,,,,,,,,,1024.6343672999992,1024.645332099999,1025.552637499999,1024.645332099999,1024.645332099999,1026.0364345999988,j,0,1.3873516999992717,None,left,20,[],0,gaze_L_20.png,j,0,2,results27,001,2026-04-20_12h15.58.690,mogelijke versie adaptive staircase builder,,2026.1.3,60.015183840975354,2026-04-20 12h15.59.024946 +0200,
12.5,ecc0,mid,2,0,2,j,1,4.865478699999585,None,0,1,1,1,2,0,2,0,1026.1277766999992,,,,,,,,,,,,,,,1026.1170246000001,1026.1277766999992,1027.0360872,1026.1277766999992,1026.1277766999992,1031.0028758999997,j,1,4.865478699999585,None,direct,20,[20],1,direct_gaze.png,j,1,2,results27,001,2026-04-20_12h15.58.690,mogelijke versie adaptive staircase builder,,2026.1.3,60.015183840975354,2026-04-20 12h15.59.024946 +0200,
12.5,ecc0,mid,3,0,3,j,0,4.4021938999994745,None,0,1,1,1,3,0,3,0,1031.0944514000003,,,,,,,,,,,,,,,1031.083634999999,1031.0944514000003,1032.0026378000002,1031.0944514000003,1031.0944514000003,1035.5030232999998,j,0,4.4021938999994745,None,right,19,"[20, 19]",2,gaze_R_19.png,j,0,2,results27,001,2026-04-20_12h15.58.690,mogelijke versie adaptive staircase builder,,2026.1.3,60.015183840975354,2026-04-20 12h15.59.024946 +0200,
12.5,ecc0,mid,4,0,4,j,0,2.9049598000001424,None,0,1,1,1,4,0,4,0,1035.5996139999988,,,,,,,,,,,,,,,1035.5887329999987,1035.5996139999988,1036.502973999999,1035.5996139999988,1035.5996139999988,1038.5194358999997,j,0,2.9049598000001424,None,right,20,"[20, 19]",2,gaze_R_20.png,j,0,2,results27,001,2026-04-20_12h15.58.690,mogelijke versie adaptive staircase builder,,2026.1.3,60.015183840975354,2026-04-20 12h15.59.024946 +0200,
12.5,ecc0,mid,5,0,5,f,1,3.7744852999985596,None,0,1,1,1,5,0,5,0,1038.6102016000004,,,,,,,,,,,,,,,1038.5999524999988,1038.6102016000004,1039.5200793999993,1038.6102016000004,1038.6102016000004,1042.3862083999993,f,1,3.7744852999985596,None,left,20,"[20, 19, 20]",3,gaze_L_20.png,f,1,2,results27,001,2026-04-20_12h15.58.690,mogelijke versie adaptive staircase builder,,2026.1.3,60.015183840975354,2026-04-20 12h15.59.024946 +0200,
12.5,ecc0,mid,6,0,6,j,1,2.403210799999215,None,0,1,1,1,6,0,6,0,1042.4774715000003,,,,,,,,,,,,,,,1042.4668521999993,1042.4774715000003,1043.3858154999998,1042.4774715000003,1042.4774715000003,1044.8862775999987,j,1,2.403210799999215,None,direct,19,"[20, 19, 20]",3,direct_gaze.png,j,1,2,results27,001,2026-04-20_12h15.58.690,mogelijke versie adaptive staircase builder,,2026.1.3,60.015183840975354,2026-04-20 12h15.59.024946 +0200,
12.5,ecc0,mid,7,0,7,j,1,1.7894980000000942,None,0,1,1,1,7,0,7,0,1044.9793052999994,,,,,,,,,,,,,,,1044.9684225,1044.9793052999994,1045.8858080999998,1044.9793052999994,1044.9793052999994,1046.7695547000003,j,1,1.7894980000000942,None,direct,18,"[20, 19, 20]",3,direct_gaze.png,j,1,2,results27,001,2026-04-20_12h15.58.690,mogelijke versie adaptive staircase builder,,2026.1.3,60.015183840975354,2026-04-20 12h15.59.024946 +0200,
12.5,ecc0,mid,8,0,8,j,1,3.434595500000796,None,0,1,1,1,8,0,8,0,1046.8620425999998,,,,,,,,,,,,,,,1046.8513371999998,1046.8620425999998,1047.7688547999987,1046.8620425999998,1046.8620425999998,1050.3025753999991,j,1,3.434595500000796,None,direct,17,"[20, 19, 20]",3,direct_gaze.png,j,1,2,results27,001,2026-04-20_12h15.58.690,mogelijke versie adaptive staircase builder,,2026.1.3,60.015183840975354,2026-04-20 12h15.59.024946 +0200,
12.5,ecc0,mid,9,0,9,j,1,1.7652529000006325,None,0,1,1,1,9,0,9,0,1050.3954279999998,,,,,,,,,,,,,,,1050.3842255,1050.3954279999998,1051.302263399999,1050.3954279999998,1050.3954279999998,1052.1694324,j,1,1.7652529000006325,None,direct,16,"[20, 19, 20]",3,direct_gaze.png,j,1,2,results27,001,2026-04-20_12h15.58.690,mogelijke versie adaptive staircase builder,,2026.1.3,60.015183840975354,2026-04-20 12h15.59.024946 +0200,
12.5,ecc0,mid,10,0,10,j,0,1.3494203999998717,None,0,1,1,1,10,0,10,0,1052.267377799999,,,,,,,,,,,,,,,1052.2568742999993,1052.267377799999,1053.168864199999,1052.267377799999,1052.267377799999,1053.6194486000004,j,0,1.3494203999998717,None,left,15,"[20, 19, 20, 15]",4,gaze_L_15.png,j,0,2,results27,001,2026-04-20_12h15.58.690,mogelijke versie adaptive staircase builder,,2026.1.3,60.015183840975354,2026-04-20 12h15.59.024946 +0200,
12.5,ecc0,mid,11,0,11,f,1,2.5109517999990203,None,0,1,1,1,11,0,11,0,1053.7137236999988,,,,,,,,,,,,,,,1053.7027371999993,1053.7137236999988,1054.6188564000004,1053.7137236999988,1053.7137236999988,1056.2360295999988,f,1,2.5109517999990203,None,left,16,"[20, 19, 20, 15, 16]",5,gaze_L_16.png,f,1,2,results27,001,2026-04-20_12h15.58.690,mogelijke versie adaptive staircase builder,,2026.1.3,60.015183840975354,2026-04-20 12h15.59.024946 +0200,
12.5,ecc0,mid,12,0,12,j,1,3.6234334999990097,None,0,1,1,1,12,0,12,0,1056.3293771999997,,,,,,,,,,,,,,,1056.3175570000003,1056.3293771999997,1057.2359249,1056.3293771999997,1056.3293771999997,1059.9691719000002,j,1,3.6234334999990097,None,direct,15,"[20, 19, 20, 15, 16]",5,direct_gaze.png,j,1,2,results27,001,2026-04-20_12h15.58.690,mogelijke versie adaptive staircase builder,,2026.1.3,60.015183840975354,2026-04-20 12h15.59.024946 +0200,
12.5,ecc0,mid,13,0,13,f,1,1.4018482999999833,None,0,1,1,1,13,0,13,0,1060.4388325,,,,,,,,,,,,,,,1060.4283682999994,1060.4388325,1060.9687787000003,1060.4388325,1060.4388325,1061.8527758,f,1,1.4018482999999833,None,left,14,"[20, 19, 20, 15, 16]",5,gaze_L_14.png,f,1,2,results27,001,2026-04-20_12h15.58.690,mogelijke versie adaptive staircase builder,,2026.1.3,60.015183840975354,2026-04-20 12h15.59.024946 +0200,
12.5,ecc0,mid,14,0,14,f,0,1.425221600000441,None,0,1,1,1,14,0,14,0,1061.9435338999992,,,,,,,,,,,,,,,1061.932625899999,1061.9435338999992,1062.8521043,1061.9435338999992,1061.9435338999992,1063.3693009999988,f,0,1.425221600000441,None,direct,13,"[20, 19, 20, 15, 16, 13]",6,direct_gaze.png,f,0,2,results27,001,2026-04-20_12h15.58.690,mogelijke versie adaptive staircase builder,,2026.1.3,60.015183840975354,2026-04-20 12h15.59.024946 +0200,
12.5,ecc0,mid,15,0,15,f,0,1.7700051000010717,None,0,1,1,1,15,0,15,0,1063.4627631999992,,,,,,,,,,,,,,,1063.4516757000001,1063.4627631999992,1064.3687019999998,1063.4627631999992,1063.4627631999992,1065.236012199999,f,0,1.7700051000010717,None,direct,14,"[20, 19, 20, 15, 16, 13]",6,direct_gaze.png,f,0,2,results27,001,2026-04-20_12h15.58.690,mogelijke versie adaptive staircase builder,,2026.1.3,60.015183840975354,2026-04-20 12h15.59.024946 +0200,
12.5,ecc0,mid,16,0,16,j,1,2.28896800000075,None,0,1,1,1,16,0,16,0,1065.3277400999996,,,,,,,,,,,,,,,1065.317126,1065.3277400999996,1066.2354610000002,1065.3277400999996,1065.3277400999996,1067.6192437999998,j,1,2.28896800000075,None,direct,15,"[20, 19, 20, 15, 16, 13, 15]",7,direct_gaze.png,j,1,2,results27,001,2026-04-20_12h15.58.690,mogelijke versie adaptive staircase builder,,2026.1.3,60.015183840975354,2026-04-20 12h15.59.024946 +0200,
12.5,ecc0,mid,17,0,17,j,1,1.3835540000000037,None,0,1,1,1,17,0,17,0,1067.7130744999995,,,,,,,,,,,,,,,1067.7020660999988,1067.7130744999995,1068.6187496000002,1067.7130744999995,1067.7130744999995,1069.1025477999992,j,1,1.3835540000000037,None,direct,14,"[20, 19, 20, 15, 16, 13, 15]",7,direct_gaze.png,j,1,2,results27,001,2026-04-20_12h15.58.690,mogelijke versie adaptive staircase builder,,2026.1.3,60.015183840975354,2026-04-20 12h15.59.024946 +0200,
12.5,ecc0,mid,18,0,18,j,0,1.327701000000161,None,0,1,1,1,18,0,18,0,1069.305024899999,,,,,,,,,,,,,,,1069.2944933999988,1069.305024899999,1070.1020064000004,1069.305024899999,1069.305024899999,1070.6356844000002,j,0,1.327701000000161,None,right,13,"[20, 19, 20, 15, 16, 13, 15, 13]",8,gaze_R_13.png,j,0,2,results27,001,2026-04-20_12h15.58.690,mogelijke versie adaptive staircase builder,,2026.1.3,60.015183840975354,2026-04-20 12h15.59.024946 +0200,
12.5,ecc0,mid,19,0,19,j,0,1.3466693999998824,None,0,1,1,1,19,0,19,0,1070.7420568999987,,,,,,,,,,,,,,,1070.7306857999993,1070.7420568999987,1071.6353292999993,1070.7420568999987,1070.7420568999987,1072.1025403000003,j,0,1.3466693999998824,None,right,14,"[20, 19, 20, 15, 16, 13, 15, 13]",8,gaze_R_14.png,j,0,2,results27,001,2026-04-20_12h15.58.690,mogelijke versie adaptive staircase builder,,2026.1.3,60.015183840975354,2026-04-20 12h15.59.024946 +0200,
12.5,ecc0,mid,20,0,20,j,1,1.22813750000023,None,0,1,1,1,20,0,20,0,1072.1965311999993,,,,,,,,,,,,,,,1072.1852278999995,1072.1965311999993,1073.1020461999997,1072.1965311999993,1072.1965311999993,1073.436117199999,j,1,1.22813750000023,None,direct,15,"[20, 19, 20, 15, 16, 13, 15, 13, 15]",9,direct_gaze.png,j,1,2,results27,001,2026-04-20_12h15.58.690,mogelijke versie adaptive staircase builder,,2026.1.3,60.015183840975354,2026-04-20 12h15.59.024946 +0200,
12.5,ecc0,mid,21,0,21,f,1,1.610308500001338,None,0,1,1,1,21,0,21,0,1073.5343730000004,,,,,,,,,,,,,,,1073.5240393000004,1073.5343730000004,1074.451939999999,1073.5343730000004,1073.5343730000004,1075.1521823999992,f,1,1.610308500001338,None,left,14,"[20, 19, 20, 15, 16, 13, 15, 13, 15]",9,gaze_L_14.png,f,1,2,results27,001,2026-04-20_12h15.58.690,mogelijke versie adaptive staircase builder,,2026.1.3,60.015183840975354,2026-04-20 12h15.59.024946 +0200,
12.5,ecc0,mid,22,0,22,f,0,1.4999714999994467,None,0,1,1,1,22,0,22,0,1075.2447014999998,,,,,,,,,,,,,,,1075.2332494000002,1075.2447014999998,1076.1517683000002,1075.2447014999998,1075.2447014999998,1076.7521734000002,f,0,1.4999714999994467,None,direct,13,"[20, 19, 20, 15, 16, 13, 15, 13, 15, 13]",10,direct_gaze.png,f,0,2,results27,001,2026-04-20_12h15.58.690,mogelijke versie adaptive staircase builder,,2026.1.3,60.015183840975354,2026-04-20 12h15.59.024946 +0200,
12.5,ecc0,mid,23,0,23,f,1,1.6455427999990206,None,0,1,1,1,23,0,23,0,1076.8431289,,,,,,,,,,,,,,,1076.8320380999994,1076.8431289,1077.7517905999994,1076.8431289,1076.8431289,1078.502154599999,f,1,1.6455427999990206,None,right,14,"[20, 19, 20, 15, 16, 13, 15, 13, 15, 13, 14]",11,gaze_R_14.png,f,1,2,results27,001,2026-04-20_12h15.58.690,mogelijke versie adaptive staircase builder,,2026.1.3,60.015183840975354,2026-04-20 12h15.59.024946 +0200,
12.5,ecc0,mid,24,0,24,j,0,2.335690699999759,None,0,1,1,1,24,0,24,0,1078.7690526999995,,,,,,,,,,,,,,,1078.7586018999991,1078.7690526999995,1079.5017998999992,1078.7690526999995,1078.7690526999995,1081.1188220000004,j,0,2.335690699999759,None,left,13,"[20, 19, 20, 15, 16, 13, 15, 13, 15, 13, 14, 13]",12,gaze_L_13.png,j,0,2,results27,001,2026-04-20_12h15.58.690,mogelijke versie adaptive staircase builder,,2026.1.3,60.015183840975354,2026-04-20 12h15.59.024946 +0200,
12.5,ecc0,mid,25,0,25,f,1,2.532081899998957,None,0,1,1,1,25,0,25,0,1081.2126019999996,,,,,,,,,,,,,,,1081.2007302999991,1081.2126019999996,1082.1187298999994,1081.2126019999996,1081.2126019999996,1083.7522066000001,f,1,2.532081899998957,None,left,14,"[20, 19, 20, 15, 16, 13, 15, 13, 15, 13, 14, 13, 14]",13,gaze_L_14.png,f,1,2,results27,001,2026-04-20_12h15.58.690,mogelijke versie adaptive staircase builder,,2026.1.3,60.015183840975354,2026-04-20 12h15.59.024946 +0200,
12.5,ecc0,mid,26,0,26,f,1,1.2835463999999774,None,0,1,1,1,26,0,26,0,1083.8451511999992,,,,,,,,,,,,,,,1083.8346464999995,1083.8451511999992,1084.7518968999993,1083.8451511999992,1083.8451511999992,1085.1356514,f,1,1.2835463999999774,None,right,13,"[20, 19, 20, 15, 16, 13, 15, 13, 15, 13, 14, 13, 14]",13,gaze_R_13.png,f,1,2,results27,001,2026-04-20_12h15.58.690,mogelijke versie adaptive staircase builder,,2026.1.3,60.015183840975354,2026-04-20 12h15.59.024946 +0200,
12.5,ecc0,mid,27,0,27,f,1,1.2128774000011617,None,0,1,1,1,27,0,27,0,1085.3477927000004,,,,,,,,,,,,,,,1085.3343179999993,1085.3477927000004,1086.1351531,1085.3477927000004,1085.3477927000004,1086.5687008000004,f,1,1.2128774000011617,None,left,12,"[20, 19, 20, 15, 16, 13, 15, 13, 15, 13, 14, 13, 14]",13,gaze_L_12.png,f,1,2,results27,001,2026-04-20_12h15.58.690,mogelijke versie adaptive staircase builder,,2026.1.3,60.015183840975354,2026-04-20 12h15.59.024946 +0200,
12.5,ecc0,mid,28,0,28,j,0,1.215138499999739,None,0,1,1,1,28,0,28,0,1086.7858048999988,,,,,,,,,,,,,,,1086.7746306999998,1086.7858048999988,1087.5682770999992,1086.7858048999988,1086.7858048999988,1088.002582699999,j,0,1.215138499999739,None,right,11,"[20, 19, 20, 15, 16, 13, 15, 13, 15, 13, 14, 13, 14, 11]",14,gaze_R_11.png,j,0,2,results27,001,2026-04-20_12h15.58.690,mogelijke versie adaptive staircase builder,,2026.1.3,60.015183840975354,2026-04-20 12h15.59.024946 +0200,
12.5,ecc0,mid,29,0,29,j,1,1.994774499999039,None,0,1,1,1,29,0,29,0,1088.0940451999995,,,,,,,,,,,,,,,1088.0838509999994,1088.0940451999995,1089.0183774999987,1088.0940451999995,1088.0940451999995,1090.1021206999994,j,1,1.994774499999039,None,direct,12,"[20, 19, 20, 15, 16, 13, 15, 13, 15, 13, 14, 13, 14, 11, 12]",15,direct_gaze.png,j,1,2,results27,001,2026-04-20_12h15.58.690,mogelijke versie adaptive staircase builder,,2026.1.3,60.015183840975354,2026-04-20 12h15.59.024946 +0200,
12.5,ecc0,mid,30,0,30,j,0,1.5966799999987416,None,0,1,1,1,30,0,30,0,1090.3080341999994,,,,,,,,,,,,,,,1090.2966481000003,1090.3080341999994,1091.1016166999998,1090.3080341999994,1090.3080341999994,1091.9187872000002,j,0,1.5966799999987416,None,left,11,"[20, 19, 20, 15, 16, 13, 15, 13, 15, 13, 14, 13, 14, 11, 12, 11]",16,gaze_L_11.png,j,0,2,results27,001,2026-04-20_12h15.58.690,mogelijke versie adaptive staircase builder,,2026.1.3,60.015183840975354,2026-04-20 12h15.59.024946 +0200,
12.5,ecc0,mid,31,0,31,j,0,1.572041100000206,None,0,1,1,1,31,0,31,0,1092.012730299999,,,,,,,,,,,,,,,1092.0022816,1092.012730299999,1092.9184523000004,1092.012730299999,1092.012730299999,1093.5852467000004,j,0,1.572041100000206,None,left,12,"[20, 19, 20, 15, 16, 13, 15, 13, 15, 13, 14, 13, 14, 11, 12, 11]",16,gaze_L_12.png,j,0,2,results27,001,2026-04-20_12h15.58.690,mogelijke versie adaptive staircase builder,,2026.1.3,60.015183840975354,2026-04-20 12h15.59.024946 +0200,
12.5,ecc0,mid,32,0,32,f,1,1.8101303999992524,None,0,1,1,1,32,0,32,0,1093.6786408999997,,,,,,,,,,,,,,,1093.6677799999998,1093.6786408999997,1094.5849789000004,1093.6786408999997,1093.6786408999997,1095.5019128000004,f,1,1.8101303999992524,None,left,13,"[20, 19, 20, 15, 16, 13, 15, 13, 15, 13, 14, 13, 14, 11, 12, 11, 13]",17,gaze_L_13.png,f,1,2,results27,001,2026-04-20_12h15.58.690,mogelijke versie adaptive staircase builder,,2026.1.3,60.015183840975354,2026-04-20 12h15.59.024946 +0200,
12.5,ecc0,mid,33,0,33,f,0,1.2365456000006816,None,0,1,1,1,33,0,33,0,1095.5962909999998,,,,,,,,,,,,,,,1095.5853387999996,1095.5962909999998,1096.5017220999998,1095.5962909999998,1095.5962909999998,1096.8353349999998,f,0,1.2365456000006816,None,direct,12,"[20, 19, 20, 15, 16, 13, 15, 13, 15, 13, 14, 13, 14, 11, 12, 11, 13, 12]",18,direct_gaze.png,f,0,2,results27,001,2026-04-20_12h15.58.690,mogelijke versie adaptive staircase builder,,2026.1.3,60.015183840975354,2026-04-20 12h15.59.024946 +0200,
12.5,ecc0,mid,34,0,34,f,0,1.3433333000011771,None,0,1,1,1,34,0,34,0,1096.9293737999997,,,,,,,,,,,,,,,1096.9188858999987,1096.9293737999997,1097.8350013999989,1096.9293737999997,1096.9293737999997,1098.2854121,f,0,1.3433333000011771,None,direct,13,"[20, 19, 20, 15, 16, 13, 15, 13, 15, 13, 14, 13, 14, 11, 12, 11, 13, 12]",18,direct_gaze.png,f,0,2,results27,001,2026-04-20_12h15.58.690,mogelijke versie adaptive staircase builder,,2026.1.3,60.015183840975354,2026-04-20 12h15.59.024946 +0200,
12.5,ecc0,mid,35,0,35,j,0,1.2149966999986646,None,0,1,1,1,35,0,35,0,1098.3777312000002,,,,,,,,,,,,,,,1098.3669644000001,1098.3777312000002,1099.2849246999995,1098.3777312000002,1098.3777312000002,1099.6020646999987,j,0,1.2149966999986646,None,left,14,"[20, 19, 20, 15, 16, 13, 15, 13, 15, 13, 14, 13, 14, 11, 12, 11, 13, 12]",18,gaze_L_14.png,j,0,2,results27,001,2026-04-20_12h15.58.690,mogelijke versie adaptive staircase builder,,2026.1.3,60.015183840975354,2026-04-20 12h15.59.024946 +0200,
12.5,ecc0,mid,36,0,36,f,1,1.1686711000002106,None,0,1,1,1,36,0,36,0,1099.7040703000002,,,,,,,,,,,,,,,1099.6901282999988,1099.7040703000002,1100.6015150000003,1099.7040703000002,1099.7040703000002,1100.8852479999987,f,1,1.1686711000002106,None,right,15,"[20, 19, 20, 15, 16, 13, 15, 13, 15, 13, 14, 13, 14, 11, 12, 11, 13, 12, 15]",19,gaze_R_15.png,f,1,2,results27,001,2026-04-20_12h15.58.690,mogelijke versie adaptive staircase builder,,2026.1.3,60.015183840975354,2026-04-20 12h15.59.024946 +0200,
12.5,ecc0,mid,37,0,37,j,0,1.2141016999994463,None,0,1,1,1,37,0,37,0,1100.9787125000003,,,,,,,,,,,,,,,1100.9684355999998,1100.9787125000003,1101.8849905999996,1100.9787125000003,1100.9787125000003,1102.2020499999999,j,0,1.2141016999994463,None,left,14,"[20, 19, 20, 15, 16, 13, 15, 13, 15, 13, 14, 13, 14, 11, 12, 11, 13, 12, 15, 14]",20,gaze_L_14.png,j,0,2,results27,001,2026-04-20_12h15.58.690,mogelijke versie adaptive staircase builder,,2026.1.3,60.015183840975354,2026-04-20 12h15.59.024946 +0200,
12.5,ecc0,mid,38,0,38,f,1,1.2243031000016344,None,0,1,1,1,38,0,38,0,1102.2964928000001,,,,,,,,,,,,,,,1102.2853897999994,1102.2964928000001,1103.2015205999996,1102.2964928000001,1102.2964928000001,1103.5354257,f,1,1.2243031000016344,None,left,15,"[20, 19, 20, 15, 16, 13, 15, 13, 15, 13, 14, 13, 14, 11, 12, 11, 13, 12, 15, 14, 15]",21,gaze_L_15.png,f,1,2,results27,001,2026-04-20_12h15.58.690,mogelijke versie adaptive staircase builder,,2026.1.3,60.015183840975354,2026-04-20 12h15.59.024946 +0200,
12.5,ecc0,mid,39,0,39,f,1,1.2422623000002204,None,0,1,1,1,39,0,39,0,1103.630491,,,,,,,,,,,,,,,1103.6197023999994,1103.630491,1104.55148,1103.630491,1103.630491,1104.8853930999994,f,1,1.2422623000002204,None,right,14,"[20, 19, 20, 15, 16, 13, 15, 13, 15, 13, 14, 13, 14, 11, 12, 11, 13, 12, 15, 14, 15]",21,gaze_R_14.png,f,1,2,results27,001,2026-04-20_12h15.58.690,mogelijke versie adaptive staircase builder,,2026.1.3,60.015183840975354,2026-04-20 12h15.59.024946 +0200,
12.5,ecc0,mid,40,0,40,f,1,1.4060828000001493,None,0,1,1,1,40,0,40,0,1104.9789905999987,,,,,,,,,,,,,,,1104.9683389000002,1104.9789905999987,1105.8850313999992,1104.9789905999987,1104.9789905999987,1106.4020340999996,f,1,1.4060828000001493,None,left,13,"[20, 19, 20, 15, 16, 13, 15, 13, 15, 13, 14, 13, 14, 11, 12, 11, 13, 12, 15, 14, 15]",21,gaze_L_13.png,f,1,2,results27,001,2026-04-20_12h15.58.690,mogelijke versie adaptive staircase builder,,2026.1.3,60.015183840975354,2026-04-20 12h15.59.024946 +0200,
12.5,ecc0,mid,41,0,41,f,1,1.8410010999996302,None,0,1,1,1,41,0,41,0,1106.5118320000001,,,,,,,,,,,,,,,1106.5004289999997,1106.5118320000001,1107.4024204999987,1106.5118320000001,1106.5118320000001,1108.368651499999,f,1,1.8410010999996302,None,right,12,"[20, 19, 20, 15, 16, 13, 15, 13, 15, 13, 14, 13, 14, 11, 12, 11, 13, 12, 15, 14, 15]",21,gaze_R_12.png,f,1,2,results27,001,2026-04-20_12h15.58.690,mogelijke versie adaptive staircase builder,,2026.1.3,60.015183840975354,2026-04-20 12h15.59.024946 +0200,
12.5,ecc0,mid,42,0,42,f,0,1.8106095999992249,None,0,1,1,1,42,0,42,0,1108.4621642999991,,,,,,,,,,,,,,,1108.4509633999987,1108.4621642999991,1109.3681653999993,1108.4621642999991,1108.4621642999991,1110.2855777000004,f,0,1.8106095999992249,None,direct,11,"[20, 19, 20, 15, 16, 13, 15, 13, 15, 13, 14, 13, 14, 11, 12, 11, 13, 12, 15, 14, 15, 11]",22,direct_gaze.png,f,0,2,results27,001,2026-04-20_12h15.58.690,mogelijke versie adaptive staircase builder,,2026.1.3,60.015183840975354,2026-04-20 12h15.59.024946 +0200,
12.5,ecc0,mid,43,0,43,f,1,1.9887753000002704,None,0,1,1,1,43,0,43,0,1110.380022199999,,,,,,,,,,,,,,,1110.3688863999996,1110.380022199999,1111.2849530999993,1110.380022199999,1110.380022199999,1112.3854597999998,f,1,1.9887753000002704,None,right,12,"[20, 19, 20, 15, 16, 13, 15, 13, 15, 13, 14, 13, 14, 11, 12, 11, 13, 12, 15, 14, 15, 11, 12]",23,gaze_R_12.png,f,1,2,results27,001,2026-04-20_12h15.58.690,mogelijke versie adaptive staircase builder,,2026.1.3,60.015183840975354,2026-04-20 12h15.59.024946 +0200,
12.5,ecc0,mid,44,0,44,f,1,2.1262055000006512,None,0,1,1,1,44,0,44,0,1112.482645,,,,,,,,,,,,,,,1112.4712758999995,1112.482645,1113.3847850000002,1112.482645,1112.482645,1114.6186798999988,f,1,2.1262055000006512,None,left,11,"[20, 19, 20, 15, 16, 13, 15, 13, 15, 13, 14, 13, 14, 11, 12, 11, 13, 12, 15, 14, 15, 11, 12]",23,gaze_L_11.png,f,1,2,results27,001,2026-04-20_12h15.58.690,mogelijke versie adaptive staircase builder,,2026.1.3,60.015183840975354,2026-04-20 12h15.59.024946 +0200,
12.5,ecc0,mid,45,0,45,j,0,1.0566779999990104,None,0,1,1,1,45,0,45,0,1114.9200760999993,,,,,,,,,,,,,,,1114.9100911999994,1114.9200760999993,1115.6181834999988,1114.9200760999993,1114.9200760999993,1115.9851622999995,j,0,1.0566779999990104,None,left,10,"[20, 19, 20, 15, 16, 13, 15, 13, 15, 13, 14, 13, 14, 11, 12, 11, 13, 12, 15, 14, 15, 11, 12, 10]",24,gaze_L_10.png,j,0,2,results27,001,2026-04-20_12h15.58.690,mogelijke versie adaptive staircase builder,,2026.1.3,60.015183840975354,2026-04-20 12h15.59.024946 +0200,
12.5,ecc0,mid,46,0,46,j,0,1.2815640000007988,None,0,1,1,1,46,0,46,0,1116.0792301000001,,,,,,,,,,,,,,,1116.0685850999998,1116.0792301000001,1116.985112299999,1116.0792301000001,1116.0792301000001,1117.3686883999999,j,0,1.2815640000007988,None,right,11,"[20, 19, 20, 15, 16, 13, 15, 13, 15, 13, 14, 13, 14, 11, 12, 11, 13, 12, 15, 14, 15, 11, 12, 10]",24,gaze_R_11.png,j,0,2,results27,001,2026-04-20_12h15.58.690,mogelijke versie adaptive staircase builder,,2026.1.3,60.015183840975354,2026-04-20 12h15.59.024946 +0200,
12.5,ecc0,mid,47,0,47,j,1,1.2647280999990471,None,0,1,1,1,47,0,47,0,1117.46414,,,,,,,,,,,,,,,1117.4540961000002,1117.46414,1118.3689758,1117.46414,1117.46414,1118.7350268999999,j,1,1.2647280999990471,None,direct,12,"[20, 19, 20, 15, 16, 13, 15, 13, 15, 13, 14, 13, 14, 11, 12, 11, 13, 12, 15, 14, 15, 11, 12, 10, 12]",25,direct_gaze.png,j,1,2,results27,001,2026-04-20_12h15.58.690,mogelijke versie adaptive staircase builder,,2026.1.3,60.015183840975354,2026-04-20 12h15.59.024946 +0200,
12.5,ecc0,mid,48,0,48,j,0,1.3391897000001336,None,0,1,1,1,48,0,48,0,1118.8297162,,,,,,,,,,,,,,,1118.8189349000004,1118.8297162,1119.7346732999995,1118.8297162,1118.8297162,1120.185356599999,j,0,1.3391897000001336,None,left,11,"[20, 19, 20, 15, 16, 13, 15, 13, 15, 13, 14, 13, 14, 11, 12, 11, 13, 12, 15, 14, 15, 11, 12, 10, 12, 11]",26,gaze_L_11.png,j,0,2,results27,001,2026-04-20_12h15.58.690,mogelijke versie adaptive staircase builder,,2026.1.3,60.015183840975354,2026-04-20 12h15.59.024946 +0200,
12.5,ecc0,mid,49,0,49,j,1,1.2097818999991432,None,0,1,1,1,49,0,49,0,1120.279077199999,,,,,,,,,,,,,,,1120.2682707999993,1120.279077199999,1121.184651399999,1120.279077199999,1120.279077199999,1121.5020628000002,j,1,1.2097818999991432,None,direct,12,"[20, 19, 20, 15, 16, 13, 15, 13, 15, 13, 14, 13, 14, 11, 12, 11, 13, 12, 15, 14, 15, 11, 12, 10, 12, 11, 12]",27,direct_gaze.png,j,1,2,results27,001,2026-04-20_12h15.58.690,mogelijke versie adaptive staircase builder,,2026.1.3,60.015183840975354,2026-04-20 12h15.59.024946 +0200,
12.5,ecc0,mid,50,0,50,j,1,1.5655327000004036,None,0,1,1,1,50,0,50,0,1121.5952350999996,,,,,,,,,,,,,,,1121.5849065000002,1121.5952350999996,1122.5180209999999,1121.5952350999996,1121.5952350999996,1123.1684507999998,j,1,1.5655327000004036,None,direct,11,"[20, 19, 20, 15, 16, 13, 15, 13, 15, 13, 14, 13, 14, 11, 12, 11, 13, 12, 15, 14, 15, 11, 12, 10, 12, 11, 12]",27,direct_gaze.png,j,1,2,results27,001,2026-04-20_12h15.58.690,mogelijke versie adaptive staircase builder,,2026.1.3,60.015183840975354,2026-04-20 12h15.59.024946 +0200,
12.5,ecc0,mid,51,0,51,j,0,1.2971422000009625,None,0,1,1,1,51,0,51,0,1123.2636082999998,,,,,,,,,,,,,,,1123.2529894999989,1123.2636082999998,1124.1678844999988,1123.2636082999998,1123.2636082999998,1124.5682787999995,j,0,1.2971422000009625,None,left,10,"[20, 19, 20, 15, 16, 13, 15, 13, 15, 13, 14, 13, 14, 11, 12, 11, 13, 12, 15, 14, 15, 11, 12, 10, 12, 11, 12, 10]",28,gaze_L_10.png,j,0,2,results27,001,2026-04-20_12h15.58.690,mogelijke versie adaptive staircase builder,,2026.1.3,60.015183840975354,2026-04-20 12h15.59.024946 +0200,
12.5,ecc0,mid,52,0,52,j,0,1.2413156000002346,None,0,1,1,1,52,0,52,0,1124.6635483999999,,,,,,,,,,,,,,,1124.6519367,1124.6635483999999,1125.5678673000002,1124.6635483999999,1124.6635483999999,1125.9186855999997,j,0,1.2413156000002346,None,left,11,"[20, 19, 20, 15, 16, 13, 15, 13, 15, 13, 14, 13, 14, 11, 12, 11, 13, 12, 15, 14, 15, 11, 12, 10, 12, 11, 12, 10]",28,gaze_L_11.png,j,0,2,results27,001,2026-04-20_12h15.58.690,mogelijke versie adaptive staircase builder,,2026.1.3,60.015183840975354,2026-04-20 12h15.59.024946 +0200,
12.5,ecc0,mid,53,0,53,j,0,1.461164700000154,None,0,1,1,1,53,0,53,0,1126.0115556,,,,,,,,,,,,,,,1126.0013768999997,1126.0115556,1126.9186477000003,1126.0115556,1126.0115556,1127.484824199999,j,0,1.461164700000154,None,left,12,"[20, 19, 20, 15, 16, 13, 15, 13, 15, 13, 14, 13, 14, 11, 12, 11, 13, 12, 15, 14, 15, 11, 12, 10, 12, 11, 12, 10]",28,gaze_L_12.png,j,0,2,results27,001,2026-04-20_12h15.58.690,mogelijke versie adaptive staircase builder,,2026.1.3,60.015183840975354,2026-04-20 12h15.59.024946 +0200,
12.5,ecc0,mid,54,0,54,j,0,2.2847415000014735,None,0,1,1,1,54,0,54,0,1127.5800488000004,,,,,,,,,,,,,,,1127.5692406999988,1127.5800488000004,1128.4845029999997,1127.5800488000004,1127.5800488000004,1129.868614699999,j,0,2.2847415000014735,None,right,13,"[20, 19, 20, 15, 16, 13, 15, 13, 15, 13, 14, 13, 14, 11, 12, 11, 13, 12, 15, 14, 15, 11, 12, 10, 12, 11, 12, 10]",28,gaze_R_13.png,j,0,2,results27,001,2026-04-20_12h15.58.690,mogelijke versie adaptive staircase builder,,2026.1.3,60.015183840975354,2026-04-20 12h15.59.024946 +0200,
12.5,ecc0,mid,55,0,55,f,0,1.9714641999999003,None,0,1,1,1,55,0,55,0,1129.9652621999994,,,,,,,,,,,,,,,1129.9547628,1129.9652621999994,1130.8843591000004,1129.9652621999994,1129.9652621999994,1131.951468199999,f,0,1.9714641999999003,None,direct,14,"[20, 19, 20, 15, 16, 13, 15, 13, 15, 13, 14, 13, 14, 11, 12, 11, 13, 12, 15, 14, 15, 11, 12, 10, 12, 11, 12, 10]",28,direct_gaze.png,f,0,2,results27,001,2026-04-20_12h15.58.690,mogelijke versie adaptive staircase builder,,2026.1.3,60.015183840975354,2026-04-20 12h15.59.024946 +0200,
12.5,ecc0,mid,56,0,56,j,1,1.670684099999562,None,0,1,1,1,56,0,56,0,1132.0419662999993,,,,,,,,,,,,,,,1132.0311227000002,1132.0419662999993,1132.9512259000003,1132.0419662999993,1132.0419662999993,1133.7181619000003,j,1,1.670684099999562,None,direct,15,"[20, 19, 20, 15, 16, 13, 15, 13, 15, 13, 14, 13, 14, 11, 12, 11, 13, 12, 15, 14, 15, 11, 12, 10, 12, 11, 12, 10, 15]",29,direct_gaze.png,j,1,2,results27,001,2026-04-20_12h15.58.690,mogelijke versie adaptive staircase builder,,2026.1.3,60.015183840975354,2026-04-20 12h15.59.024946 +0200,
12.5,ecc0,mid,57,0,57,f,0,1.4282709999988583,None,0,1,1,1,57,0,57,0,1133.8124123999987,,,,,,,,,,,,,,,1133.8014509999994,1133.8124123999987,1134.7177737999991,1133.8124123999987,1133.8124123999987,1135.2524178999993,f,0,1.4282709999988583,None,direct,14,"[20, 19, 20, 15, 16, 13, 15, 13, 15, 13, 14, 13, 14, 11, 12, 11, 13, 12, 15, 14, 15, 11, 12, 10, 12, 11, 12, 10, 15, 14]",30,direct_gaze.png,f,0,2,results27,001,2026-04-20_12h15.58.690,mogelijke versie adaptive staircase builder,,2026.1.3,60.015183840975354,2026-04-20 12h15.59.024946 +0200,
12.5,ecc0,mid,58,0,58,f,1,1.551695699999982,None,0,1,1,1,58,0,58,0,1135.3450687999994,,,,,,,,,,,,,,,1135.3338249999997,1135.3450687999994,1136.2677535000003,1135.3450687999994,1135.3450687999994,1136.9015053999992,f,1,1.551695699999982,None,right,15,"[20, 19, 20, 15, 16, 13, 15, 13, 15, 13, 14, 13, 14, 11, 12, 11, 13, 12, 15, 14, 15, 11, 12, 10, 12, 11, 12, 10, 15, 14, 15]",31,gaze_R_15.png,f,1,2,results27,001,2026-04-20_12h15.58.690,mogelijke versie adaptive staircase builder,,2026.1.3,60.015183840975354,2026-04-20 12h15.59.024946 +0200,
12.5,ecc0,mid,59,0,59,f,0,1.6151257999990776,None,0,1,1,1,59,0,59,0,1136.9935618,,,,,,,,,,,,,,,1136.9829172999998,1136.9935618,1137.9010684000004,1136.9935618,1136.9935618,1138.6182804,f,0,1.6151257999990776,None,direct,14,"[20, 19, 20, 15, 16, 13, 15, 13, 15, 13, 14, 13, 14, 11, 12, 11, 13, 12, 15, 14, 15, 11, 12, 10, 12, 11, 12, 10, 15, 14, 15, 14]",32,direct_gaze.png,f,0,2,results27,001,2026-04-20_12h15.58.690,mogelijke versie adaptive staircase builder,,2026.1.3,60.015183840975354,2026-04-20 12h15.59.024946 +0200,
12.5,ecc0,mid,1,1,0,,,,,0,1,1,1,,,,,,,,,,,,,,,,,,,,,,,,,,,,,,,,,,,,,,results27,001,2026-04-20_12h15.58.690,mogelijke versie adaptive staircase builder,,2026.1.3,60.015183840975354,2026-04-20 12h15.59.024946 +0200,
20.5,ecc10neg,right,0,0,0,f,0,1.9031851999989158,None,0,2,2,2,0,0,0,0,1138.7137435000004,,,,,,,,,,,,,1138.6209428000002,1138.6209806999996,1138.7022149999993,1138.7137435000004,1138.7137435000004,1139.6343663999996,1138.7137435000004,1140.6181419999994,f,0,1.9031851999989158,None,direct,20,[],0,shifteddirectgaze.png,f,0,3,results27,001,2026-04-20_12h15.58.690,mogelijke versie adaptive staircase builder,,2026.1.3,60.015183840975354,2026-04-20 12h15.59.024946 +0200,
20.5,ecc10neg,right,1,0,1,f,0,1.5073630000006233,None,0,2,2,2,1,0,1,0,1140.7094471,,,,,,,,,,,,,,,1140.6991503999998,1140.7094471,1140.7094471,1141.6177616000004,1140.7094471,1142.2182371,f,0,1.5073630000006233,None,direct,20,[],0,shifteddirectgaze.png,f,0,3,results27,001,2026-04-20_12h15.58.690,mogelijke versie adaptive staircase builder,,2026.1.3,60.015183840975354,2026-04-20 12h15.59.024946 +0200,
20.5,ecc10neg,right,2,0,2,j,0,1.3556031999996776,None,0,2,2,2,2,0,2,0,1142.3171693000004,,,,,,,,,,,,,,,1142.3062668999992,1142.3171693000004,1142.3171693000004,1143.2177216,1142.3171693000004,1143.6846547999994,j,0,1.3556031999996776,None,left,20,[],0,shiftedgaze_L_20.png,j,0,3,results27,001,2026-04-20_12h15.58.690,mogelijke versie adaptive staircase builder,,2026.1.3,60.015183840975354,2026-04-20 12h15.59.024946 +0200,
20.5,ecc10neg,right,3,0,3,j,0,2.3687418999998044,None,0,2,2,2,3,0,3,0,1143.7760445000004,,,,,,,,,,,,,,,1143.7652117999987,1143.7760445000004,1143.7760445000004,1144.6845132999988,1143.7760445000004,1146.1514972999994,j,0,2.3687418999998044,None,left,20,[],0,shiftedgaze_L_20.png,j,0,3,results27,001,2026-04-20_12h15.58.690,mogelijke versie adaptive staircase builder,,2026.1.3,60.015183840975354,2026-04-20 12h15.59.024946 +0200,
20.5,ecc10neg,right,4,0,4,j,1,1.4185603999994782,None,0,2,2,2,4,0,4,0,1146.2461399999993,,,,,,,,,,,,,,,1146.2352193999996,1146.2461399999993,1146.2461399999993,1147.1512468,1146.2461399999993,1147.6679664000003,j,1,1.4185603999994782,None,direct,20,[20],1,shifteddirectgaze.png,j,1,3,results27,001,2026-04-20_12h15.58.690,mogelijke versie adaptive staircase builder,,2026.1.3,60.015183840975354,2026-04-20 12h15.59.024946 +0200,
20.5,ecc10neg,right,5,0,5,j,1,1.390305900000385,None,0,2,2,2,5,0,5,0,1147.7624417999996,,,,,,,,,,,,,,,1147.7514195999993,1147.7624417999996,1147.7624417999996,1148.6675698999989,1147.7624417999996,1149.1679616000001,j,1,1.390305900000385,None,direct,19,[20],1,shifteddirectgaze.png,j,1,3,results27,001,2026-04-20_12h15.58.690,mogelijke versie adaptive staircase builder,,2026.1.3,60.015183840975354,2026-04-20 12h15.59.024946 +0200,
20.5,ecc10neg,right,6,0,6,f,1,1.6551306000001205,None,0,2,2,2,6,0,6,0,1149.2976657,,,,,,,,,,,,,,,1149.2855147999999,1149.2976657,1149.2976657,1150.1676306999998,1149.2976657,1150.9679942999992,f,1,1.6551306000001205,None,right,18,[20],1,shiftedgaze_R_18.png,f,1,3,results27,001,2026-04-20_12h15.58.690,mogelijke versie adaptive staircase builder,,2026.1.3,60.015183840975354,2026-04-20 12h15.59.024946 +0200,
20.5,ecc10neg,right,7,0,7,j,0,1.3820637000007991,None,0,2,2,2,7,0,7,0,1151.074647899999,,,,,,,,,,,,,,,1151.064034699999,1151.074647899999,1151.074647899999,1151.9676779000001,1151.074647899999,1152.4679239999987,j,0,1.3820637000007991,None,right,17,"[20, 17]",2,shiftedgaze_R_17.png,j,0,3,results27,001,2026-04-20_12h15.58.690,mogelijke versie adaptive staircase builder,,2026.1.3,60.015183840975354,2026-04-20 12h15.59.024946 +0200,
20.5,ecc10neg,right,8,0,8,j,1,1.7094056999994791,None,0,2,2,2,8,0,8,0,1152.5793491999993,,,,,,,,,,,,,,,1152.5682058999992,1152.5793491999993,1152.5793491999993,1153.4678024000004,1152.5793491999993,1154.3013766999993,j,1,1.7094056999994791,None,direct,18,"[20, 17, 18]",3,shifteddirectgaze.png,j,1,3,results27,001,2026-04-20_12h15.58.690,mogelijke versie adaptive staircase builder,,2026.1.3,60.015183840975354,2026-04-20 12h15.59.024946 +0200,
20.5,ecc10neg,right,9,0,9,j,0,1.2246138000009523,None,0,2,2,2,9,0,9,0,1154.4006778000003,,,,,,,,,,,,,,,1154.3900936999999,1154.4006778000003,1154.4006778000003,1155.300928999999,1154.4006778000003,1155.6346326999992,j,0,1.2246138000009523,None,left,17,"[20, 17, 18, 17]",4,shiftedgaze_L_17.png,j,0,3,results27,001,2026-04-20_12h15.58.690,mogelijke versie adaptive staircase builder,,2026.1.3,60.015183840975354,2026-04-20 12h15.59.024946 +0200,
20.5,ecc10neg,right,10,0,10,j,0,1.4571861000003992,None,0,2,2,2,10,0,10,0,1155.7356350999999,,,,,,,,,,,,,,,1155.7246613999996,1155.7356350999999,1155.7356350999999,1156.6350160999991,1155.7356350999999,1157.2014493999995,j,0,1.4571861000003992,None,left,18,"[20, 17, 18, 17]",4,shiftedgaze_L_18.png,j,0,3,results27,001,2026-04-20_12h15.58.690,mogelijke versie adaptive staircase builder,,2026.1.3,60.015183840975354,2026-04-20 12h15.59.024946 +0200,
20.5,ecc10neg,right,11,0,11,j,1,2.391965800001344,None,0,2,2,2,11,0,11,0,1157.296832099999,,,,,,,,,,,,,,,1157.2856085999993,1157.296832099999,1157.296832099999,1158.2008996000004,1157.296832099999,1159.7011669000003,j,1,2.391965800001344,None,direct,19,"[20, 17, 18, 17, 19]",5,shifteddirectgaze.png,j,1,3,results27,001,2026-04-20_12h15.58.690,mogelijke versie adaptive staircase builder,,2026.1.3,60.015183840975354,2026-04-20 12h15.59.024946 +0200,
20.5,ecc10neg,right,12,0,12,j,0,1.312867999999071,None,0,2,2,2,12,0,12,0,1159.7918317000003,,,,,,,,,,,,,,,1159.7810303999995,1159.7918317000003,1159.7918317000003,1160.7009010000002,1159.7918317000003,1161.1178483999993,j,0,1.312867999999071,None,left,18,"[20, 17, 18, 17, 19, 18]",6,shiftedgaze_L_18.png,j,0,3,results27,001,2026-04-20_12h15.58.690,mogelijke versie adaptive staircase builder,,2026.1.3,60.015183840975354,2026-04-20 12h15.59.024946 +0200,
20.5,ecc10neg,right,13,0,13,j,1,1.159080699999322,None,0,2,2,2,13,0,13,0,1161.2097945999994,,,,,,,,,,,,,,,1161.1987463999994,1161.2097945999994,1161.2097945999994,1162.1175378999997,1161.2097945999994,1162.384470699999,j,1,1.159080699999322,None,direct,19,"[20, 17, 18, 17, 19, 18, 19]",7,shifteddirectgaze.png,j,1,3,results27,001,2026-04-20_12h15.58.690,mogelijke versie adaptive staircase builder,,2026.1.3,60.015183840975354,2026-04-20 12h15.59.024946 +0200,
20.5,ecc10neg,right,14,0,14,j,0,1.1761392000007618,None,0,2,2,2,14,0,14,0,1162.5047741999988,,,,,,,,,,,,,,,1162.4934721999998,1162.5047741999988,1162.5047741999988,1163.3845580999987,1162.5047741999988,1163.6844093,j,0,1.1761392000007618,None,right,18,"[20, 17, 18, 17, 19, 18, 19, 18]",8,shiftedgaze_R_18.png,j,0,3,results27,001,2026-04-20_12h15.58.690,mogelijke versie adaptive staircase builder,,2026.1.3,60.015183840975354,2026-04-20 12h15.59.024946 +0200,
20.5,ecc10neg,right,15,0,15,j,0,1.5776826000001165,None,0,2,2,2,15,0,15,0,1163.7830342999987,,,,,,,,,,,,,,,1163.7718554000003,1163.7830342999987,1163.7830342999987,1164.6840937999987,1163.7830342999987,1165.3676880000003,j,0,1.5776826000001165,None,right,19,"[20, 17, 18, 17, 19, 18, 19, 18]",8,shiftedgaze_R_19.png,j,0,3,results27,001,2026-04-20_12h15.58.690,mogelijke versie adaptive staircase builder,,2026.1.3,60.015183840975354,2026-04-20 12h15.59.024946 +0200,
20.5,ecc10neg,right,16,0,16,j,1,1.2575661999999284,None,0,2,2,2,16,0,16,0,1165.4791332999994,,,,,,,,,,,,,,,1165.467745,1165.4791332999994,1165.4791332999994,1166.3674264,1165.4791332999994,1166.751081299999,j,1,1.2575661999999284,None,direct,20,"[20, 17, 18, 17, 19, 18, 19, 18, 20]",9,shifteddirectgaze.png,j,1,3,results27,001,2026-04-20_12h15.58.690,mogelijke versie adaptive staircase builder,,2026.1.3,60.015183840975354,2026-04-20 12h15.59.024946 +0200,
20.5,ecc10neg,right,17,0,17,j,1,1.1977451000002475,None,0,2,2,2,17,0,17,0,1166.8434918999992,,,,,,,,,,,,,,,1166.8330472999987,1166.8434918999992,1166.8434918999992,1167.7514341999995,1166.8434918999992,1168.0511729999998,j,1,1.1977451000002475,None,direct,19,"[20, 17, 18, 17, 19, 18, 19, 18, 20]",9,shifteddirectgaze.png,j,1,3,results27,001,2026-04-20_12h15.58.690,mogelijke versie adaptive staircase builder,,2026.1.3,60.015183840975354,2026-04-20 12h15.59.024946 +0200,
20.5,ecc10neg,right,18,0,18,j,0,1.2560588999986066,None,0,2,2,2,18,0,18,0,1168.1449155999999,,,,,,,,,,,,,,,1168.1338505000003,1168.1449155999999,1168.1449155999999,1169.0509650000004,1168.1449155999999,1169.4012485999992,j,0,1.2560588999986066,None,left,18,"[20, 17, 18, 17, 19, 18, 19, 18, 20, 18]",10,shiftedgaze_L_18.png,j,0,3,results27,001,2026-04-20_12h15.58.690,mogelijke versie adaptive staircase builder,,2026.1.3,60.015183840975354,2026-04-20 12h15.59.024946 +0200,
20.5,ecc10neg,right,19,0,19,j,1,1.8005121999995026,None,0,2,2,2,19,0,19,0,1169.4962047999998,,,,,,,,,,,,,,,1169.4852601000002,1169.4962047999998,1169.4962047999998,1170.4006840000002,1169.4962047999998,1171.3009586999997,j,1,1.8005121999995026,None,direct,19,"[20, 17, 18, 17, 19, 18, 19, 18, 20, 18, 19]",11,shifteddirectgaze.png,j,1,3,results27,001,2026-04-20_12h15.58.690,mogelijke versie adaptive staircase builder,,2026.1.3,60.015183840975354,2026-04-20 12h15.59.024946 +0200,
20.5,ecc10neg,right,20,0,20,f,1,2.0542914000016026,None,0,2,2,2,20,0,20,0,1171.3944949999986,,,,,,,,,,,,,,,1171.3837390999997,1171.3944949999986,1171.3944949999986,1172.3007375999987,1171.3944949999986,1173.4511395999998,f,1,2.0542914000016026,None,left,18,"[20, 17, 18, 17, 19, 18, 19, 18, 20, 18, 19]",11,shiftedgaze_L_18.png,f,1,3,results27,001,2026-04-20_12h15.58.690,mogelijke versie adaptive staircase builder,,2026.1.3,60.015183840975354,2026-04-20 12h15.59.024946 +0200,
20.5,ecc10neg,right,21,0,21,f,1,1.868564600001264,None,0,2,2,2,21,0,21,0,1173.5883914999995,,,,,,,,,,,,,,,1173.5763339999994,1173.5883914999995,1173.5883914999995,1174.4507166000003,1173.5883914999995,1175.4681364999997,f,1,1.868564600001264,None,right,17,"[20, 17, 18, 17, 19, 18, 19, 18, 20, 18, 19]",11,shiftedgaze_R_17.png,f,1,3,results27,001,2026-04-20_12h15.58.690,mogelijke versie adaptive staircase builder,,2026.1.3,60.015183840975354,2026-04-20 12h15.59.024946 +0200,
20.5,ecc10neg,right,22,0,22,j,0,2.477722099998573,None,0,2,2,2,22,0,22,0,1175.603002599999,,,,,,,,,,,,,,,1175.5900949999996,1175.603002599999,1175.603002599999,1176.4839589999992,1175.603002599999,1178.0844822999989,j,0,2.477722099998573,None,left,16,"[20, 17, 18, 17, 19, 18, 19, 18, 20, 18, 19, 16]",12,shiftedgaze_L_16.png,j,0,3,results27,001,2026-04-20_12h15.58.690,mogelijke versie adaptive staircase builder,,2026.1.3,60.015183840975354,2026-04-20 12h15.59.024946 +0200,
20.5,ecc10neg,right,23,0,23,f,1,1.5771987999996782,None,0,2,2,2,23,0,23,0,1178.2238971999996,,,,,,,,,,,,,,,1178.2109808999994,1178.2238971999996,1178.2238971999996,1179.083976599999,1178.2238971999996,1179.8177839,f,1,1.5771987999996782,None,right,17,"[20, 17, 18, 17, 19, 18, 19, 18, 20, 18, 19, 16, 17]",13,shiftedgaze_R_17.png,f,1,3,results27,001,2026-04-20_12h15.58.690,mogelijke versie adaptive staircase builder,,2026.1.3,60.015183840975354,2026-04-20 12h15.59.024946 +0200,
20.5,ecc10neg,right,24,0,24,j,1,3.652164700000867,None,0,2,2,2,24,0,24,0,1179.9489617,,,,,,,,,,,,,,,1179.937204599999,1179.9489617,1179.9489617,1180.8173217000003,1179.9489617,1183.6177465,j,1,3.652164700000867,None,direct,16,"[20, 17, 18, 17, 19, 18, 19, 18, 20, 18, 19, 16, 17]",13,shifteddirectgaze.png,j,1,3,results27,001,2026-04-20_12h15.58.690,mogelijke versie adaptive staircase builder,,2026.1.3,60.015183840975354,2026-04-20 12h15.59.024946 +0200,
20.5,ecc10neg,right,25,0,25,f,1,1.7300488999990193,None,0,2,2,2,25,0,25,0,1183.7266982,,,,,,,,,,,,,,,1183.7139324,1183.7266982,1183.7266982,1184.6173602,1183.7266982,1185.4682837,f,1,1.7300488999990193,None,right,15,"[20, 17, 18, 17, 19, 18, 19, 18, 20, 18, 19, 16, 17]",13,shiftedgaze_R_15.png,f,1,3,results27,001,2026-04-20_12h15.58.690,mogelijke versie adaptive staircase builder,,2026.1.3,60.015183840975354,2026-04-20 12h15.59.024946 +0200,
20.5,ecc10neg,right,26,0,26,f,1,2.085144799999398,None,0,2,2,2,26,0,26,0,1185.5796045999996,,,,,,,,,,,,,,,1185.566116599999,1185.5796045999996,1185.5796045999996,1186.4838929999987,1185.5796045999996,1187.6677082999995,f,1,2.085144799999398,None,right,14,"[20, 17, 18, 17, 19, 18, 19, 18, 20, 18, 19, 16, 17]",13,shiftedgaze_R_14.png,f,1,3,results27,001,2026-04-20_12h15.58.690,mogelijke versie adaptive staircase builder,,2026.1.3,60.015183840975354,2026-04-20 12h15.59.024946 +0200,
20.5,ecc10neg,right,27,0,27,j,0,1.1964610000013636,None,0,2,2,2,27,0,27,0,1187.7882769999997,,,,,,,,,,,,,,,1187.7765499999987,1187.7882769999997,1187.7882769999997,1188.6671922999994,1187.7882769999997,1189.0013897999997,j,0,1.1964610000013636,None,left,13,"[20, 17, 18, 17, 19, 18, 19, 18, 20, 18, 19, 16, 17, 13]",14,shiftedgaze_L_13.png,j,0,3,results27,001,2026-04-20_12h15.58.690,mogelijke versie adaptive staircase builder,,2026.1.3,60.015183840975354,2026-04-20 12h15.59.024946 +0200,
20.5,ecc10neg,right,28,0,28,f,0,1.232022700000016,None,0,2,2,2,28,0,28,0,1189.1127001000004,,,,,,,,,,,,,,,1189.0994935999988,1189.1127001000004,1189.1127001000004,1190.0171785000002,1189.1127001000004,1190.3510870999999,f,0,1.232022700000016,None,direct,14,"[20, 17, 18, 17, 19, 18, 19, 18, 20, 18, 19, 16, 17, 13]",14,shifteddirectgaze.png,f,0,3,results27,001,2026-04-20_12h15.58.690,mogelijke versie adaptive staircase builder,,2026.1.3,60.015183840975354,2026-04-20 12h15.59.024946 +0200,
20.5,ecc10neg,right,29,0,29,j,0,1.2178289999992558,None,0,2,2,2,29,0,29,0,1190.4629084999997,,,,,,,,,,,,,,,1190.4522741,1190.4629084999997,1190.4629084999997,1191.350717899999,1190.4629084999997,1191.6842713999995,j,0,1.2178289999992558,None,left,15,"[20, 17, 18, 17, 19, 18, 19, 18, 20, 18, 19, 16, 17, 13]",14,shiftedgaze_L_15.png,j,0,3,results27,001,2026-04-20_12h15.58.690,mogelijke versie adaptive staircase builder,,2026.1.3,60.015183840975354,2026-04-20 12h15.59.024946 +0200,
20.5,ecc10neg,right,30,0,30,j,0,1.4240078999991965,None,0,2,2,2,30,0,30,0,1191.824910199999,,,,,,,,,,,,,,,1191.8118536999991,1191.824910199999,1191.824910199999,1192.6838171999989,1191.824910199999,1193.250978,j,0,1.4240078999991965,None,right,16,"[20, 17, 18, 17, 19, 18, 19, 18, 20, 18, 19, 16, 17, 13]",14,shiftedgaze_R_16.png,j,0,3,results27,001,2026-04-20_12h15.58.690,mogelijke versie adaptive staircase builder,,2026.1.3,60.015183840975354,2026-04-20 12h15.59.024946 +0200,
20.5,ecc10neg,right,31,0,31,f,1,1.9414354999989882,None,0,2,2,2,31,0,31,0,1193.3713210999995,,,,,,,,,,,,,,,1193.3581746,1193.3713210999995,1193.3713210999995,1194.2509343000002,1193.3713210999995,1195.3176962999987,f,1,1.9414354999989882,None,right,17,"[20, 17, 18, 17, 19, 18, 19, 18, 20, 18, 19, 16, 17, 13, 17]",15,shiftedgaze_R_17.png,f,1,3,results27,001,2026-04-20_12h15.58.690,mogelijke versie adaptive staircase builder,,2026.1.3,60.015183840975354,2026-04-20 12h15.59.024946 +0200,
20.5,ecc10neg,right,32,0,32,f,0,1.392635500000324,None,0,2,2,2,32,0,32,0,1195.4561906999988,,,,,,,,,,,,,,,1195.4433043999998,1195.4561906999988,1195.4561906999988,1196.317103199999,1195.4561906999988,1196.8510969,f,0,1.392635500000324,None,direct,16,"[20, 17, 18, 17, 19, 18, 19, 18, 20, 18, 19, 16, 17, 13, 17, 16]",16,shifteddirectgaze.png,f,0,3,results27,001,2026-04-20_12h15.58.690,mogelijke versie adaptive staircase builder,,2026.1.3,60.015183840975354,2026-04-20 12h15.59.024946 +0200,
20.5,ecc10neg,right,33,0,33,f,1,1.7330947000009473,None,0,2,2,2,33,0,33,0,1196.9636804000002,,,,,,,,,,,,,,,1196.9507517999991,1196.9636804000002,1196.9636804000002,1197.867078199999,1196.9636804000002,1198.700762999999,f,1,1.7330947000009473,None,left,17,"[20, 17, 18, 17, 19, 18, 19, 18, 20, 18, 19, 16, 17, 13, 17, 16, 17]",17,shiftedgaze_L_17.png,f,1,3,results27,001,2026-04-20_12h15.58.690,mogelijke versie adaptive staircase builder,,2026.1.3,60.015183840975354,2026-04-20 12h15.59.024946 +0200,
20.5,ecc10neg,right,34,0,34,j,0,1.184176299999308,None,0,2,2,2,34,0,34,0,1198.8245308999994,,,,,,,,,,,,,,,1198.8131815999986,1198.8245308999994,1198.8245308999994,1199.7002570000004,1198.8245308999994,1200.0176121000004,j,0,1.184176299999308,None,right,16,"[20, 17, 18, 17, 19, 18, 19, 18, 20, 18, 19, 16, 17, 13, 17, 16, 17, 16]",18,shiftedgaze_R_16.png,j,0,3,results27,001,2026-04-20_12h15.58.690,mogelijke versie adaptive staircase builder,,2026.1.3,60.015183840975354,2026-04-20 12h15.59.024946 +0200,
20.5,ecc10neg,right,35,0,35,f,1,1.1696094000017183,None,0,2,2,2,35,0,35,0,1200.135295,,,,,,,,,,,,,,,1200.1242538999995,1200.135295,1200.135295,1201.0173780999994,1200.135295,1201.3174474999996,f,1,1.1696094000017183,None,left,17,"[20, 17, 18, 17, 19, 18, 19, 18, 20, 18, 19, 16, 17, 13, 17, 16, 17, 16, 17]",19,shiftedgaze_L_17.png,f,1,3,results27,001,2026-04-20_12h15.58.690,mogelijke versie adaptive staircase builder,,2026.1.3,60.015183840975354,2026-04-20 12h15.59.024946 +0200,
20.5,ecc10neg,right,36,0,36,j,0,1.096011699999508,None,0,2,2,2,36,0,36,0,1201.4408047999987,,,,,,,,,,,,,,,1201.4293454999988,1201.4408047999987,1201.4408047999987,1202.3168667999998,1201.4408047999987,1202.550416099999,j,0,1.096011699999508,None,right,16,"[20, 17, 18, 17, 19, 18, 19, 18, 20, 18, 19, 16, 17, 13, 17, 16, 17, 16, 17, 16]",20,shiftedgaze_R_16.png,j,0,3,results27,001,2026-04-20_12h15.58.690,mogelijke versie adaptive staircase builder,,2026.1.3,60.015183840975354,2026-04-20 12h15.59.024946 +0200,
20.5,ecc10neg,right,37,0,37,j,0,1.0514390000007552,None,0,2,2,2,37,0,37,0,1202.6533641999995,,,,,,,,,,,,,,,1202.6423856000001,1202.6533641999995,1202.6533641999995,1203.5501528999994,1202.6533641999995,1203.7172623999995,j,0,1.0514390000007552,None,right,17,"[20, 17, 18, 17, 19, 18, 19, 18, 20, 18, 19, 16, 17, 13, 17, 16, 17, 16, 17, 16]",20,shiftedgaze_R_17.png,j,0,3,results27,001,2026-04-20_12h15.58.690,mogelijke versie adaptive staircase builder,,2026.1.3,60.015183840975354,2026-04-20 12h15.59.024946 +0200,
20.5,ecc10neg,right,38,0,38,f,1,1.650017800000569,None,0,2,2,2,38,0,38,0,1203.822807999999,,,,,,,,,,,,,,,1203.8114246999994,1203.822807999999,1203.822807999999,1204.7170865999997,1203.822807999999,1205.4838975999992,f,1,1.650017800000569,None,right,18,"[20, 17, 18, 17, 19, 18, 19, 18, 20, 18, 19, 16, 17, 13, 17, 16, 17, 16, 17, 16, 18]",21,shiftedgaze_R_18.png,f,1,3,results27,001,2026-04-20_12h15.58.690,mogelijke versie adaptive staircase builder,,2026.1.3,60.015183840975354,2026-04-20 12h15.59.024946 +0200,
20.5,ecc10neg,right,39,0,39,f,0,2.68325779999941,None,0,2,2,2,39,0,39,0,1205.605587099999,,,,,,,,,,,,,,,1205.593391299999,1205.605587099999,1205.605587099999,1206.483498399999,1205.605587099999,1208.300524799999,f,0,2.68325779999941,None,direct,17,"[20, 17, 18, 17, 19, 18, 19, 18, 20, 18, 19, 16, 17, 13, 17, 16, 17, 16, 17, 16, 18, 17]",22,shifteddirectgaze.png,f,0,3,results27,001,2026-04-20_12h15.58.690,mogelijke versie adaptive staircase builder,,2026.1.3,60.015183840975354,2026-04-20 12h15.59.024946 +0200,
20.5,ecc10neg,right,40,0,40,j,0,2.5537521000005654,None,0,2,2,2,40,0,40,0,1208.3991140999988,,,,,,,,,,,,,,,1208.3881899999997,1208.3991140999988,1208.3991140999988,1209.300045,1208.3991140999988,1210.9671178999997,j,0,2.5537521000005654,None,left,18,"[20, 17, 18, 17, 19, 18, 19, 18, 20, 18, 19, 16, 17, 13, 17, 16, 17, 16, 17, 16, 18, 17]",22,shiftedgaze_L_18.png,j,0,3,results27,001,2026-04-20_12h15.58.690,mogelijke versie adaptive staircase builder,,2026.1.3,60.015183840975354,2026-04-20 12h15.59.024946 +0200,
20.5,ecc10neg,right,41,0,41,j,1,1.590716299999258,None,0,2,2,2,41,0,41,0,1211.0665419999987,,,,,,,,,,,,,,,1211.0541472999994,1211.0665419999987,1211.0665419999987,1211.9667063999987,1211.0665419999987,1212.6670803999987,j,1,1.590716299999258,None,direct,19,"[20, 17, 18, 17, 19, 18, 19, 18, 20, 18, 19, 16, 17, 13, 17, 16, 17, 16, 17, 16, 18, 17, 19]",23,shifteddirectgaze.png,j,1,3,results27,001,2026-04-20_12h15.58.690,mogelijke versie adaptive staircase builder,,2026.1.3,60.015183840975354,2026-04-20 12h15.59.024946 +0200,
20.5,ecc10neg,right,42,0,42,f,0,3.2608227000000625,None,0,2,2,2,42,0,42,0,1212.7640032,,,,,,,,,,,,,,,1212.7535695999995,1212.7640032,1212.7640032,1213.6666520999988,1212.7640032,1216.0337198999987,f,0,3.2608227000000625,None,direct,18,"[20, 17, 18, 17, 19, 18, 19, 18, 20, 18, 19, 16, 17, 13, 17, 16, 17, 16, 17, 16, 18, 17, 19, 18]",24,shifteddirectgaze.png,f,0,3,results27,001,2026-04-20_12h15.58.690,mogelijke versie adaptive staircase builder,,2026.1.3,60.015183840975354,2026-04-20 12h15.59.024946 +0200,
20.5,ecc10neg,right,43,0,43,f,1,1.2084706999994523,None,0,2,2,2,43,0,43,0,1216.1924414999994,,,,,,,,,,,,,,,1216.1450494,1216.1924414999994,1216.1924414999994,1217.0333596,1216.1924414999994,1217.4178003999987,f,1,1.2084706999994523,None,right,19,"[20, 17, 18, 17, 19, 18, 19, 18, 20, 18, 19, 16, 17, 13, 17, 16, 17, 16, 17, 16, 18, 17, 19, 18, 19]",25,shiftedgaze_R_19.png,f,1,3,results27,001,2026-04-20_12h15.58.690,mogelijke versie adaptive staircase builder,,2026.1.3,60.015183840975354,2026-04-20 12h15.59.024946 +0200,
20.5,ecc10neg,right,44,0,44,j,0,1.8193420000006881,None,0,2,2,2,44,0,44,0,1217.5415844999989,,,,,,,,,,,,,,,1217.530812699999,1217.5415844999989,1217.5415844999989,1218.433239,1217.5415844999989,1219.3675473999992,j,0,1.8193420000006881,None,left,18,"[20, 17, 18, 17, 19, 18, 19, 18, 20, 18, 19, 16, 17, 13, 17, 16, 17, 16, 17, 16, 18, 17, 19, 18, 19, 18]",26,shiftedgaze_L_18.png,j,0,3,results27,001,2026-04-20_12h15.58.690,mogelijke versie adaptive staircase builder,,2026.1.3,60.015183840975354,2026-04-20 12h15.59.024946 +0200,
20.5,ecc10neg,right,45,0,45,f,1,1.5990940000010596,None,0,2,2,2,45,0,45,0,1219.4898216000001,,,,,,,,,,,,,,,1219.4780113999986,1219.4898216000001,1219.4898216000001,1220.3833275999987,1219.4898216000001,1221.1003179999989,f,1,1.5990940000010596,None,right,19,"[20, 17, 18, 17, 19, 18, 19, 18, 20, 18, 19, 16, 17, 13, 17, 16, 17, 16, 17, 16, 18, 17, 19, 18, 19, 18, 19]",27,shiftedgaze_R_19.png,f,1,3,results27,001,2026-04-20_12h15.58.690,mogelijke versie adaptive staircase builder,,2026.1.3,60.015183840975354,2026-04-20 12h15.59.024946 +0200,
20.5,ecc10neg,right,46,0,46,f,1,1.2398703999988356,None,0,2,2,2,46,0,46,0,1221.2089844000002,,,,,,,,,,,,,,,1221.1978149999995,1221.2089844000002,1221.2089844000002,1222.0999668000004,1221.2089844000002,1222.4504507000001,f,1,1.2398703999988356,None,left,18,"[20, 17, 18, 17, 19, 18, 19, 18, 20, 18, 19, 16, 17, 13, 17, 16, 17, 16, 17, 16, 18, 17, 19, 18, 19, 18, 19]",27,shiftedgaze_L_18.png,f,1,3,results27,001,2026-04-20_12h15.58.690,mogelijke versie adaptive staircase builder,,2026.1.3,60.015183840975354,2026-04-20 12h15.59.024946 +0200,
20.5,ecc10neg,right,47,0,47,f,1,1.6665023999994446,None,0,2,2,2,47,0,47,0,1222.5665243999993,,,,,,,,,,,,,,,1222.5543448999997,1222.5665243999993,1222.5665243999993,1223.4501514000003,1222.5665243999993,1224.2336380999986,f,1,1.6665023999994446,None,right,17,"[20, 17, 18, 17, 19, 18, 19, 18, 20, 18, 19, 16, 17, 13, 17, 16, 17, 16, 17, 16, 18, 17, 19, 18, 19, 18, 19]",27,shiftedgaze_R_17.png,f,1,3,results27,001,2026-04-20_12h15.58.690,mogelijke versie adaptive staircase builder,,2026.1.3,60.015183840975354,2026-04-20 12h15.59.024946 +0200,
20.5,ecc10neg,right,48,0,48,j,1,1.706984200000079,None,0,2,2,2,48,0,48,0,1224.3420294999996,,,,,,,,,,,,,,,1224.3305784999993,1224.3420294999996,1224.3420294999996,1225.2331754999996,1224.3420294999996,1226.0503356999998,j,1,1.706984200000079,None,direct,16,"[20, 17, 18, 17, 19, 18, 19, 18, 20, 18, 19, 16, 17, 13, 17, 16, 17, 16, 17, 16, 18, 17, 19, 18, 19, 18, 19]",27,shifteddirectgaze.png,j,1,3,results27,001,2026-04-20_12h15.58.690,mogelijke versie adaptive staircase builder,,2026.1.3,60.015183840975354,2026-04-20 12h15.59.024946 +0200,
20.5,ecc10neg,right,49,0,49,f,1,2.7241145000007236,None,0,2,2,2,49,0,49,0,1226.1408372999995,,,,,,,,,,,,,,,1226.130103399999,1226.1408372999995,1226.1408372999995,1227.0499172,1226.1408372999995,1228.8674769999998,f,1,2.7241145000007236,None,right,15,"[20, 17, 18, 17, 19, 18, 19, 18, 20, 18, 19, 16, 17, 13, 17, 16, 17, 16, 17, 16, 18, 17, 19, 18, 19, 18, 19]",27,shiftedgaze_R_15.png,f,1,3,results27,001,2026-04-20_12h15.58.690,mogelijke versie adaptive staircase builder,,2026.1.3,60.015183840975354,2026-04-20 12h15.59.024946 +0200,
20.5,ecc10neg,right,50,0,50,f,1,1.3291516999997839,None,0,2,2,2,50,0,50,0,1228.9597682000003,,,,,,,,,,,,,,,1228.9484467999991,1228.9597682000003,1228.9597682000003,1229.883240699999,1228.9597682000003,1230.3001021,f,1,1.3291516999997839,None,left,14,"[20, 17, 18, 17, 19, 18, 19, 18, 20, 18, 19, 16, 17, 13, 17, 16, 17, 16, 17, 16, 18, 17, 19, 18, 19, 18, 19]",27,shiftedgaze_L_14.png,f,1,3,results27,001,2026-04-20_12h15.58.690,mogelijke versie adaptive staircase builder,,2026.1.3,60.015183840975354,2026-04-20 12h15.59.024946 +0200,
20.5,ecc10neg,right,51,0,51,f,1,1.3509402999989106,None,0,2,2,2,51,0,51,0,1230.3938464000003,,,,,,,,,,,,,,,1230.3826625000002,1230.3938464000003,1230.3938464000003,1231.3000374000003,1230.3938464000003,1231.7502520999988,f,1,1.3509402999989106,None,right,13,"[20, 17, 18, 17, 19, 18, 19, 18, 20, 18, 19, 16, 17, 13, 17, 16, 17, 16, 17, 16, 18, 17, 19, 18, 19, 18, 19]",27,shiftedgaze_R_13.png,f,1,3,results27,001,2026-04-20_12h15.58.690,mogelijke versie adaptive staircase builder,,2026.1.3,60.015183840975354,2026-04-20 12h15.59.024946 +0200,
20.5,ecc10neg,right,52,0,52,f,1,2.158439400000134,None,0,2,2,2,52,0,52,0,1231.8586668999997,,,,,,,,,,,,,,,1231.8493263,1231.8586668999997,1231.8586668999997,1232.7497172999992,1231.8586668999997,1234.0335311999988,f,1,2.158439400000134,None,right,12,"[20, 17, 18, 17, 19, 18, 19, 18, 20, 18, 19, 16, 17, 13, 17, 16, 17, 16, 17, 16, 18, 17, 19, 18, 19, 18, 19]",27,shiftedgaze_R_12.png,f,1,3,results27,001,2026-04-20_12h15.58.690,mogelijke versie adaptive staircase builder,,2026.1.3,60.015183840975354,2026-04-20 12h15.59.024946 +0200,
20.5,ecc10neg,right,53,0,53,j,0,1.8189131999988604,None,0,2,2,2,53,0,53,0,1234.149928499999,,,,,,,,,,,,,,,1234.1401771,1234.149928499999,1234.149928499999,1235.0331645999995,1234.149928499999,1235.9834806999988,j,0,1.8189131999988604,None,left,11,"[20, 17, 18, 17, 19, 18, 19, 18, 20, 18, 19, 16, 17, 13, 17, 16, 17, 16, 17, 16, 18, 17, 19, 18, 19, 18, 19, 11]",28,shiftedgaze_L_11.png,j,0,3,results27,001,2026-04-20_12h15.58.690,mogelijke versie adaptive staircase builder,,2026.1.3,60.015183840975354,2026-04-20 12h15.59.024946 +0200,
20.5,ecc10neg,right,54,0,54,f,0,1.6456175000002986,None,0,2,2,2,54,0,54,0,1236.075476,,,,,,,,,,,,,,,1236.064873899999,1236.075476,1236.075476,1236.9831040999998,1236.075476,1237.7335120999996,f,0,1.6456175000002986,None,direct,12,"[20, 17, 18, 17, 19, 18, 19, 18, 20, 18, 19, 16, 17, 13, 17, 16, 17, 16, 17, 16, 18, 17, 19, 18, 19, 18, 19, 11]",28,shifteddirectgaze.png,f,0,3,results27,001,2026-04-20_12h15.58.690,mogelijke versie adaptive staircase builder,,2026.1.3,60.015183840975354,2026-04-20 12h15.59.024946 +0200,
20.5,ecc10neg,right,55,0,55,f,0,1.784495899999456,None,0,2,2,2,55,0,55,0,1237.8244519,,,,,,,,,,,,,,,1237.8127834999996,1237.8244519,1237.8244519,1238.7331943999998,1237.8244519,1239.6167600999997,f,0,1.784495899999456,None,direct,13,"[20, 17, 18, 17, 19, 18, 19, 18, 20, 18, 19, 16, 17, 13, 17, 16, 17, 16, 17, 16, 18, 17, 19, 18, 19, 18, 19, 11]",28,shifteddirectgaze.png,f,0,3,results27,001,2026-04-20_12h15.58.690,mogelijke versie adaptive staircase builder,,2026.1.3,60.015183840975354,2026-04-20 12h15.59.024946 +0200,
20.5,ecc10neg,right,56,0,56,j,0,2.1974983000000066,None,0,2,2,2,56,0,56,0,1239.7074567,,,,,,,,,,,,,,,1239.6968304999991,1239.7074567,1239.7074567,1240.6164133999991,1239.7074567,1241.916710899999,j,0,2.1974983000000066,None,left,14,"[20, 17, 18, 17, 19, 18, 19, 18, 20, 18, 19, 16, 17, 13, 17, 16, 17, 16, 17, 16, 18, 17, 19, 18, 19, 18, 19, 11]",28,shiftedgaze_L_14.png,j,0,3,results27,001,2026-04-20_12h15.58.690,mogelijke versie adaptive staircase builder,,2026.1.3,60.015183840975354,2026-04-20 12h15.59.024946 +0200,
20.5,ecc10neg,right,57,0,57,f,0,1.9506863999995403,None,0,2,2,2,57,0,57,0,1242.0101818999992,,,,,,,,,,,,,,,1241.9992745,1242.0101818999992,1242.0101818999992,1242.9170364000001,1242.0101818999992,1243.9666908999989,f,0,1.9506863999995403,None,direct,15,"[20, 17, 18, 17, 19, 18, 19, 18, 20, 18, 19, 16, 17, 13, 17, 16, 17, 16, 17, 16, 18, 17, 19, 18, 19, 18, 19, 11]",28,shifteddirectgaze.png,f,0,3,results27,001,2026-04-20_12h15.58.690,mogelijke versie adaptive staircase builder,,2026.1.3,60.015183840975354,2026-04-20 12h15.59.024946 +0200,
20.5,ecc10neg,right,58,0,58,j,0,1.7490987999990466,None,0,2,2,2,58,0,58,0,1244.0597194000002,,,,,,,,,,,,,,,1244.0488224,1244.0597194000002,1244.0597194000002,1244.967532999999,1244.0597194000002,1245.8167133999996,j,0,1.7490987999990466,None,left,16,"[20, 17, 18, 17, 19, 18, 19, 18, 20, 18, 19, 16, 17, 13, 17, 16, 17, 16, 17, 16, 18, 17, 19, 18, 19, 18, 19, 11]",28,shiftedgaze_L_16.png,j,0,3,results27,001,2026-04-20_12h15.58.690,mogelijke versie adaptive staircase builder,,2026.1.3,60.015183840975354,2026-04-20 12h15.59.024946 +0200,
20.5,ecc10neg,right,59,0,59,j,1,1.3163377000000764,None,0,2,2,2,59,0,59,0,1245.9085371,,,,,,,,,,,,,,,1245.8981153000004,1245.9085371,1245.9085371,1246.816303399999,1245.9085371,1247.2333528999989,j,1,1.3163377000000764,None,direct,17,"[20, 17, 18, 17, 19, 18, 19, 18, 20, 18, 19, 16, 17, 13, 17, 16, 17, 16, 17, 16, 18, 17, 19, 18, 19, 18, 19, 11, 17]",29,shifteddirectgaze.png,j,1,3,results27,001,2026-04-20_12h15.58.690,mogelijke versie adaptive staircase builder,,2026.1.3,60.015183840975354,2026-04-20 12h15.59.024946 +0200,
20.5,ecc10neg,right,2,2,0,,,,,0,2,2,2,,,,,,,,,,,,,,,,,,,,,,,,,,,,,,,,,,,,,,results27,001,2026-04-20_12h15.58.690,mogelijke versie adaptive staircase builder,,2026.1.3,60.015183840975354,2026-04-20 12h15.59.024946 +0200,
