xPos,stimulusSet,whichImage,thisN,thisTrialN,thisRepN,key_resp.keys,key_resp.corr,key_resp.rt,key_resp.duration,blocks.thisRepN,blocks.thisTrialN,blocks.thisN,blocks.thisIndex,trials.thisRepN,trials.thisTrialN,trials.thisN,trials.thisIndex,thisRow.t,notes,piloting,intro.started,introinstructions.started,intro_key.started,demo_image_left.started,demo_image_middle.started,demo_image_right.started,intro.stopped,intro_key.keys,intro_key.rt,intro_key.duration,block_start.started,block_start.stopped,trial.started,key_resp.started,middle_image.started,right_image.started,left_image.started,trial.stopped,trials.key_resp.keys,trials.key_resp.corr,trials.key_resp.rt,trials.key_resp.duration,direction,angle,reversal_intensities,number_reversals,stimulus,response,correct,blockNumber,participant,session,date,expName,expVersion,psychopyVersion,frameRate,expStart,
,,,,,,,,,,,,,,,,,,,,False,0.05005119999987073,0.061854900000980706,0.061854900000980706,0.061854900000980706,0.061854900000980706,0.061854900000980706,563.328196800001,space,563.0901962000007,0.1596783000004507,,,,,,,,,,,,,,,,,,,,,results31,001,2026-04-20_14h11.42.984,mogelijke versie adaptive staircase builder,,2026.1.3,59.89257667401877,2026-04-20 14h11.43.317523 +0200,
4.5,ecc10pos,left,0,0,0,j,0,4.652670899999066,None,0,0,0,0,0,0,0,0,563.6590317000009,,,,,,,,,,,,,563.535764100001,563.5358198000013,563.648041800001,563.6590317000009,563.6590317000009,563.6590317000009,564.5442153000004,568.3276748999997,j,0,4.652670899999066,None,right,20,[],0,shiftedgaze_R_20.png,j,0,1,results31,001,2026-04-20_14h11.42.984,mogelijke versie adaptive staircase builder,,2026.1.3,59.89257667401877,2026-04-20 14h11.43.317523 +0200,
4.5,ecc10pos,left,1,0,1,f,1,1.7514733000007254,None,0,0,0,0,1,0,1,0,568.4642763000011,,,,,,,,,,,,,,,568.4524289000001,568.4642763000011,568.4642763000011,568.4642763000011,569.327540100001,570.2288375000007,f,1,1.7514733000007254,None,left,20,[20],1,shiftedgaze_L_20.png,f,1,1,results31,001,2026-04-20_14h11.42.984,mogelijke versie adaptive staircase builder,,2026.1.3,59.89257667401877,2026-04-20 14h11.43.317523 +0200,
4.5,ecc10pos,left,2,0,2,f,1,2.1765730000006442,None,0,0,0,0,2,0,2,0,570.343079100001,,,,,,,,,,,,,,,570.3321930000002,570.343079100001,570.343079100001,570.343079100001,571.2441178000008,572.5279119000006,f,1,2.1765730000006442,None,left,19,[20],1,shiftedgaze_L_19.png,f,1,1,results31,001,2026-04-20_14h11.42.984,mogelijke versie adaptive staircase builder,,2026.1.3,59.89257667401877,2026-04-20 14h11.43.317523 +0200,
4.5,ecc10pos,left,3,0,3,j,1,1.8187655000001541,None,0,0,0,0,3,0,3,0,572.6449164000005,,,,,,,,,,,,,,,572.6337497000004,572.6449164000005,572.6449164000005,572.6449164000005,573.527630300001,574.4780052999995,j,1,1.8187655000001541,None,direct,18,[20],1,shifteddirectgaze.png,j,1,1,results31,001,2026-04-20_14h11.42.984,mogelijke versie adaptive staircase builder,,2026.1.3,59.89257667401877,2026-04-20 14h11.43.317523 +0200,
4.5,ecc10pos,left,4,0,4,f,1,1.7004240000005666,None,0,0,0,0,4,0,4,0,574.611358600001,,,,,,,,,,,,,,,574.6000388000011,574.611358600001,574.611358600001,574.611358600001,575.4774044000005,576.3279168000008,f,1,1.7004240000005666,None,left,17,[20],1,shiftedgaze_L_17.png,f,1,1,results31,001,2026-04-20_14h11.42.984,mogelijke versie adaptive staircase builder,,2026.1.3,59.89257667401877,2026-04-20 14h11.43.317523 +0200,
4.5,ecc10pos,left,5,0,5,j,0,1.6112766999995074,None,0,0,0,0,5,0,5,0,576.4524738,,,,,,,,,,,,,,,576.4415237000012,576.4524738,576.4524738,576.4524738,577.3274115000004,578.0775295000003,j,0,1.6112766999995074,None,right,16,"[20, 16]",2,shiftedgaze_R_16.png,j,0,1,results31,001,2026-04-20_14h11.42.984,mogelijke versie adaptive staircase builder,,2026.1.3,59.89257667401877,2026-04-20 14h11.43.317523 +0200,
4.5,ecc10pos,left,6,0,6,f,0,2.5155061000004935,None,0,0,0,0,6,0,6,0,578.1802420000004,,,,,,,,,,,,,,,578.1672128999999,578.1802420000004,578.1802420000004,578.1802420000004,579.0774646999998,580.7111151000008,f,0,2.5155061000004935,None,direct,17,"[20, 16]",2,shifteddirectgaze.png,f,0,1,results31,001,2026-04-20_14h11.42.984,mogelijke versie adaptive staircase builder,,2026.1.3,59.89257667401877,2026-04-20 14h11.43.317523 +0200,
4.5,ecc10pos,left,7,0,7,j,0,2.62598749999961,None,0,0,0,0,7,0,7,0,580.8457166000007,,,,,,,,,,,,,,,580.8345339000007,580.8457166000007,580.8457166000007,580.8457166000007,581.7105368000011,583.4777095999998,j,0,2.62598749999961,None,left,18,"[20, 16]",2,shiftedgaze_L_18.png,j,0,1,results31,001,2026-04-20_14h11.42.984,mogelijke versie adaptive staircase builder,,2026.1.3,59.89257667401877,2026-04-20 14h11.43.317523 +0200,
4.5,ecc10pos,left,8,0,8,f,1,2.2784328999987338,None,0,0,0,0,8,0,8,0,583.5853117999995,,,,,,,,,,,,,,,583.5740051000012,583.5853117999995,583.5853117999995,583.5853117999995,584.477304,585.8777253999997,f,1,2.2784328999987338,None,left,19,"[20, 16, 19]",3,shiftedgaze_L_19.png,f,1,1,results31,001,2026-04-20_14h11.42.984,mogelijke versie adaptive staircase builder,,2026.1.3,59.89257667401877,2026-04-20 14h11.43.317523 +0200,
4.5,ecc10pos,left,9,0,9,j,1,1.436299399998461,None,0,0,0,0,9,0,9,0,585.9954378000002,,,,,,,,,,,,,,,585.9840707000003,585.9954378000002,585.9954378000002,585.9954378000002,586.8772320000007,587.4445489999998,j,1,1.436299399998461,None,direct,18,"[20, 16, 19]",3,shifteddirectgaze.png,j,1,1,results31,001,2026-04-20_14h11.42.984,mogelijke versie adaptive staircase builder,,2026.1.3,59.89257667401877,2026-04-20 14h11.43.317523 +0200,
4.5,ecc10pos,left,10,0,10,j,0,1.9708871000002546,None,0,0,0,0,10,0,10,0,587.5488617999999,,,,,,,,,,,,,,,587.5380112000003,587.5488617999999,587.5488617999999,587.5488617999999,588.4443561999997,589.5276398000005,j,0,1.9708871000002546,None,right,17,"[20, 16, 19, 17]",4,shiftedgaze_R_17.png,j,0,1,results31,001,2026-04-20_14h11.42.984,mogelijke versie adaptive staircase builder,,2026.1.3,59.89257667401877,2026-04-20 14h11.43.317523 +0200,
4.5,ecc10pos,left,11,0,11,j,1,1.8548176000003878,None,0,0,0,0,11,0,11,0,589.6249936000004,,,,,,,,,,,,,,,589.6146683999996,589.6249936000004,589.6249936000004,589.6249936000004,590.5273037000006,591.4941923000006,j,1,1.8548176000003878,None,direct,18,"[20, 16, 19, 17, 18]",5,shifteddirectgaze.png,j,1,1,results31,001,2026-04-20_14h11.42.984,mogelijke versie adaptive staircase builder,,2026.1.3,59.89257667401877,2026-04-20 14h11.43.317523 +0200,
4.5,ecc10pos,left,12,0,12,f,0,1.6470280999983515,None,0,0,0,0,12,0,12,0,591.5926127000002,,,,,,,,,,,,,,,591.581634600001,591.5926127000002,591.5926127000002,591.5926127000002,592.4939355000006,593.2441689999996,f,0,1.6470280999983515,None,direct,17,"[20, 16, 19, 17, 18, 17]",6,shifteddirectgaze.png,f,0,1,results31,001,2026-04-20_14h11.42.984,mogelijke versie adaptive staircase builder,,2026.1.3,59.89257667401877,2026-04-20 14h11.43.317523 +0200,
4.5,ecc10pos,left,13,0,13,f,1,2.9011021000005712,None,0,0,0,0,13,0,13,0,593.3706208000003,,,,,,,,,,,,,,,593.359827100001,593.3706208000003,593.3706208000003,593.3706208000003,594.2438954999998,596.2775042000012,f,1,2.9011021000005712,None,left,18,"[20, 16, 19, 17, 18, 17, 18]",7,shiftedgaze_L_18.png,f,1,1,results31,001,2026-04-20_14h11.42.984,mogelijke versie adaptive staircase builder,,2026.1.3,59.89257667401877,2026-04-20 14h11.43.317523 +0200,
4.5,ecc10pos,left,14,0,14,j,0,4.1404270000002725,None,0,0,0,0,14,0,14,0,596.3952781000007,,,,,,,,,,,,,,,596.3843797999998,596.3952781000007,596.3952781000007,596.3952781000007,597.2772342000007,600.5442104000012,j,0,4.1404270000002725,None,right,17,"[20, 16, 19, 17, 18, 17, 18, 17]",8,shiftedgaze_R_17.png,j,0,1,results31,001,2026-04-20_14h11.42.984,mogelijke versie adaptive staircase builder,,2026.1.3,59.89257667401877,2026-04-20 14h11.43.317523 +0200,
4.5,ecc10pos,left,15,0,15,j,1,1.766272700000627,None,0,0,0,0,15,0,15,0,600.6414808000009,,,,,,,,,,,,,,,600.6305774000011,600.6414808000009,600.6414808000009,600.6414808000009,601.5437218999996,602.4108596000005,j,1,1.766272700000627,None,direct,18,"[20, 16, 19, 17, 18, 17, 18, 17, 18]",9,shifteddirectgaze.png,j,1,1,results31,001,2026-04-20_14h11.42.984,mogelijke versie adaptive staircase builder,,2026.1.3,59.89257667401877,2026-04-20 14h11.43.317523 +0200,
4.5,ecc10pos,left,16,0,16,f,0,2.3296816000001854,None,0,0,0,0,16,0,16,0,602.5100423000004,,,,,,,,,,,,,,,602.4990170000001,602.5100423000004,602.5100423000004,602.5100423000004,603.4106356000011,604.8443785,f,0,2.3296816000001854,None,direct,17,"[20, 16, 19, 17, 18, 17, 18, 17, 18, 17]",10,shifteddirectgaze.png,f,0,1,results31,001,2026-04-20_14h11.42.984,mogelijke versie adaptive staircase builder,,2026.1.3,59.89257667401877,2026-04-20 14h11.43.317523 +0200,
4.5,ecc10pos,left,17,0,17,f,1,4.28430059999846,None,0,0,0,0,17,0,17,0,604.9554927000008,,,,,,,,,,,,,,,604.9452423000002,604.9554927000008,604.9554927000008,604.9554927000008,605.8603819,609.244085100001,f,1,4.28430059999846,None,right,18,"[20, 16, 19, 17, 18, 17, 18, 17, 18, 17, 18]",11,shiftedgaze_R_18.png,f,1,1,results31,001,2026-04-20_14h11.42.984,mogelijke versie adaptive staircase builder,,2026.1.3,59.89257667401877,2026-04-20 14h11.43.317523 +0200,
4.5,ecc10pos,left,18,0,18,j,0,2.257654700000785,None,0,0,0,0,18,0,18,0,609.3421314999996,,,,,,,,,,,,,,,609.3312661,609.3421314999996,609.3421314999996,609.3421314999996,610.2438307000011,611.610732000001,j,0,2.257654700000785,None,right,17,"[20, 16, 19, 17, 18, 17, 18, 17, 18, 17, 18, 17]",12,shiftedgaze_R_17.png,j,0,1,results31,001,2026-04-20_14h11.42.984,mogelijke versie adaptive staircase builder,,2026.1.3,59.89257667401877,2026-04-20 14h11.43.317523 +0200,
4.5,ecc10pos,left,19,0,19,j,0,2.1479603000007046,None,0,0,0,0,19,0,19,0,611.7077406000008,,,,,,,,,,,,,,,611.6973887000004,611.7077406000008,611.7077406000008,611.7077406000008,612.6101450999995,613.8605915000007,j,0,2.1479603000007046,None,right,18,"[20, 16, 19, 17, 18, 17, 18, 17, 18, 17, 18, 17]",12,shiftedgaze_R_18.png,j,0,1,results31,001,2026-04-20_14h11.42.984,mogelijke versie adaptive staircase builder,,2026.1.3,59.89257667401877,2026-04-20 14h11.43.317523 +0200,
4.5,ecc10pos,left,20,0,20,f,1,2.281658399999287,None,0,0,0,0,20,0,20,0,613.9741350000004,,,,,,,,,,,,,,,613.9643797999997,613.9741350000004,613.9741350000004,613.9741350000004,614.8603189000005,616.2607114000002,f,1,2.281658399999287,None,right,19,"[20, 16, 19, 17, 18, 17, 18, 17, 18, 17, 18, 17, 19]",13,shiftedgaze_R_19.png,f,1,1,results31,001,2026-04-20_14h11.42.984,mogelijke versie adaptive staircase builder,,2026.1.3,59.89257667401877,2026-04-20 14h11.43.317523 +0200,
4.5,ecc10pos,left,21,0,21,j,0,2.51789749999989,None,0,0,0,0,21,0,21,0,616.3698715999999,,,,,,,,,,,,,,,616.3597158000011,616.3698715999999,616.3698715999999,616.3698715999999,617.2601630000008,618.8939678999996,j,0,2.51789749999989,None,right,18,"[20, 16, 19, 17, 18, 17, 18, 17, 18, 17, 18, 17, 19, 18]",14,shiftedgaze_R_18.png,j,0,1,results31,001,2026-04-20_14h11.42.984,mogelijke versie adaptive staircase builder,,2026.1.3,59.89257667401877,2026-04-20 14h11.43.317523 +0200,
4.5,ecc10pos,left,22,0,22,f,1,3.133557099999962,None,0,0,0,0,22,0,22,0,619.0185968000005,,,,,,,,,,,,,,,619.0070207000008,619.0185968000005,619.0185968000005,619.0185968000005,619.8936204000001,622.1604973000012,f,1,3.133557099999962,None,left,19,"[20, 16, 19, 17, 18, 17, 18, 17, 18, 17, 18, 17, 19, 18, 19]",15,shiftedgaze_L_19.png,f,1,1,results31,001,2026-04-20_14h11.42.984,mogelijke versie adaptive staircase builder,,2026.1.3,59.89257667401877,2026-04-20 14h11.43.317523 +0200,
4.5,ecc10pos,left,23,0,23,f,1,1.9604648999993515,None,0,0,0,0,23,0,23,0,622.2793794000008,,,,,,,,,,,,,,,622.2683326999995,622.2793794000008,622.2793794000008,622.2793794000008,623.1601186000007,624.2438867000001,f,1,1.9604648999993515,None,right,18,"[20, 16, 19, 17, 18, 17, 18, 17, 18, 17, 18, 17, 19, 18, 19]",15,shiftedgaze_R_18.png,f,1,1,results31,001,2026-04-20_14h11.42.984,mogelijke versie adaptive staircase builder,,2026.1.3,59.89257667401877,2026-04-20 14h11.43.317523 +0200,
4.5,ecc10pos,left,24,0,24,j,0,2.1045040000008157,None,0,0,0,0,24,0,24,0,624.3432929999999,,,,,,,,,,,,,,,624.3319307000002,624.3432929999999,624.3432929999999,624.3432929999999,625.2433839000005,626.4602589999995,j,0,2.1045040000008157,None,right,17,"[20, 16, 19, 17, 18, 17, 18, 17, 18, 17, 18, 17, 19, 18, 19, 17]",16,shiftedgaze_R_17.png,j,0,1,results31,001,2026-04-20_14h11.42.984,mogelijke versie adaptive staircase builder,,2026.1.3,59.89257667401877,2026-04-20 14h11.43.317523 +0200,
4.5,ecc10pos,left,25,0,25,j,0,2.537652799999705,None,0,0,0,0,25,0,25,0,626.5580609999997,,,,,,,,,,,,,,,626.5480924000003,626.5580609999997,626.5580609999997,626.5580609999997,627.4600676000009,629.1105103000009,j,0,2.537652799999705,None,right,18,"[20, 16, 19, 17, 18, 17, 18, 17, 18, 17, 18, 17, 19, 18, 19, 17]",16,shiftedgaze_R_18.png,j,0,1,results31,001,2026-04-20_14h11.42.984,mogelijke versie adaptive staircase builder,,2026.1.3,59.89257667401877,2026-04-20 14h11.43.317523 +0200,
4.5,ecc10pos,left,26,0,26,j,0,1.8903986999994231,None,0,0,0,0,26,0,26,0,629.2214801999999,,,,,,,,,,,,,,,629.2086180999995,629.2214801999999,629.2214801999999,629.2214801999999,630.1100504000005,631.1270820999998,j,0,1.8903986999994231,None,right,19,"[20, 16, 19, 17, 18, 17, 18, 17, 18, 17, 18, 17, 19, 18, 19, 17]",16,shiftedgaze_R_19.png,j,0,1,results31,001,2026-04-20_14h11.42.984,mogelijke versie adaptive staircase builder,,2026.1.3,59.89257667401877,2026-04-20 14h11.43.317523 +0200,
4.5,ecc10pos,left,27,0,27,f,1,2.5957398999998986,None,0,0,0,0,27,0,27,0,631.2521106000004,,,,,,,,,,,,,,,631.2400892000005,631.2521106000004,631.2521106000004,631.2521106000004,632.1267052000003,633.8604272000011,f,1,2.5957398999998986,None,left,20,"[20, 16, 19, 17, 18, 17, 18, 17, 18, 17, 18, 17, 19, 18, 19, 17, 20]",17,shiftedgaze_L_20.png,f,1,1,results31,001,2026-04-20_14h11.42.984,mogelijke versie adaptive staircase builder,,2026.1.3,59.89257667401877,2026-04-20 14h11.43.317523 +0200,
4.5,ecc10pos,left,28,0,28,j,0,2.6069532000001345,None,0,0,0,0,28,0,28,0,633.9689216999996,,,,,,,,,,,,,,,633.9573504,633.9689216999996,633.9689216999996,633.9689216999996,634.8598999000005,636.5771686999997,j,0,2.6069532000001345,None,left,19,"[20, 16, 19, 17, 18, 17, 18, 17, 18, 17, 18, 17, 19, 18, 19, 17, 20, 19]",18,shiftedgaze_L_19.png,j,0,1,results31,001,2026-04-20_14h11.42.984,mogelijke versie adaptive staircase builder,,2026.1.3,59.89257667401877,2026-04-20 14h11.43.317523 +0200,
4.5,ecc10pos,left,29,0,29,f,0,2.4020418000000063,None,0,0,0,0,29,0,29,0,636.6938528999999,,,,,,,,,,,,,,,636.6819008000002,636.6938528999999,636.6938528999999,636.6938528999999,637.5773544000003,639.1103244999995,f,0,2.4020418000000063,None,direct,20,"[20, 16, 19, 17, 18, 17, 18, 17, 18, 17, 18, 17, 19, 18, 19, 17, 20, 19]",18,shifteddirectgaze.png,f,0,1,results31,001,2026-04-20_14h11.42.984,mogelijke versie adaptive staircase builder,,2026.1.3,59.89257667401877,2026-04-20 14h11.43.317523 +0200,
4.5,ecc10pos,left,30,0,30,f,1,2.1652426999989984,None,0,0,0,0,30,0,30,0,639.2355124999995,,,,,,,,,,,,,,,639.2241205999999,639.2355124999995,639.2355124999995,639.2355124999995,640.1098478000004,641.4102737000012,f,1,2.1652426999989984,None,left,20,"[20, 16, 19, 17, 18, 17, 18, 17, 18, 17, 18, 17, 19, 18, 19, 17, 20, 19, 20]",19,shiftedgaze_L_20.png,f,1,1,results31,001,2026-04-20_14h11.42.984,mogelijke versie adaptive staircase builder,,2026.1.3,59.89257667401877,2026-04-20 14h11.43.317523 +0200,
4.5,ecc10pos,left,31,0,31,j,1,1.672546700001476,None,0,0,0,0,31,0,31,0,641.5280856000008,,,,,,,,,,,,,,,641.5165871999998,641.5280856000008,641.5280856000008,641.5280856000008,642.4099027000011,643.2107312999997,j,1,1.672546700001476,None,direct,19,"[20, 16, 19, 17, 18, 17, 18, 17, 18, 17, 18, 17, 19, 18, 19, 17, 20, 19, 20]",19,shifteddirectgaze.png,j,1,1,results31,001,2026-04-20_14h11.42.984,mogelijke versie adaptive staircase builder,,2026.1.3,59.89257667401877,2026-04-20 14h11.43.317523 +0200,
4.5,ecc10pos,left,32,0,32,j,0,1.7066451999999117,None,0,0,0,0,32,0,32,0,643.3091216000012,,,,,,,,,,,,,,,643.2980296999995,643.3091216000012,643.3091216000012,643.3091216000012,644.2267208000012,645.026951400001,j,0,1.7066451999999117,None,right,18,"[20, 16, 19, 17, 18, 17, 18, 17, 18, 17, 18, 17, 19, 18, 19, 17, 20, 19, 20, 18]",20,shiftedgaze_R_18.png,j,0,1,results31,001,2026-04-20_14h11.42.984,mogelijke versie adaptive staircase builder,,2026.1.3,59.89257667401877,2026-04-20 14h11.43.317523 +0200,
4.5,ecc10pos,left,33,0,33,f,0,2.1218794000014896,None,0,0,0,0,33,0,33,0,645.1259342000012,,,,,,,,,,,,,,,645.1148064999998,645.1259342000012,645.1259342000012,645.1259342000012,646.0265061000009,647.2604222999998,f,0,2.1218794000014896,None,direct,19,"[20, 16, 19, 17, 18, 17, 18, 17, 18, 17, 18, 17, 19, 18, 19, 17, 20, 19, 20, 18]",20,shifteddirectgaze.png,f,0,1,results31,001,2026-04-20_14h11.42.984,mogelijke versie adaptive staircase builder,,2026.1.3,59.89257667401877,2026-04-20 14h11.43.317523 +0200,
4.5,ecc10pos,left,34,0,34,j,0,3.3581328000000212,None,0,0,0,0,34,0,34,0,647.3856655,,,,,,,,,,,,,,,647.3733075,647.3856655,647.3856655,647.3856655,648.2598410999999,650.7602435000008,j,0,3.3581328000000212,None,left,20,"[20, 16, 19, 17, 18, 17, 18, 17, 18, 17, 18, 17, 19, 18, 19, 17, 20, 19, 20, 18]",20,shiftedgaze_L_20.png,j,0,1,results31,001,2026-04-20_14h11.42.984,mogelijke versie adaptive staircase builder,,2026.1.3,59.89257667401877,2026-04-20 14h11.43.317523 +0200,
4.5,ecc10pos,left,35,0,35,f,1,3.177869600000122,None,0,0,0,0,35,0,35,0,650.8619975000001,,,,,,,,,,,,,,,650.8512129999999,650.8619975000001,650.8619975000001,650.8619975000001,651.7598739000005,654.0436748000011,f,1,3.177869600000122,None,left,20,"[20, 16, 19, 17, 18, 17, 18, 17, 18, 17, 18, 17, 19, 18, 19, 17, 20, 19, 20, 18, 20]",21,shiftedgaze_L_20.png,f,1,1,results31,001,2026-04-20_14h11.42.984,mogelijke versie adaptive staircase builder,,2026.1.3,59.89257667401877,2026-04-20 14h11.43.317523 +0200,
4.5,ecc10pos,left,36,0,36,j,0,2.0050916999989568,None,0,0,0,0,36,0,36,0,654.1469457000003,,,,,,,,,,,,,,,654.1353694000009,654.1469457000003,654.1469457000003,654.1469457000003,655.0430372999999,656.1601140000002,j,0,2.0050916999989568,None,left,19,"[20, 16, 19, 17, 18, 17, 18, 17, 18, 17, 18, 17, 19, 18, 19, 17, 20, 19, 20, 18, 20, 19]",22,shiftedgaze_L_19.png,j,0,1,results31,001,2026-04-20_14h11.42.984,mogelijke versie adaptive staircase builder,,2026.1.3,59.89257667401877,2026-04-20 14h11.43.317523 +0200,
4.5,ecc10pos,left,37,0,37,j,1,1.9949364999993122,None,0,0,0,0,37,0,37,0,656.2768737000006,,,,,,,,,,,,,,,656.2656827999999,656.2768737000006,656.2768737000006,656.2768737000006,657.1596021000005,658.2767170999996,j,1,1.9949364999993122,None,direct,20,"[20, 16, 19, 17, 18, 17, 18, 17, 18, 17, 18, 17, 19, 18, 19, 17, 20, 19, 20, 18, 20, 19, 20]",23,shifteddirectgaze.png,j,1,1,results31,001,2026-04-20_14h11.42.984,mogelijke versie adaptive staircase builder,,2026.1.3,59.89257667401877,2026-04-20 14h11.43.317523 +0200,
4.5,ecc10pos,left,38,0,38,f,1,2.6780342000001838,None,0,0,0,0,38,0,38,0,658.4098291999999,,,,,,,,,,,,,,,658.3980857000006,658.4098291999999,658.4098291999999,658.4098291999999,659.2765190999999,661.0932829000012,f,1,2.6780342000001838,None,left,19,"[20, 16, 19, 17, 18, 17, 18, 17, 18, 17, 18, 17, 19, 18, 19, 17, 20, 19, 20, 18, 20, 19, 20]",23,shiftedgaze_L_19.png,f,1,1,results31,001,2026-04-20_14h11.42.984,mogelijke versie adaptive staircase builder,,2026.1.3,59.89257667401877,2026-04-20 14h11.43.317523 +0200,
4.5,ecc10pos,left,39,0,39,f,0,2.5567413000007946,None,0,0,0,0,39,0,39,0,661.218995700001,,,,,,,,,,,,,,,661.2072222999996,661.218995700001,661.218995700001,661.218995700001,662.0933533000007,663.7767975999996,f,0,2.5567413000007946,None,direct,18,"[20, 16, 19, 17, 18, 17, 18, 17, 18, 17, 18, 17, 19, 18, 19, 17, 20, 19, 20, 18, 20, 19, 20, 18]",24,shifteddirectgaze.png,f,0,1,results31,001,2026-04-20_14h11.42.984,mogelijke versie adaptive staircase builder,,2026.1.3,59.89257667401877,2026-04-20 14h11.43.317523 +0200,
4.5,ecc10pos,left,40,0,40,j,0,1.6443816000009974,None,0,0,0,0,40,0,40,0,663.8913579,,,,,,,,,,,,,,,663.8811416999997,663.8913579,663.8913579,663.8913579,664.7763042000006,665.5432627000009,j,0,1.6443816000009974,None,right,19,"[20, 16, 19, 17, 18, 17, 18, 17, 18, 17, 18, 17, 19, 18, 19, 17, 20, 19, 20, 18, 20, 19, 20, 18]",24,shiftedgaze_R_19.png,j,0,1,results31,001,2026-04-20_14h11.42.984,mogelijke versie adaptive staircase builder,,2026.1.3,59.89257667401877,2026-04-20 14h11.43.317523 +0200,
4.5,ecc10pos,left,41,0,41,j,1,1.589712300001338,None,0,0,0,0,41,0,41,0,665.6501982000009,,,,,,,,,,,,,,,665.6413441000004,665.6501982000009,665.6501982000009,665.6501982000009,666.5428258000011,667.2433433999995,j,1,1.589712300001338,None,direct,20,"[20, 16, 19, 17, 18, 17, 18, 17, 18, 17, 18, 17, 19, 18, 19, 17, 20, 19, 20, 18, 20, 19, 20, 18, 20]",25,shifteddirectgaze.png,j,1,1,results31,001,2026-04-20_14h11.42.984,mogelijke versie adaptive staircase builder,,2026.1.3,59.89257667401877,2026-04-20 14h11.43.317523 +0200,
4.5,ecc10pos,left,42,0,42,f,1,2.0818428000002314,None,0,0,0,0,42,0,42,0,667.3499286999995,,,,,,,,,,,,,,,667.3401508000006,667.3499286999995,667.3499286999995,667.3499286999995,668.2429671000009,669.4432581000001,f,1,2.0818428000002314,None,right,19,"[20, 16, 19, 17, 18, 17, 18, 17, 18, 17, 18, 17, 19, 18, 19, 17, 20, 19, 20, 18, 20, 19, 20, 18, 20]",25,shiftedgaze_R_19.png,f,1,1,results31,001,2026-04-20_14h11.42.984,mogelijke versie adaptive staircase builder,,2026.1.3,59.89257667401877,2026-04-20 14h11.43.317523 +0200,
4.5,ecc10pos,left,43,0,43,j,1,3.1364950999995926,None,0,0,0,0,43,0,43,0,669.5513451999996,,,,,,,,,,,,,,,669.5414830999998,669.5513451999996,669.5513451999996,669.5513451999996,670.4429916000008,672.6932813000003,j,1,3.1364950999995926,None,direct,18,"[20, 16, 19, 17, 18, 17, 18, 17, 18, 17, 18, 17, 19, 18, 19, 17, 20, 19, 20, 18, 20, 19, 20, 18, 20]",25,shifteddirectgaze.png,j,1,1,results31,001,2026-04-20_14h11.42.984,mogelijke versie adaptive staircase builder,,2026.1.3,59.89257667401877,2026-04-20 14h11.43.317523 +0200,
4.5,ecc10pos,left,44,0,44,f,0,2.0015619000005245,None,0,0,0,0,44,0,44,0,672.7903721000002,,,,,,,,,,,,,,,672.7797473999999,672.7903721000002,672.7903721000002,672.7903721000002,673.6932897999995,674.7932763999997,f,0,2.0015619000005245,None,direct,17,"[20, 16, 19, 17, 18, 17, 18, 17, 18, 17, 18, 17, 19, 18, 19, 17, 20, 19, 20, 18, 20, 19, 20, 18, 20, 17]",26,shifteddirectgaze.png,f,0,1,results31,001,2026-04-20_14h11.42.984,mogelijke versie adaptive staircase builder,,2026.1.3,59.89257667401877,2026-04-20 14h11.43.317523 +0200,
4.5,ecc10pos,left,45,0,45,j,0,2.8231257000006735,None,0,0,0,0,45,0,45,0,674.9048371999997,,,,,,,,,,,,,,,674.8938364000005,674.9048371999997,674.9048371999997,674.9048371999997,675.7930532999999,677.7431921999996,j,0,2.8231257000006735,None,right,18,"[20, 16, 19, 17, 18, 17, 18, 17, 18, 17, 18, 17, 19, 18, 19, 17, 20, 19, 20, 18, 20, 19, 20, 18, 20, 17]",26,shiftedgaze_R_18.png,j,0,1,results31,001,2026-04-20_14h11.42.984,mogelijke versie adaptive staircase builder,,2026.1.3,59.89257667401877,2026-04-20 14h11.43.317523 +0200,
4.5,ecc10pos,left,46,0,46,j,0,2.303672500000175,None,0,0,0,0,46,0,46,0,677.8481893999997,,,,,,,,,,,,,,,677.8379192000011,677.8481893999997,677.8481893999997,677.8481893999997,678.7427255000002,680.1599440000009,j,0,2.303672500000175,None,right,19,"[20, 16, 19, 17, 18, 17, 18, 17, 18, 17, 18, 17, 19, 18, 19, 17, 20, 19, 20, 18, 20, 19, 20, 18, 20, 17]",26,shiftedgaze_R_19.png,j,0,1,results31,001,2026-04-20_14h11.42.984,mogelijke versie adaptive staircase builder,,2026.1.3,59.89257667401877,2026-04-20 14h11.43.317523 +0200,
4.5,ecc10pos,left,47,0,47,f,0,2.488668100000723,None,0,0,0,0,47,0,47,0,680.2630667000012,,,,,,,,,,,,,,,680.2532533000012,680.2630667000012,680.2630667000012,680.2630667000012,681.1592321999997,682.7598169000012,f,0,2.488668100000723,None,direct,20,"[20, 16, 19, 17, 18, 17, 18, 17, 18, 17, 18, 17, 19, 18, 19, 17, 20, 19, 20, 18, 20, 19, 20, 18, 20, 17]",26,shifteddirectgaze.png,f,0,1,results31,001,2026-04-20_14h11.42.984,mogelijke versie adaptive staircase builder,,2026.1.3,59.89257667401877,2026-04-20 14h11.43.317523 +0200,
4.5,ecc10pos,left,48,0,48,j,0,1.8736895000001823,None,0,0,0,0,48,0,48,0,682.8621846000005,,,,,,,,,,,,,,,682.8517410000004,682.8621846000005,682.8621846000005,682.8621846000005,683.7593623000012,684.7431381999995,j,0,1.8736895000001823,None,right,20,"[20, 16, 19, 17, 18, 17, 18, 17, 18, 17, 18, 17, 19, 18, 19, 17, 20, 19, 20, 18, 20, 19, 20, 18, 20, 17]",26,shiftedgaze_R_20.png,j,0,1,results31,001,2026-04-20_14h11.42.984,mogelijke versie adaptive staircase builder,,2026.1.3,59.89257667401877,2026-04-20 14h11.43.317523 +0200,
4.5,ecc10pos,left,49,0,49,j,0,2.000543399999515,None,0,0,0,0,49,0,49,0,684.8393145999999,,,,,,,,,,,,,,,684.8282340999995,684.8393145999999,684.8393145999999,684.8393145999999,685.7430978000011,686.8431433000005,j,0,2.000543399999515,None,right,20,"[20, 16, 19, 17, 18, 17, 18, 17, 18, 17, 18, 17, 19, 18, 19, 17, 20, 19, 20, 18, 20, 19, 20, 18, 20, 17]",26,shiftedgaze_R_20.png,j,0,1,results31,001,2026-04-20_14h11.42.984,mogelijke versie adaptive staircase builder,,2026.1.3,59.89257667401877,2026-04-20 14h11.43.317523 +0200,
4.5,ecc10pos,left,50,0,50,f,0,2.181382200000371,None,0,0,0,0,50,0,50,0,686.9383596999996,,,,,,,,,,,,,,,686.9276503000001,686.9383596999996,686.9383596999996,686.9383596999996,687.8430554000006,689.1263488000004,f,0,2.181382200000371,None,direct,20,"[20, 16, 19, 17, 18, 17, 18, 17, 18, 17, 18, 17, 19, 18, 19, 17, 20, 19, 20, 18, 20, 19, 20, 18, 20, 17]",26,shifteddirectgaze.png,f,0,1,results31,001,2026-04-20_14h11.42.984,mogelijke versie adaptive staircase builder,,2026.1.3,59.89257667401877,2026-04-20 14h11.43.317523 +0200,
4.5,ecc10pos,left,51,0,51,j,0,2.0232320000013715,None,0,0,0,0,51,0,51,0,689.2565243999998,,,,,,,,,,,,,,,689.2449558000008,689.2565243999998,689.2565243999998,689.2565243999998,690.125982900001,691.2930300999997,j,0,2.0232320000013715,None,left,20,"[20, 16, 19, 17, 18, 17, 18, 17, 18, 17, 18, 17, 19, 18, 19, 17, 20, 19, 20, 18, 20, 19, 20, 18, 20, 17]",26,shiftedgaze_L_20.png,j,0,1,results31,001,2026-04-20_14h11.42.984,mogelijke versie adaptive staircase builder,,2026.1.3,59.89257667401877,2026-04-20 14h11.43.317523 +0200,
4.5,ecc10pos,left,52,0,52,f,1,2.091092299999218,None,0,0,0,0,52,0,52,0,691.3967128000004,,,,,,,,,,,,,,,691.3857325999998,691.3967128000004,691.3967128000004,691.3967128000004,692.2925851,693.4927984999995,f,1,2.091092299999218,None,left,20,"[20, 16, 19, 17, 18, 17, 18, 17, 18, 17, 18, 17, 19, 18, 19, 17, 20, 19, 20, 18, 20, 19, 20, 18, 20, 17, 20]",27,shiftedgaze_L_20.png,f,1,1,results31,001,2026-04-20_14h11.42.984,mogelijke versie adaptive staircase builder,,2026.1.3,59.89257667401877,2026-04-20 14h11.43.317523 +0200,
4.5,ecc10pos,left,53,0,53,j,0,2.1252717999996094,None,0,0,0,0,53,0,53,0,693.5944307999998,,,,,,,,,,,,,,,693.5837184000011,693.5944307999998,693.5944307999998,693.5944307999998,694.4924537999996,695.7262330000012,j,0,2.1252717999996094,None,left,19,"[20, 16, 19, 17, 18, 17, 18, 17, 18, 17, 18, 17, 19, 18, 19, 17, 20, 19, 20, 18, 20, 19, 20, 18, 20, 17, 20, 19]",28,shiftedgaze_L_19.png,j,0,1,results31,001,2026-04-20_14h11.42.984,mogelijke versie adaptive staircase builder,,2026.1.3,59.89257667401877,2026-04-20 14h11.43.317523 +0200,
4.5,ecc10pos,left,54,0,54,j,1,1.7736134999995556,None,0,0,0,0,54,0,54,0,695.8428444000001,,,,,,,,,,,,,,,695.8318877000002,695.8428444000001,695.8428444000001,695.8428444000001,696.7261904999996,697.6262595999997,j,1,1.7736134999995556,None,direct,20,"[20, 16, 19, 17, 18, 17, 18, 17, 18, 17, 18, 17, 19, 18, 19, 17, 20, 19, 20, 18, 20, 19, 20, 18, 20, 17, 20, 19, 20]",29,shifteddirectgaze.png,j,1,1,results31,001,2026-04-20_14h11.42.984,mogelijke versie adaptive staircase builder,,2026.1.3,59.89257667401877,2026-04-20 14h11.43.317523 +0200,
4.5,ecc10pos,left,55,0,55,j,1,1.9652072000008047,None,0,0,0,0,55,0,55,0,697.7226766000003,,,,,,,,,,,,,,,697.7118854,697.7226766000003,697.7226766000003,697.7226766000003,698.6257669000006,699.6927886000012,j,1,1.9652072000008047,None,direct,19,"[20, 16, 19, 17, 18, 17, 18, 17, 18, 17, 18, 17, 19, 18, 19, 17, 20, 19, 20, 18, 20, 19, 20, 18, 20, 17, 20, 19, 20]",29,shifteddirectgaze.png,j,1,1,results31,001,2026-04-20_14h11.42.984,mogelijke versie adaptive staircase builder,,2026.1.3,59.89257667401877,2026-04-20 14h11.43.317523 +0200,
4.5,ecc10pos,left,56,0,56,f,1,2.4383603999995103,None,0,0,0,0,56,0,56,0,699.825553300001,,,,,,,,,,,,,,,699.8136281000006,699.825553300001,699.825553300001,699.825553300001,700.6925030000002,702.2762072000005,f,1,2.4383603999995103,None,left,18,"[20, 16, 19, 17, 18, 17, 18, 17, 18, 17, 18, 17, 19, 18, 19, 17, 20, 19, 20, 18, 20, 19, 20, 18, 20, 17, 20, 19, 20]",29,shiftedgaze_L_18.png,f,1,1,results31,001,2026-04-20_14h11.42.984,mogelijke versie adaptive staircase builder,,2026.1.3,59.89257667401877,2026-04-20 14h11.43.317523 +0200,
4.5,ecc10pos,left,57,0,57,f,1,2.480824799999027,None,0,0,0,0,57,0,57,0,702.3990289000012,,,,,,,,,,,,,,,702.3881226000012,702.3990289000012,702.3990289000012,702.3990289000012,703.275784200001,704.8930811999999,f,1,2.480824799999027,None,right,17,"[20, 16, 19, 17, 18, 17, 18, 17, 18, 17, 18, 17, 19, 18, 19, 17, 20, 19, 20, 18, 20, 19, 20, 18, 20, 17, 20, 19, 20]",29,shiftedgaze_R_17.png,f,1,1,results31,001,2026-04-20_14h11.42.984,mogelijke versie adaptive staircase builder,,2026.1.3,59.89257667401877,2026-04-20 14h11.43.317523 +0200,
4.5,ecc10pos,left,58,0,58,f,0,2.1686018999989756,None,0,0,0,0,58,0,58,0,704.9912561000001,,,,,,,,,,,,,,,704.9804841000005,704.9912561000001,704.9912561000001,704.9912561000001,705.8924642000002,707.1760321000002,f,0,2.1686018999989756,None,direct,16,"[20, 16, 19, 17, 18, 17, 18, 17, 18, 17, 18, 17, 19, 18, 19, 17, 20, 19, 20, 18, 20, 19, 20, 18, 20, 17, 20, 19, 20, 16]",30,shifteddirectgaze.png,f,0,1,results31,001,2026-04-20_14h11.42.984,mogelijke versie adaptive staircase builder,,2026.1.3,59.89257667401877,2026-04-20 14h11.43.317523 +0200,
4.5,ecc10pos,left,59,0,59,j,0,1.5144497000001138,None,0,0,0,0,59,0,59,0,707.3094825000007,,,,,,,,,,,,,,,707.2979223000002,707.3094825000007,707.3094825000007,707.3094825000007,708.175660500001,708.8260117000009,j,0,1.5144497000001138,None,left,17,"[20, 16, 19, 17, 18, 17, 18, 17, 18, 17, 18, 17, 19, 18, 19, 17, 20, 19, 20, 18, 20, 19, 20, 18, 20, 17, 20, 19, 20, 16]",30,shiftedgaze_L_17.png,j,0,1,results31,001,2026-04-20_14h11.42.984,mogelijke versie adaptive staircase builder,,2026.1.3,59.89257667401877,2026-04-20 14h11.43.317523 +0200,
4.5,ecc10pos,left,0,0,0,,,,,0,0,0,0,,,,,,,,,,,,,,,,,,,,,,,,,,,,,,,,,,,,,,results31,001,2026-04-20_14h11.42.984,mogelijke versie adaptive staircase builder,,2026.1.3,59.89257667401877,2026-04-20 14h11.43.317523 +0200,
12.5,ecc0,mid,0,0,0,j,0,2.5686035999988235,None,0,1,1,1,0,0,0,0,708.9673156999997,,,,,,,,,,,,,708.8459819,708.8460288999995,708.9560063999998,708.9673156999997,709.8590636000008,708.9673156999997,708.9673156999997,711.5426468000005,j,0,2.5686035999988235,None,left,20,[],0,gaze_L_20.png,j,0,2,results31,001,2026-04-20_14h11.42.984,mogelijke versie adaptive staircase builder,,2026.1.3,59.89257667401877,2026-04-20 14h11.43.317523 +0200,
12.5,ecc0,mid,1,0,1,j,0,2.6638075999999273,None,0,1,1,1,1,0,1,0,711.6400530999999,,,,,,,,,,,,,,,711.6294428000001,711.6400530999999,712.5422417999998,711.6400530999999,711.6400530999999,714.3094603000009,j,0,2.6638075999999273,None,left,20,[],0,gaze_L_20.png,j,0,2,results31,001,2026-04-20_14h11.42.984,mogelijke versie adaptive staircase builder,,2026.1.3,59.89257667401877,2026-04-20 14h11.43.317523 +0200,
12.5,ecc0,mid,2,0,2,f,1,1.7368882999999187,None,0,1,1,1,2,0,2,0,714.4069661000012,,,,,,,,,,,,,,,714.3960248000003,714.4069661000012,715.3090088999998,714.4069661000012,714.4069661000012,716.159711100001,f,1,1.7368882999999187,None,left,20,[20],1,gaze_L_20.png,f,1,2,results31,001,2026-04-20_14h11.42.984,mogelijke versie adaptive staircase builder,,2026.1.3,59.89257667401877,2026-04-20 14h11.43.317523 +0200,
12.5,ecc0,mid,3,0,3,j,1,2.151979799999026,None,0,1,1,1,3,0,3,0,716.2638145000001,,,,,,,,,,,,,,,716.2530805000006,716.2638145000001,717.159222100001,716.2638145000001,716.2638145000001,718.4259488000007,j,1,2.151979799999026,None,direct,19,[20],1,direct_gaze.png,j,1,2,results31,001,2026-04-20_14h11.42.984,mogelijke versie adaptive staircase builder,,2026.1.3,59.89257667401877,2026-04-20 14h11.43.317523 +0200,
12.5,ecc0,mid,4,0,4,f,1,1.9579879000011715,None,0,1,1,1,4,0,4,0,718.5298557000006,,,,,,,,,,,,,,,718.5188331999998,718.5298557000006,719.4254676,718.5298557000006,718.5298557000006,720.4925862,f,1,1.9579879000011715,None,left,18,[20],1,gaze_L_18.png,f,1,2,results31,001,2026-04-20_14h11.42.984,mogelijke versie adaptive staircase builder,,2026.1.3,59.89257667401877,2026-04-20 14h11.43.317523 +0200,
12.5,ecc0,mid,5,0,5,j,0,3.506192699998792,None,0,1,1,1,5,0,5,0,720.5979120000011,,,,,,,,,,,,,,,720.5866466000007,720.5979120000011,721.4921928000003,720.5979120000011,720.5979120000011,724.1093546000011,j,0,3.506192699998792,None,right,17,"[20, 17]",2,gaze_R_17.png,j,0,2,results31,001,2026-04-20_14h11.42.984,mogelijke versie adaptive staircase builder,,2026.1.3,59.89257667401877,2026-04-20 14h11.43.317523 +0200,
12.5,ecc0,mid,6,0,6,j,1,2.1674500000008265,None,0,1,1,1,6,0,6,0,724.2087474,,,,,,,,,,,,,,,724.1982785,724.2087474,725.1090963000006,724.2087474,724.2087474,726.3927363000003,j,1,2.1674500000008265,None,direct,18,"[20, 17, 18]",3,direct_gaze.png,j,1,2,results31,001,2026-04-20_14h11.42.984,mogelijke versie adaptive staircase builder,,2026.1.3,59.89257667401877,2026-04-20 14h11.43.317523 +0200,
12.5,ecc0,mid,7,0,7,f,0,2.310625699999946,None,0,1,1,1,7,0,7,0,726.5059577000011,,,,,,,,,,,,,,,726.4951261999995,726.5059577000011,727.3924752000003,726.5059577000011,726.5059577000011,728.8262536000002,f,0,2.310625699999946,None,direct,17,"[20, 17, 18, 17]",4,direct_gaze.png,f,0,2,results31,001,2026-04-20_14h11.42.984,mogelijke versie adaptive staircase builder,,2026.1.3,59.89257667401877,2026-04-20 14h11.43.317523 +0200,
12.5,ecc0,mid,8,0,8,j,0,1.8506902000008267,None,0,1,1,1,8,0,8,0,728.9494778999997,,,,,,,,,,,,,,,728.9365802000011,728.9494778999997,729.8256385000004,728.9494778999997,728.9494778999997,730.8097527999998,j,0,1.8506902000008267,None,right,18,"[20, 17, 18, 17]",4,gaze_R_18.png,j,0,2,results31,001,2026-04-20_14h11.42.984,mogelijke versie adaptive staircase builder,,2026.1.3,59.89257667401877,2026-04-20 14h11.43.317523 +0200,
12.5,ecc0,mid,9,0,9,j,0,2.1801464000000124,None,0,1,1,1,9,0,9,0,730.9316505000006,,,,,,,,,,,,,,,730.9209749000001,730.9316505000006,731.808910400001,730.9316505000006,730.9316505000006,733.1260605000007,j,0,2.1801464000000124,None,left,19,"[20, 17, 18, 17]",4,gaze_L_19.png,j,0,2,results31,001,2026-04-20_14h11.42.984,mogelijke versie adaptive staircase builder,,2026.1.3,59.89257667401877,2026-04-20 14h11.43.317523 +0200,
12.5,ecc0,mid,10,0,10,j,0,2.662999599999239,None,0,1,1,1,10,0,10,0,733.2408976999996,,,,,,,,,,,,,,,733.2295911000001,733.2408976999996,734.1255796000005,733.2408976999996,733.2408976999996,735.9093544999996,j,0,2.662999599999239,None,left,20,"[20, 17, 18, 17]",4,gaze_L_20.png,j,0,2,results31,001,2026-04-20_14h11.42.984,mogelijke versie adaptive staircase builder,,2026.1.3,59.89257667401877,2026-04-20 14h11.43.317523 +0200,
12.5,ecc0,mid,11,0,11,f,1,1.8626389000000927,None,0,1,1,1,11,0,11,0,736.033235500001,,,,,,,,,,,,,,,736.0221495999995,736.033235500001,736.9089015000009,736.033235500001,736.033235500001,737.9094990000012,f,1,1.8626389000000927,None,right,20,"[20, 17, 18, 17, 20]",5,gaze_R_20.png,f,1,2,results31,001,2026-04-20_14h11.42.984,mogelijke versie adaptive staircase builder,,2026.1.3,59.89257667401877,2026-04-20 14h11.43.317523 +0200,
12.5,ecc0,mid,12,0,12,j,0,1.910581699999966,None,0,1,1,1,12,0,12,0,738.0331781000004,,,,,,,,,,,,,,,738.0211889000002,738.0331781000004,738.9090735999998,738.0331781000004,738.0331781000004,739.9593794000011,j,0,1.910581699999966,None,right,19,"[20, 17, 18, 17, 20, 19]",6,gaze_R_19.png,j,0,2,results31,001,2026-04-20_14h11.42.984,mogelijke versie adaptive staircase builder,,2026.1.3,59.89257667401877,2026-04-20 14h11.43.317523 +0200,
12.5,ecc0,mid,13,0,13,j,0,1.9630093000014313,None,0,1,1,1,13,0,13,0,740.0769531000005,,,,,,,,,,,,,,,740.0641197000004,740.0769531000005,740.9590519000012,740.0769531000005,740.0769531000005,742.0427643000003,j,0,1.9630093000014313,None,left,20,"[20, 17, 18, 17, 20, 19]",6,gaze_L_20.png,j,0,2,results31,001,2026-04-20_14h11.42.984,mogelijke versie adaptive staircase builder,,2026.1.3,59.89257667401877,2026-04-20 14h11.43.317523 +0200,
12.5,ecc0,mid,14,0,14,f,1,2.1609315000005154,None,0,1,1,1,14,0,14,0,742.1589232999995,,,,,,,,,,,,,,,742.1470413999996,742.1589232999995,743.0421882999999,742.1589232999995,742.1589232999995,744.3259503000008,f,1,2.1609315000005154,None,left,20,"[20, 17, 18, 17, 20, 19, 20]",7,gaze_L_20.png,f,1,2,results31,001,2026-04-20_14h11.42.984,mogelijke versie adaptive staircase builder,,2026.1.3,59.89257667401877,2026-04-20 14h11.43.317523 +0200,
12.5,ecc0,mid,15,0,15,f,1,3.193106100001387,None,0,1,1,1,15,0,15,0,744.439744700001,,,,,,,,,,,,,,,744.4289327999995,744.439744700001,745.3259443000006,744.439744700001,744.439744700001,747.6427617999998,f,1,3.193106100001387,None,right,19,"[20, 17, 18, 17, 20, 19, 20]",7,gaze_R_19.png,f,1,2,results31,001,2026-04-20_14h11.42.984,mogelijke versie adaptive staircase builder,,2026.1.3,59.89257667401877,2026-04-20 14h11.43.317523 +0200,
12.5,ecc0,mid,16,0,16,j,0,1.8100814999997965,None,0,1,1,1,16,0,16,0,747.7578231999996,,,,,,,,,,,,,,,747.7466478000006,747.7578231999996,748.6420696000005,747.7578231999996,747.7578231999996,749.5760253000008,j,0,1.8100814999997965,None,left,18,"[20, 17, 18, 17, 20, 19, 20, 18]",8,gaze_L_18.png,j,0,2,results31,001,2026-04-20_14h11.42.984,mogelijke versie adaptive staircase builder,,2026.1.3,59.89257667401877,2026-04-20 14h11.43.317523 +0200,
12.5,ecc0,mid,17,0,17,j,1,3.326445700000477,None,0,1,1,1,17,0,17,0,749.6901068999996,,,,,,,,,,,,,,,749.6798988999999,749.6901068999996,750.575604900001,749.6901068999996,749.6901068999996,753.0261248999996,j,1,3.326445700000477,None,direct,19,"[20, 17, 18, 17, 20, 19, 20, 18, 19]",9,direct_gaze.png,j,1,2,results31,001,2026-04-20_14h11.42.984,mogelijke versie adaptive staircase builder,,2026.1.3,59.89257667401877,2026-04-20 14h11.43.317523 +0200,
12.5,ecc0,mid,18,0,18,j,1,3.410127499999362,None,0,1,1,1,18,0,18,0,753.1420636000003,,,,,,,,,,,,,,,753.1284315000012,753.1420636000003,754.0256006,753.1420636000003,753.1420636000003,756.5588661000002,j,1,3.410127499999362,None,direct,18,"[20, 17, 18, 17, 20, 19, 20, 18, 19]",9,direct_gaze.png,j,1,2,results31,001,2026-04-20_14h11.42.984,mogelijke versie adaptive staircase builder,,2026.1.3,59.89257667401877,2026-04-20 14h11.43.317523 +0200,
12.5,ecc0,mid,19,0,19,f,0,2.013640299999679,None,0,1,1,1,19,0,19,0,756.6584235999999,,,,,,,,,,,,,,,756.6480833000005,756.6584235999999,757.5582746,756.6584235999999,756.6584235999999,758.6755499999999,f,0,2.013640299999679,None,direct,17,"[20, 17, 18, 17, 20, 19, 20, 18, 19, 17]",10,direct_gaze.png,f,0,2,results31,001,2026-04-20_14h11.42.984,mogelijke versie adaptive staircase builder,,2026.1.3,59.89257667401877,2026-04-20 14h11.43.317523 +0200,
12.5,ecc0,mid,20,0,20,j,0,1.731307599999127,None,0,1,1,1,20,0,20,0,758.7726609000001,,,,,,,,,,,,,,,758.7618237000006,758.7726609000001,759.6752658000005,758.7726609000001,758.7726609000001,760.5086460000002,j,0,1.731307599999127,None,left,18,"[20, 17, 18, 17, 20, 19, 20, 18, 19, 17]",10,gaze_L_18.png,j,0,2,results31,001,2026-04-20_14h11.42.984,mogelijke versie adaptive staircase builder,,2026.1.3,59.89257667401877,2026-04-20 14h11.43.317523 +0200,
12.5,ecc0,mid,21,0,21,j,0,2.240413499999704,None,0,1,1,1,21,0,21,0,760.6075655000004,,,,,,,,,,,,,,,760.5966662999999,760.6075655000004,761.5082968999996,760.6075655000004,760.6075655000004,762.8588013999997,j,0,2.240413499999704,None,right,19,"[20, 17, 18, 17, 20, 19, 20, 18, 19, 17]",10,gaze_R_19.png,j,0,2,results31,001,2026-04-20_14h11.42.984,mogelijke versie adaptive staircase builder,,2026.1.3,59.89257667401877,2026-04-20 14h11.43.317523 +0200,
12.5,ecc0,mid,22,0,22,f,1,1.7552364999992278,None,0,1,1,1,22,0,22,0,762.9567514999999,,,,,,,,,,,,,,,762.9464513000003,762.9567514999999,763.8583708999995,762.9567514999999,762.9567514999999,764.7253165000002,f,1,1.7552364999992278,None,right,20,"[20, 17, 18, 17, 20, 19, 20, 18, 19, 17, 20]",11,gaze_R_20.png,f,1,2,results31,001,2026-04-20_14h11.42.984,mogelijke versie adaptive staircase builder,,2026.1.3,59.89257667401877,2026-04-20 14h11.43.317523 +0200,
12.5,ecc0,mid,23,0,23,f,1,2.627319900000657,None,0,1,1,1,23,0,23,0,764.8215462000007,,,,,,,,,,,,,,,764.8107720999997,764.8215462000007,765.725126700001,764.8215462000007,764.8215462000007,767.4586122000001,f,1,2.627319900000657,None,right,19,"[20, 17, 18, 17, 20, 19, 20, 18, 19, 17, 20]",11,gaze_R_19.png,f,1,2,results31,001,2026-04-20_14h11.42.984,mogelijke versie adaptive staircase builder,,2026.1.3,59.89257667401877,2026-04-20 14h11.43.317523 +0200,
12.5,ecc0,mid,24,0,24,j,0,1.771617200000037,None,0,1,1,1,24,0,24,0,767.5564019000012,,,,,,,,,,,,,,,767.5455980000006,767.5564019000012,768.4580704,767.5564019000012,767.5564019000012,769.3420661,j,0,1.771617200000037,None,right,18,"[20, 17, 18, 17, 20, 19, 20, 18, 19, 17, 20, 18]",12,gaze_R_18.png,j,0,2,results31,001,2026-04-20_14h11.42.984,mogelijke versie adaptive staircase builder,,2026.1.3,59.89257667401877,2026-04-20 14h11.43.317523 +0200,
12.5,ecc0,mid,25,0,25,j,1,2.4322831999998016,None,0,1,1,1,25,0,25,0,769.4396943000011,,,,,,,,,,,,,,,769.4286272999998,769.4396943000011,770.3418351,769.4396943000011,769.4396943000011,771.8752000000004,j,1,2.4322831999998016,None,direct,19,"[20, 17, 18, 17, 20, 19, 20, 18, 19, 17, 20, 18, 19]",13,direct_gaze.png,j,1,2,results31,001,2026-04-20_14h11.42.984,mogelijke versie adaptive staircase builder,,2026.1.3,59.89257667401877,2026-04-20 14h11.43.317523 +0200,
12.5,ecc0,mid,26,0,26,f,0,1.4925803999994969,None,0,1,1,1,26,0,26,0,771.9714033,,,,,,,,,,,,,,,771.9607350999995,771.9714033,772.8747903000003,771.9714033,771.9714033,773.4752105000007,f,0,1.4925803999994969,None,direct,18,"[20, 17, 18, 17, 20, 19, 20, 18, 19, 17, 20, 18, 19, 18]",14,direct_gaze.png,f,0,2,results31,001,2026-04-20_14h11.42.984,mogelijke versie adaptive staircase builder,,2026.1.3,59.89257667401877,2026-04-20 14h11.43.317523 +0200,
12.5,ecc0,mid,27,0,27,f,1,2.4305103000006056,None,0,1,1,1,27,0,27,0,773.5693991999997,,,,,,,,,,,,,,,773.5593738999996,773.5693991999997,774.4750105000003,773.5693991999997,773.5693991999997,776.0087798000004,f,1,2.4305103000006056,None,right,19,"[20, 17, 18, 17, 20, 19, 20, 18, 19, 17, 20, 18, 19, 18, 19]",15,gaze_R_19.png,f,1,2,results31,001,2026-04-20_14h11.42.984,mogelijke versie adaptive staircase builder,,2026.1.3,59.89257667401877,2026-04-20 14h11.43.317523 +0200,
12.5,ecc0,mid,28,0,28,j,0,1.526340500000515,None,0,1,1,1,28,0,28,0,776.1059807000001,,,,,,,,,,,,,,,776.0952546000008,776.1059807000001,777.0081890000001,776.1059807000001,776.1059807000001,777.6417925000005,j,0,1.526340500000515,None,right,18,"[20, 17, 18, 17, 20, 19, 20, 18, 19, 17, 20, 18, 19, 18, 19, 18]",16,gaze_R_18.png,j,0,2,results31,001,2026-04-20_14h11.42.984,mogelijke versie adaptive staircase builder,,2026.1.3,59.89257667401877,2026-04-20 14h11.43.317523 +0200,
12.5,ecc0,mid,29,0,29,j,0,1.9005966000004264,None,0,1,1,1,29,0,29,0,777.7393451999997,,,,,,,,,,,,,,,777.7289540000002,777.7393451999997,778.6415097999998,777.7393451999997,777.7393451999997,779.6417407000008,j,0,1.9005966000004264,None,left,19,"[20, 17, 18, 17, 20, 19, 20, 18, 19, 17, 20, 18, 19, 18, 19, 18]",16,gaze_L_19.png,j,0,2,results31,001,2026-04-20_14h11.42.984,mogelijke versie adaptive staircase builder,,2026.1.3,59.89257667401877,2026-04-20 14h11.43.317523 +0200,
12.5,ecc0,mid,30,0,30,f,1,1.8540271999991091,None,0,1,1,1,30,0,30,0,779.737863100001,,,,,,,,,,,,,,,779.727621,779.737863100001,780.6414751000011,779.737863100001,779.737863100001,781.6084363000009,f,1,1.8540271999991091,None,right,20,"[20, 17, 18, 17, 20, 19, 20, 18, 19, 17, 20, 18, 19, 18, 19, 18, 20]",17,gaze_R_20.png,f,1,2,results31,001,2026-04-20_14h11.42.984,mogelijke versie adaptive staircase builder,,2026.1.3,59.89257667401877,2026-04-20 14h11.43.317523 +0200,
12.5,ecc0,mid,31,0,31,j,0,1.9027483999998367,None,0,1,1,1,31,0,31,0,781.7053942000002,,,,,,,,,,,,,,,781.6942092999998,781.7053942000002,782.6082555000012,781.7053942000002,781.7053942000002,783.6084172999999,j,0,1.9027483999998367,None,right,19,"[20, 17, 18, 17, 20, 19, 20, 18, 19, 17, 20, 18, 19, 18, 19, 18, 20, 19]",18,gaze_R_19.png,j,0,2,results31,001,2026-04-20_14h11.42.984,mogelijke versie adaptive staircase builder,,2026.1.3,59.89257667401877,2026-04-20 14h11.43.317523 +0200,
12.5,ecc0,mid,32,0,32,j,0,2.056380400001217,None,0,1,1,1,32,0,32,0,783.7035608000006,,,,,,,,,,,,,,,783.6931724000005,783.7035608000006,784.6081611999998,783.7035608000006,783.7035608000006,785.7750252999995,j,0,2.056380400001217,None,left,20,"[20, 17, 18, 17, 20, 19, 20, 18, 19, 17, 20, 18, 19, 18, 19, 18, 20, 19]",18,gaze_L_20.png,j,0,2,results31,001,2026-04-20_14h11.42.984,mogelijke versie adaptive staircase builder,,2026.1.3,59.89257667401877,2026-04-20 14h11.43.317523 +0200,
12.5,ecc0,mid,33,0,33,f,1,3.1873113000001467,None,0,1,1,1,33,0,33,0,785.8765937999997,,,,,,,,,,,,,,,785.8660304000005,785.8765937999997,786.7748253999998,785.8765937999997,785.8765937999997,789.0749785000007,f,1,3.1873113000001467,None,right,20,"[20, 17, 18, 17, 20, 19, 20, 18, 19, 17, 20, 18, 19, 18, 19, 18, 20, 19, 20]",19,gaze_R_20.png,f,1,2,results31,001,2026-04-20_14h11.42.984,mogelijke versie adaptive staircase builder,,2026.1.3,59.89257667401877,2026-04-20 14h11.43.317523 +0200,
12.5,ecc0,mid,34,0,34,j,0,1.866801399999531,None,0,1,1,1,34,0,34,0,789.1731123000009,,,,,,,,,,,,,,,789.1620982000004,789.1731123000009,790.0745692,789.1731123000009,789.1731123000009,791.0416568,j,0,1.866801399999531,None,right,19,"[20, 17, 18, 17, 20, 19, 20, 18, 19, 17, 20, 18, 19, 18, 19, 18, 20, 19, 20, 19]",20,gaze_R_19.png,j,0,2,results31,001,2026-04-20_14h11.42.984,mogelijke versie adaptive staircase builder,,2026.1.3,59.89257667401877,2026-04-20 14h11.43.317523 +0200,
12.5,ecc0,mid,35,0,35,j,0,2.374181699999099,None,0,1,1,1,35,0,35,0,791.1377334999997,,,,,,,,,,,,,,,791.1276462999995,791.1377334999997,792.0412228000005,791.1377334999997,791.1377334999997,793.5249365,j,0,2.374181699999099,None,right,20,"[20, 17, 18, 17, 20, 19, 20, 18, 19, 17, 20, 18, 19, 18, 19, 18, 20, 19, 20, 19]",20,gaze_R_20.png,j,0,2,results31,001,2026-04-20_14h11.42.984,mogelijke versie adaptive staircase builder,,2026.1.3,59.89257667401877,2026-04-20 14h11.43.317523 +0200,
12.5,ecc0,mid,36,0,36,f,1,2.3384896000006847,None,0,1,1,1,36,0,36,0,793.6213618000002,,,,,,,,,,,,,,,793.6106966999996,793.6213618000002,794.5245202000006,793.6213618000002,793.6213618000002,795.9751061000006,f,1,2.3384896000006847,None,left,20,"[20, 17, 18, 17, 20, 19, 20, 18, 19, 17, 20, 18, 19, 18, 19, 18, 20, 19, 20, 19, 20]",21,gaze_L_20.png,f,1,2,results31,001,2026-04-20_14h11.42.984,mogelijke versie adaptive staircase builder,,2026.1.3,59.89257667401877,2026-04-20 14h11.43.317523 +0200,
12.5,ecc0,mid,37,0,37,j,0,2.2211640999994415,None,0,1,1,1,37,0,37,0,796.0747537000007,,,,,,,,,,,,,,,796.0645189000006,796.0747537000007,796.9747291000003,796.0747537000007,796.0747537000007,798.3081953000001,j,0,2.2211640999994415,None,right,19,"[20, 17, 18, 17, 20, 19, 20, 18, 19, 17, 20, 18, 19, 18, 19, 18, 20, 19, 20, 19, 20, 19]",22,gaze_R_19.png,j,0,2,results31,001,2026-04-20_14h11.42.984,mogelijke versie adaptive staircase builder,,2026.1.3,59.89257667401877,2026-04-20 14h11.43.317523 +0200,
12.5,ecc0,mid,38,0,38,j,0,1.452682500001174,None,0,1,1,1,38,0,38,0,798.4032738999995,,,,,,,,,,,,,,,798.3934633999997,798.4032738999995,799.3078110999995,798.4032738999995,798.4032738999995,799.8581032000002,j,0,1.452682500001174,None,left,20,"[20, 17, 18, 17, 20, 19, 20, 18, 19, 17, 20, 18, 19, 18, 19, 18, 20, 19, 20, 19, 20, 19]",22,gaze_L_20.png,j,0,2,results31,001,2026-04-20_14h11.42.984,mogelijke versie adaptive staircase builder,,2026.1.3,59.89257667401877,2026-04-20 14h11.43.317523 +0200,
12.5,ecc0,mid,39,0,39,f,1,1.8045144000006985,None,0,1,1,1,39,0,39,0,799.9553749000006,,,,,,,,,,,,,,,799.944184,799.9553749000006,800.8577716,799.9553749000006,799.9553749000006,801.7747861000007,f,1,1.8045144000006985,None,right,20,"[20, 17, 18, 17, 20, 19, 20, 18, 19, 17, 20, 18, 19, 18, 19, 18, 20, 19, 20, 19, 20, 19, 20]",23,gaze_R_20.png,f,1,2,results31,001,2026-04-20_14h11.42.984,mogelijke versie adaptive staircase builder,,2026.1.3,59.89257667401877,2026-04-20 14h11.43.317523 +0200,
12.5,ecc0,mid,40,0,40,j,1,1.720885000000635,None,0,1,1,1,40,0,40,0,801.8710064999996,,,,,,,,,,,,,,,801.860679200001,801.8710064999996,802.7744275000005,801.8710064999996,801.8710064999996,803.6081513999998,j,1,1.720885000000635,None,direct,19,"[20, 17, 18, 17, 20, 19, 20, 18, 19, 17, 20, 18, 19, 18, 19, 18, 20, 19, 20, 19, 20, 19, 20]",23,direct_gaze.png,j,1,2,results31,001,2026-04-20_14h11.42.984,mogelijke versie adaptive staircase builder,,2026.1.3,59.89257667401877,2026-04-20 14h11.43.317523 +0200,
12.5,ecc0,mid,41,0,41,j,0,1.679699599999367,None,0,1,1,1,41,0,41,0,803.7041618000003,,,,,,,,,,,,,,,803.693266100001,803.7041618000003,804.6079451000005,803.7041618000003,803.7041618000003,805.3915324999998,j,0,1.679699599999367,None,left,18,"[20, 17, 18, 17, 20, 19, 20, 18, 19, 17, 20, 18, 19, 18, 19, 18, 20, 19, 20, 19, 20, 19, 20, 18]",24,gaze_L_18.png,j,0,2,results31,001,2026-04-20_14h11.42.984,mogelijke versie adaptive staircase builder,,2026.1.3,59.89257667401877,2026-04-20 14h11.43.317523 +0200,
12.5,ecc0,mid,42,0,42,f,0,1.50973569999951,None,0,1,1,1,42,0,42,0,805.4902956000005,,,,,,,,,,,,,,,805.479376700001,805.4902956000005,806.3911074999996,805.4902956000005,805.4902956000005,807.0082000000002,f,0,1.50973569999951,None,direct,19,"[20, 17, 18, 17, 20, 19, 20, 18, 19, 17, 20, 18, 19, 18, 19, 18, 20, 19, 20, 19, 20, 19, 20, 18]",24,direct_gaze.png,f,0,2,results31,001,2026-04-20_14h11.42.984,mogelijke versie adaptive staircase builder,,2026.1.3,59.89257667401877,2026-04-20 14h11.43.317523 +0200,
12.5,ecc0,mid,43,0,43,j,0,2.3178972999994585,None,0,1,1,1,43,0,43,0,807.1059990000012,,,,,,,,,,,,,,,807.0956189999997,807.1059990000012,808.0076319,807.1059990000012,807.1059990000012,809.4247255000009,j,0,2.3178972999994585,None,right,20,"[20, 17, 18, 17, 20, 19, 20, 18, 19, 17, 20, 18, 19, 18, 19, 18, 20, 19, 20, 19, 20, 19, 20, 18]",24,gaze_R_20.png,j,0,2,results31,001,2026-04-20_14h11.42.984,mogelijke versie adaptive staircase builder,,2026.1.3,59.89257667401877,2026-04-20 14h11.43.317523 +0200,
12.5,ecc0,mid,44,0,44,f,1,2.1817618000004586,None,0,1,1,1,44,0,44,0,809.5221995000011,,,,,,,,,,,,,,,809.5114695000011,809.5221995000011,810.4242852000007,809.5221995000011,809.5221995000011,811.7080134000007,f,1,2.1817618000004586,None,left,20,"[20, 17, 18, 17, 20, 19, 20, 18, 19, 17, 20, 18, 19, 18, 19, 18, 20, 19, 20, 19, 20, 19, 20, 18, 20]",25,gaze_L_20.png,f,1,2,results31,001,2026-04-20_14h11.42.984,mogelijke versie adaptive staircase builder,,2026.1.3,59.89257667401877,2026-04-20 14h11.43.317523 +0200,
12.5,ecc0,mid,45,0,45,j,1,2.03603430000112,None,0,1,1,1,45,0,45,0,811.8040199000006,,,,,,,,,,,,,,,811.7933709999998,811.8040199000006,812.7076713000006,811.8040199000006,811.8040199000006,813.8412769999995,j,1,2.03603430000112,None,direct,19,"[20, 17, 18, 17, 20, 19, 20, 18, 19, 17, 20, 18, 19, 18, 19, 18, 20, 19, 20, 19, 20, 19, 20, 18, 20]",25,direct_gaze.png,j,1,2,results31,001,2026-04-20_14h11.42.984,mogelijke versie adaptive staircase builder,,2026.1.3,59.89257667401877,2026-04-20 14h11.43.317523 +0200,
12.5,ecc0,mid,46,0,46,j,0,1.6871227999999974,None,0,1,1,1,46,0,46,0,813.9369016,,,,,,,,,,,,,,,813.9268628999998,813.9369016,814.8409738999999,813.9369016,813.9369016,815.6248821000008,j,0,1.6871227999999974,None,left,18,"[20, 17, 18, 17, 20, 19, 20, 18, 19, 17, 20, 18, 19, 18, 19, 18, 20, 19, 20, 19, 20, 19, 20, 18, 20, 18]",26,gaze_L_18.png,j,0,2,results31,001,2026-04-20_14h11.42.984,mogelijke versie adaptive staircase builder,,2026.1.3,59.89257667401877,2026-04-20 14h11.43.317523 +0200,
12.5,ecc0,mid,47,0,47,f,0,1.9016458000005514,None,0,1,1,1,47,0,47,0,815.7224497000007,,,,,,,,,,,,,,,815.7112561000013,815.7224497000007,816.6243204000002,815.7224497000007,815.7224497000007,817.6245534999998,f,0,1.9016458000005514,None,direct,19,"[20, 17, 18, 17, 20, 19, 20, 18, 19, 17, 20, 18, 19, 18, 19, 18, 20, 19, 20, 19, 20, 19, 20, 18, 20, 18]",26,direct_gaze.png,f,0,2,results31,001,2026-04-20_14h11.42.984,mogelijke versie adaptive staircase builder,,2026.1.3,59.89257667401877,2026-04-20 14h11.43.317523 +0200,
12.5,ecc0,mid,48,0,48,f,1,1.6372479000001476,None,0,1,1,1,48,0,48,0,817.7226835000001,,,,,,,,,,,,,,,817.7124365,817.7226835000001,818.6242249999996,817.7226835000001,817.7226835000001,819.374762200001,f,1,1.6372479000001476,None,left,20,"[20, 17, 18, 17, 20, 19, 20, 18, 19, 17, 20, 18, 19, 18, 19, 18, 20, 19, 20, 19, 20, 19, 20, 18, 20, 18, 20]",27,gaze_L_20.png,f,1,2,results31,001,2026-04-20_14h11.42.984,mogelijke versie adaptive staircase builder,,2026.1.3,59.89257667401877,2026-04-20 14h11.43.317523 +0200,
12.5,ecc0,mid,49,0,49,j,1,1.846726799998578,None,0,1,1,1,49,0,49,0,819.4732055000004,,,,,,,,,,,,,,,819.4626960000005,819.4732055000004,820.3741823,819.4732055000004,819.4732055000004,821.3245329000001,j,1,1.846726799998578,None,direct,19,"[20, 17, 18, 17, 20, 19, 20, 18, 19, 17, 20, 18, 19, 18, 19, 18, 20, 19, 20, 19, 20, 19, 20, 18, 20, 18, 20]",27,direct_gaze.png,j,1,2,results31,001,2026-04-20_14h11.42.984,mogelijke versie adaptive staircase builder,,2026.1.3,59.89257667401877,2026-04-20 14h11.43.317523 +0200,
12.5,ecc0,mid,50,0,50,j,0,1.6340311999992991,None,0,1,1,1,50,0,50,0,821.4218228999998,,,,,,,,,,,,,,,821.4106592999997,821.4218228999998,822.3243865000004,821.4218228999998,821.4218228999998,823.0577864000006,j,0,1.6340311999992991,None,left,18,"[20, 17, 18, 17, 20, 19, 20, 18, 19, 17, 20, 18, 19, 18, 19, 18, 20, 19, 20, 19, 20, 19, 20, 18, 20, 18, 20, 18]",28,gaze_L_18.png,j,0,2,results31,001,2026-04-20_14h11.42.984,mogelijke versie adaptive staircase builder,,2026.1.3,59.89257667401877,2026-04-20 14h11.43.317523 +0200,
12.5,ecc0,mid,51,0,51,f,0,3.13899180000044,None,0,1,1,1,51,0,51,0,823.1569357999997,,,,,,,,,,,,,,,823.1455709000002,823.1569357999997,824.0574816000008,823.1569357999997,823.1569357999997,826.3078322000001,f,0,3.13899180000044,None,direct,19,"[20, 17, 18, 17, 20, 19, 20, 18, 19, 17, 20, 18, 19, 18, 19, 18, 20, 19, 20, 19, 20, 19, 20, 18, 20, 18, 20, 18]",28,direct_gaze.png,f,0,2,results31,001,2026-04-20_14h11.42.984,mogelijke versie adaptive staircase builder,,2026.1.3,59.89257667401877,2026-04-20 14h11.43.317523 +0200,
12.5,ecc0,mid,52,0,52,j,1,3.2647704999999405,None,0,1,1,1,52,0,52,0,826.4071934000003,,,,,,,,,,,,,,,826.3961323000003,826.4071934000003,827.3073827999997,826.4071934000003,826.4071934000003,829.6745119999996,j,1,3.2647704999999405,None,direct,20,"[20, 17, 18, 17, 20, 19, 20, 18, 19, 17, 20, 18, 19, 18, 19, 18, 20, 19, 20, 19, 20, 19, 20, 18, 20, 18, 20, 18, 20]",29,direct_gaze.png,j,1,2,results31,001,2026-04-20_14h11.42.984,mogelijke versie adaptive staircase builder,,2026.1.3,59.89257667401877,2026-04-20 14h11.43.317523 +0200,
12.5,ecc0,mid,53,0,53,f,1,2.930835700000898,None,0,1,1,1,53,0,53,0,829.7730857000006,,,,,,,,,,,,,,,829.7626356000001,829.7730857000006,830.6742190000004,829.7730857000006,829.7730857000006,832.7077929000006,f,1,2.930835700000898,None,right,19,"[20, 17, 18, 17, 20, 19, 20, 18, 19, 17, 20, 18, 19, 18, 19, 18, 20, 19, 20, 19, 20, 19, 20, 18, 20, 18, 20, 18, 20]",29,gaze_R_19.png,f,1,2,results31,001,2026-04-20_14h11.42.984,mogelijke versie adaptive staircase builder,,2026.1.3,59.89257667401877,2026-04-20 14h11.43.317523 +0200,
12.5,ecc0,mid,54,0,54,j,0,1.7546143999989,None,0,1,1,1,54,0,54,0,832.805325700001,,,,,,,,,,,,,,,832.7947796999997,832.805325700001,833.7073455999998,832.805325700001,832.805325700001,834.5743670000011,j,0,1.7546143999989,None,right,18,"[20, 17, 18, 17, 20, 19, 20, 18, 19, 17, 20, 18, 19, 18, 19, 18, 20, 19, 20, 19, 20, 19, 20, 18, 20, 18, 20, 18, 20, 18]",30,gaze_R_18.png,j,0,2,results31,001,2026-04-20_14h11.42.984,mogelijke versie adaptive staircase builder,,2026.1.3,59.89257667401877,2026-04-20 14h11.43.317523 +0200,
12.5,ecc0,mid,55,0,55,j,1,1.5915593000008812,None,0,1,1,1,55,0,55,0,834.6729078999997,,,,,,,,,,,,,,,834.6621083000009,834.6729078999997,835.5739835000004,834.6729078999997,834.6729078999997,836.2742333999995,j,1,1.5915593000008812,None,direct,19,"[20, 17, 18, 17, 20, 19, 20, 18, 19, 17, 20, 18, 19, 18, 19, 18, 20, 19, 20, 19, 20, 19, 20, 18, 20, 18, 20, 18, 20, 18, 19]",31,direct_gaze.png,j,1,2,results31,001,2026-04-20_14h11.42.984,mogelijke versie adaptive staircase builder,,2026.1.3,59.89257667401877,2026-04-20 14h11.43.317523 +0200,
12.5,ecc0,mid,56,0,56,j,0,1.8275673999996798,None,0,1,1,1,56,0,56,0,836.3723637000003,,,,,,,,,,,,,,,836.3617738000012,836.3723637000003,837.2742866000008,836.3723637000003,836.3723637000003,838.2076752000012,j,0,1.8275673999996798,None,left,18,"[20, 17, 18, 17, 20, 19, 20, 18, 19, 17, 20, 18, 19, 18, 19, 18, 20, 19, 20, 19, 20, 19, 20, 18, 20, 18, 20, 18, 20, 18, 19, 18]",32,gaze_L_18.png,j,0,2,results31,001,2026-04-20_14h11.42.984,mogelijke versie adaptive staircase builder,,2026.1.3,59.89257667401877,2026-04-20 14h11.43.317523 +0200,
12.5,ecc0,mid,57,0,57,f,1,2.0600556999997934,None,0,1,1,1,57,0,57,0,838.3078255,,,,,,,,,,,,,,,838.2970913999998,838.3078255,839.2072742,838.3078255,838.3078255,840.3743446000008,f,1,2.0600556999997934,None,left,19,"[20, 17, 18, 17, 20, 19, 20, 18, 19, 17, 20, 18, 19, 18, 19, 18, 20, 19, 20, 19, 20, 19, 20, 18, 20, 18, 20, 18, 20, 18, 19, 18, 19]",33,gaze_L_19.png,f,1,2,results31,001,2026-04-20_14h11.42.984,mogelijke versie adaptive staircase builder,,2026.1.3,59.89257667401877,2026-04-20 14h11.43.317523 +0200,
12.5,ecc0,mid,58,0,58,f,0,1.6860285000002477,None,0,1,1,1,58,0,58,0,840.4738942000004,,,,,,,,,,,,,,,840.4624936,840.4738942000004,841.3738346000009,840.4738942000004,840.4738942000004,842.1742386000005,f,0,1.6860285000002477,None,direct,18,"[20, 17, 18, 17, 20, 19, 20, 18, 19, 17, 20, 18, 19, 18, 19, 18, 20, 19, 20, 19, 20, 19, 20, 18, 20, 18, 20, 18, 20, 18, 19, 18, 19, 18]",34,direct_gaze.png,f,0,2,results31,001,2026-04-20_14h11.42.984,mogelijke versie adaptive staircase builder,,2026.1.3,59.89257667401877,2026-04-20 14h11.43.317523 +0200,
12.5,ecc0,mid,59,0,59,j,0,1.9371238999992784,None,0,1,1,1,59,0,59,0,842.2707714999997,,,,,,,,,,,,,,,842.2606350000005,842.2707714999997,843.1738506000002,842.2707714999997,842.2707714999997,844.2242767000007,j,0,1.9371238999992784,None,right,19,"[20, 17, 18, 17, 20, 19, 20, 18, 19, 17, 20, 18, 19, 18, 19, 18, 20, 19, 20, 19, 20, 19, 20, 18, 20, 18, 20, 18, 20, 18, 19, 18, 19, 18]",34,gaze_R_19.png,j,0,2,results31,001,2026-04-20_14h11.42.984,mogelijke versie adaptive staircase builder,,2026.1.3,59.89257667401877,2026-04-20 14h11.43.317523 +0200,
12.5,ecc0,mid,1,1,0,,,,,0,1,1,1,,,,,,,,,,,,,,,,,,,,,,,,,,,,,,,,,,,,,,results31,001,2026-04-20_14h11.42.984,mogelijke versie adaptive staircase builder,,2026.1.3,59.89257667401877,2026-04-20 14h11.43.317523 +0200,
20.5,ecc10neg,right,0,0,0,f,1,1.7919048000003386,None,0,2,2,2,0,0,0,0,844.3600242000011,,,,,,,,,,,,,844.2267236999996,844.2267587999995,844.3486583000013,844.3600242000011,844.3600242000011,845.2406128000002,844.3600242000011,846.1574551000012,f,1,1.7919048000003386,None,right,20,[],0,shiftedgaze_R_20.png,f,1,3,results31,001,2026-04-20_14h11.42.984,mogelijke versie adaptive staircase builder,,2026.1.3,59.89257667401877,2026-04-20 14h11.43.317523 +0200,
20.5,ecc10neg,right,1,0,1,j,1,2.2381499000002805,None,0,2,2,2,1,0,1,0,846.2897929999999,,,,,,,,,,,,,,,846.2783844000005,846.2897929999999,846.2897929999999,847.1571084000007,846.2897929999999,848.5408953000006,j,1,2.2381499000002805,None,direct,19,[],0,shifteddirectgaze.png,j,1,3,results31,001,2026-04-20_14h11.42.984,mogelijke versie adaptive staircase builder,,2026.1.3,59.89257667401877,2026-04-20 14h11.43.317523 +0200,
20.5,ecc10neg,right,2,0,2,f,1,1.996638199998415,None,0,2,2,2,2,0,2,0,848.6752921000007,,,,,,,,,,,,,,,848.6636469000005,848.6752921000007,848.6752921000007,849.5405214000002,848.6752921000007,850.6742037000004,f,1,1.996638199998415,None,right,18,[],0,shiftedgaze_R_18.png,f,1,3,results31,001,2026-04-20_14h11.42.984,mogelijke versie adaptive staircase builder,,2026.1.3,59.89257667401877,2026-04-20 14h11.43.317523 +0200,
20.5,ecc10neg,right,3,0,3,j,1,3.29577529999915,None,0,2,2,2,3,0,3,0,850.7921461999995,,,,,,,,,,,,,,,850.7811739999997,850.7921461999995,850.7921461999995,851.6737566000011,850.7921461999995,854.0908018000009,j,1,3.29577529999915,None,direct,17,[],0,shifteddirectgaze.png,j,1,3,results31,001,2026-04-20_14h11.42.984,mogelijke versie adaptive staircase builder,,2026.1.3,59.89257667401877,2026-04-20 14h11.43.317523 +0200,
20.5,ecc10neg,right,4,0,4,j,0,2.9250431999989814,None,0,2,2,2,4,0,4,0,854.1948886000009,,,,,,,,,,,,,,,854.1842756000005,854.1948886000009,854.1948886000009,855.090508700001,854.1948886000009,857.1243113,j,0,2.9250431999989814,None,left,16,[16],1,shiftedgaze_L_16.png,j,0,3,results31,001,2026-04-20_14h11.42.984,mogelijke versie adaptive staircase builder,,2026.1.3,59.89257667401877,2026-04-20 14h11.43.317523 +0200,
20.5,ecc10neg,right,5,0,5,f,1,2.3974687000009,None,0,2,2,2,5,0,5,0,857.2344556000007,,,,,,,,,,,,,,,857.2230534999999,857.2344556000007,857.2344556000007,858.140365700001,857.2344556000007,859.6405671000011,f,1,2.3974687000009,None,left,17,"[16, 17]",2,shiftedgaze_L_17.png,f,1,3,results31,001,2026-04-20_14h11.42.984,mogelijke versie adaptive staircase builder,,2026.1.3,59.89257667401877,2026-04-20 14h11.43.317523 +0200,
20.5,ecc10neg,right,6,0,6,j,0,1.763069099999484,None,0,2,2,2,6,0,6,0,859.7328871000009,,,,,,,,,,,,,,,859.7224593999999,859.7328871000009,859.7328871000009,860.6403203999998,859.7328871000009,861.507323400001,j,0,1.763069099999484,None,left,16,"[16, 17, 16]",3,shiftedgaze_L_16.png,j,0,3,results31,001,2026-04-20_14h11.42.984,mogelijke versie adaptive staircase builder,,2026.1.3,59.89257667401877,2026-04-20 14h11.43.317523 +0200,
20.5,ecc10neg,right,7,0,7,f,1,1.8265293000004021,None,0,2,2,2,7,0,7,0,861.6295862999996,,,,,,,,,,,,,,,861.6174871000003,861.6295862999996,861.6295862999996,862.5068216,861.6295862999996,863.4573741000004,f,1,1.8265293000004021,None,right,17,"[16, 17, 16, 17]",4,shiftedgaze_R_17.png,f,1,3,results31,001,2026-04-20_14h11.42.984,mogelijke versie adaptive staircase builder,,2026.1.3,59.89257667401877,2026-04-20 14h11.43.317523 +0200,
20.5,ecc10neg,right,8,0,8,j,0,1.488605099999404,None,0,2,2,2,8,0,8,0,863.5592378000001,,,,,,,,,,,,,,,863.5475858999998,863.5592378000001,863.5592378000001,864.4568637000011,863.5592378000001,865.0573452000008,j,0,1.488605099999404,None,right,16,"[16, 17, 16, 17, 16]",5,shiftedgaze_R_16.png,j,0,3,results31,001,2026-04-20_14h11.42.984,mogelijke versie adaptive staircase builder,,2026.1.3,59.89257667401877,2026-04-20 14h11.43.317523 +0200,
20.5,ecc10neg,right,9,0,9,j,1,1.3911755999997695,None,0,2,2,2,9,0,9,0,865.1687000000002,,,,,,,,,,,,,,,865.1573222000006,865.1687000000002,865.1687000000002,866.0569403999998,865.1687000000002,866.5739131999999,j,1,1.3911755999997695,None,direct,17,"[16, 17, 16, 17, 16, 17]",6,shifteddirectgaze.png,j,1,3,results31,001,2026-04-20_14h11.42.984,mogelijke versie adaptive staircase builder,,2026.1.3,59.89257667401877,2026-04-20 14h11.43.317523 +0200,
20.5,ecc10neg,right,10,0,10,f,0,2.5918931999985944,None,0,2,2,2,10,0,10,0,866.6641634000007,,,,,,,,,,,,,,,866.6528204999995,866.6641634000007,866.6641634000007,867.5735717999996,866.6641634000007,869.2573157999996,f,0,2.5918931999985944,None,direct,16,"[16, 17, 16, 17, 16, 17, 16]",7,shifteddirectgaze.png,f,0,3,results31,001,2026-04-20_14h11.42.984,mogelijke versie adaptive staircase builder,,2026.1.3,59.89257667401877,2026-04-20 14h11.43.317523 +0200,
20.5,ecc10neg,right,11,0,11,j,0,1.46964669999943,None,0,2,2,2,11,0,11,0,869.3462465000011,,,,,,,,,,,,,,,869.3352016000008,869.3462465000011,869.3462465000011,870.2568300000003,869.3462465000011,870.8237621999997,j,0,1.46964669999943,None,left,17,"[16, 17, 16, 17, 16, 17, 16]",7,shiftedgaze_L_17.png,j,0,3,results31,001,2026-04-20_14h11.42.984,mogelijke versie adaptive staircase builder,,2026.1.3,59.89257667401877,2026-04-20 14h11.43.317523 +0200,
20.5,ecc10neg,right,12,0,12,j,0,1.5174793999995018,None,0,2,2,2,12,0,12,0,870.9385577000012,,,,,,,,,,,,,,,870.9268326000001,870.9385577000012,870.9385577000012,871.8233904000008,870.9385577000012,872.4571727000002,j,0,1.5174793999995018,None,right,18,"[16, 17, 16, 17, 16, 17, 16]",7,shiftedgaze_R_18.png,j,0,3,results31,001,2026-04-20_14h11.42.984,mogelijke versie adaptive staircase builder,,2026.1.3,59.89257667401877,2026-04-20 14h11.43.317523 +0200,
20.5,ecc10neg,right,13,0,13,f,0,1.5390258000006725,None,0,2,2,2,13,0,13,0,872.5650275999997,,,,,,,,,,,,,,,872.5539547000008,872.5650275999997,872.5650275999997,873.4568257999999,872.5650275999997,874.1071661000005,f,0,1.5390258000006725,None,direct,19,"[16, 17, 16, 17, 16, 17, 16]",7,shifteddirectgaze.png,f,0,3,results31,001,2026-04-20_14h11.42.984,mogelijke versie adaptive staircase builder,,2026.1.3,59.89257667401877,2026-04-20 14h11.43.317523 +0200,
20.5,ecc10neg,right,14,0,14,j,0,1.368821799998841,None,0,2,2,2,14,0,14,0,874.2072337999998,,,,,,,,,,,,,,,874.1962614000004,874.2072337999998,874.2072337999998,875.1067118999999,874.2072337999998,875.5904437000008,j,0,1.368821799998841,None,left,20,"[16, 17, 16, 17, 16, 17, 16]",7,shiftedgaze_L_20.png,j,0,3,results31,001,2026-04-20_14h11.42.984,mogelijke versie adaptive staircase builder,,2026.1.3,59.89257667401877,2026-04-20 14h11.43.317523 +0200,
20.5,ecc10neg,right,15,0,15,j,0,1.5272137000010844,None,0,2,2,2,15,0,15,0,875.6806821999999,,,,,,,,,,,,,,,875.6701145000006,875.6806821999999,875.6806821999999,876.5900268000005,875.6806821999999,877.2238979000012,j,0,1.5272137000010844,None,left,20,"[16, 17, 16, 17, 16, 17, 16]",7,shiftedgaze_L_20.png,j,0,3,results31,001,2026-04-20_14h11.42.984,mogelijke versie adaptive staircase builder,,2026.1.3,59.89257667401877,2026-04-20 14h11.43.317523 +0200,
20.5,ecc10neg,right,16,0,16,f,1,1.8669487999995908,None,0,2,2,2,16,0,16,0,877.3409592000007,,,,,,,,,,,,,,,877.3293517000002,877.3409592000007,877.3409592000007,878.2234507000012,877.3409592000007,879.2237612999998,f,1,1.8669487999995908,None,right,20,"[16, 17, 16, 17, 16, 17, 16, 20]",8,shiftedgaze_R_20.png,f,1,3,results31,001,2026-04-20_14h11.42.984,mogelijke versie adaptive staircase builder,,2026.1.3,59.89257667401877,2026-04-20 14h11.43.317523 +0200,
20.5,ecc10neg,right,17,0,17,f,0,1.9707928999996511,None,0,2,2,2,17,0,17,0,879.333188300001,,,,,,,,,,,,,,,879.3214102000002,879.333188300001,879.333188300001,880.2233591000004,879.333188300001,881.3070100000004,f,0,1.9707928999996511,None,direct,19,"[16, 17, 16, 17, 16, 17, 16, 20, 19]",9,shifteddirectgaze.png,f,0,3,results31,001,2026-04-20_14h11.42.984,mogelijke versie adaptive staircase builder,,2026.1.3,59.89257667401877,2026-04-20 14h11.43.317523 +0200,
20.5,ecc10neg,right,18,0,18,f,1,1.7535098000007565,None,0,2,2,2,18,0,18,0,881.4225446,,,,,,,,,,,,,,,881.4107609000002,881.4225446,881.4225446,882.3067271,881.4225446,883.1904422000007,f,1,1.7535098000007565,None,right,20,"[16, 17, 16, 17, 16, 17, 16, 20, 19, 20]",10,shiftedgaze_R_20.png,f,1,3,results31,001,2026-04-20_14h11.42.984,mogelijke versie adaptive staircase builder,,2026.1.3,59.89257667401877,2026-04-20 14h11.43.317523 +0200,
20.5,ecc10neg,right,19,0,19,j,0,1.468109800000093,None,0,2,2,2,19,0,19,0,883.3079607,,,,,,,,,,,,,,,883.2965958000004,883.3079607,883.3079607,884.1899270000013,883.3079607,884.7904295999997,j,0,1.468109800000093,None,left,19,"[16, 17, 16, 17, 16, 17, 16, 20, 19, 20, 19]",11,shiftedgaze_L_19.png,j,0,3,results31,001,2026-04-20_14h11.42.984,mogelijke versie adaptive staircase builder,,2026.1.3,59.89257667401877,2026-04-20 14h11.43.317523 +0200,
20.5,ecc10neg,right,20,0,20,f,0,1.5988738999985799,None,0,2,2,2,20,0,20,0,884.8817266000005,,,,,,,,,,,,,,,884.8706691999996,884.8817266000005,884.8817266000005,885.7899988000008,884.8817266000005,886.4903445,f,0,1.5988738999985799,None,direct,20,"[16, 17, 16, 17, 16, 17, 16, 20, 19, 20, 19]",11,shifteddirectgaze.png,f,0,3,results31,001,2026-04-20_14h11.42.984,mogelijke versie adaptive staircase builder,,2026.1.3,59.89257667401877,2026-04-20 14h11.43.317523 +0200,
20.5,ecc10neg,right,21,0,21,j,0,1.4201916000001802,None,0,2,2,2,21,0,21,0,886.6037354,,,,,,,,,,,,,,,886.5916405000007,886.6037354,886.6037354,887.4908796,886.6037354,888.0402574,j,0,1.4201916000001802,None,right,20,"[16, 17, 16, 17, 16, 17, 16, 20, 19, 20, 19]",11,shiftedgaze_R_20.png,j,0,3,results31,001,2026-04-20_14h11.42.984,mogelijke versie adaptive staircase builder,,2026.1.3,59.89257667401877,2026-04-20 14h11.43.317523 +0200,
20.5,ecc10neg,right,22,0,22,f,1,2.1082787999985158,None,0,2,2,2,22,0,22,0,888.1477047999997,,,,,,,,,,,,,,,888.1363191,888.1477047999997,888.1477047999997,889.0398552000006,888.1477047999997,890.2568748000012,f,1,2.1082787999985158,None,left,20,"[16, 17, 16, 17, 16, 17, 16, 20, 19, 20, 19, 20]",12,shiftedgaze_L_20.png,f,1,3,results31,001,2026-04-20_14h11.42.984,mogelijke versie adaptive staircase builder,,2026.1.3,59.89257667401877,2026-04-20 14h11.43.317523 +0200,
20.5,ecc10neg,right,23,0,23,f,0,2.8437412999992375,None,0,2,2,2,23,0,23,0,890.3482693000005,,,,,,,,,,,,,,,890.3373989000011,890.3482693000005,890.3482693000005,891.2566819000003,890.3482693000005,893.2069247,f,0,2.8437412999992375,None,direct,19,"[16, 17, 16, 17, 16, 17, 16, 20, 19, 20, 19, 20, 19]",13,shifteddirectgaze.png,f,0,3,results31,001,2026-04-20_14h11.42.984,mogelijke versie adaptive staircase builder,,2026.1.3,59.89257667401877,2026-04-20 14h11.43.317523 +0200,
20.5,ecc10neg,right,24,0,24,j,0,1.445547200000874,None,0,2,2,2,24,0,24,0,893.3224639,,,,,,,,,,,,,,,893.3104843000001,893.3224639,893.3224639,894.2065694000012,893.3224639,894.7734777000005,j,0,1.445547200000874,None,right,20,"[16, 17, 16, 17, 16, 17, 16, 20, 19, 20, 19, 20, 19]",13,shiftedgaze_R_20.png,j,0,3,results31,001,2026-04-20_14h11.42.984,mogelijke versie adaptive staircase builder,,2026.1.3,59.89257667401877,2026-04-20 14h11.43.317523 +0200,
20.5,ecc10neg,right,25,0,25,j,1,1.4527024999988498,None,0,2,2,2,25,0,25,0,894.8832671,,,,,,,,,,,,,,,894.8718927999998,894.8832671,894.8832671,895.7730847000003,894.8832671,896.3401071999997,j,1,1.4527024999988498,None,direct,20,"[16, 17, 16, 17, 16, 17, 16, 20, 19, 20, 19, 20, 19, 20]",14,shifteddirectgaze.png,j,1,3,results31,001,2026-04-20_14h11.42.984,mogelijke versie adaptive staircase builder,,2026.1.3,59.89257667401877,2026-04-20 14h11.43.317523 +0200,
20.5,ecc10neg,right,26,0,26,j,0,1.7751058999983798,None,0,2,2,2,26,0,26,0,896.4649938000002,,,,,,,,,,,,,,,896.4526884999996,896.4649938000002,896.4649938000002,897.3398465000009,896.4649938000002,898.2568112000008,j,0,1.7751058999983798,None,right,19,"[16, 17, 16, 17, 16, 17, 16, 20, 19, 20, 19, 20, 19, 20, 19]",15,shiftedgaze_R_19.png,j,0,3,results31,001,2026-04-20_14h11.42.984,mogelijke versie adaptive staircase builder,,2026.1.3,59.89257667401877,2026-04-20 14h11.43.317523 +0200,
20.5,ecc10neg,right,27,0,27,f,0,1.602016900000308,None,0,2,2,2,27,0,27,0,898.3659508000001,,,,,,,,,,,,,,,898.3544782000008,898.3659508000001,898.3659508000001,899.2566497999996,898.3659508000001,899.9735464000005,f,0,1.602016900000308,None,direct,20,"[16, 17, 16, 17, 16, 17, 16, 20, 19, 20, 19, 20, 19, 20, 19]",15,shifteddirectgaze.png,f,0,3,results31,001,2026-04-20_14h11.42.984,mogelijke versie adaptive staircase builder,,2026.1.3,59.89257667401877,2026-04-20 14h11.43.317523 +0200,
20.5,ecc10neg,right,28,0,28,f,1,1.4450379999998404,None,0,2,2,2,28,0,28,0,900.0668846000008,,,,,,,,,,,,,,,900.055427700001,900.0668846000008,900.0668846000008,900.9733734000001,900.0668846000008,901.5235353999997,f,1,1.4450379999998404,None,left,20,"[16, 17, 16, 17, 16, 17, 16, 20, 19, 20, 19, 20, 19, 20, 19, 20]",16,shiftedgaze_L_20.png,f,1,3,results31,001,2026-04-20_14h11.42.984,mogelijke versie adaptive staircase builder,,2026.1.3,59.89257667401877,2026-04-20 14h11.43.317523 +0200,
20.5,ecc10neg,right,29,0,29,j,0,2.5761535999990883,None,0,2,2,2,29,0,29,0,901.6157722000007,,,,,,,,,,,,,,,901.6047415000012,901.6157722000007,901.6157722000007,902.523083,901.6157722000007,904.2067657000007,j,0,2.5761535999990883,None,left,19,"[16, 17, 16, 17, 16, 17, 16, 20, 19, 20, 19, 20, 19, 20, 19, 20, 19]",17,shiftedgaze_L_19.png,j,0,3,results31,001,2026-04-20_14h11.42.984,mogelijke versie adaptive staircase builder,,2026.1.3,59.89257667401877,2026-04-20 14h11.43.317523 +0200,
20.5,ecc10neg,right,30,0,30,f,0,1.7558705999999802,None,0,2,2,2,30,0,30,0,904.3001277000003,,,,,,,,,,,,,,,904.2888082999998,904.3001277000003,904.3001277000003,905.2063447,904.3001277000003,906.0568077999997,f,0,1.7558705999999802,None,direct,20,"[16, 17, 16, 17, 16, 17, 16, 20, 19, 20, 19, 20, 19, 20, 19, 20, 19]",17,shifteddirectgaze.png,f,0,3,results31,001,2026-04-20_14h11.42.984,mogelijke versie adaptive staircase builder,,2026.1.3,59.89257667401877,2026-04-20 14h11.43.317523 +0200,
20.5,ecc10neg,right,31,0,31,f,0,1.697785100001056,None,0,2,2,2,31,0,31,0,906.1502594000012,,,,,,,,,,,,,,,906.1395208000013,906.1502594000012,906.1502594000012,907.0563428000005,906.1502594000012,907.8567648000007,f,0,1.697785100001056,None,direct,20,"[16, 17, 16, 17, 16, 17, 16, 20, 19, 20, 19, 20, 19, 20, 19, 20, 19]",17,shifteddirectgaze.png,f,0,3,results31,001,2026-04-20_14h11.42.984,mogelijke versie adaptive staircase builder,,2026.1.3,59.89257667401877,2026-04-20 14h11.43.317523 +0200,
20.5,ecc10neg,right,32,0,32,j,0,2.593935300001249,None,0,2,2,2,32,0,32,0,907.9500494000004,,,,,,,,,,,,,,,907.9389964000002,907.9500494000004,907.9500494000004,908.8563840000006,907.9500494000004,910.5566501000012,j,0,2.593935300001249,None,left,20,"[16, 17, 16, 17, 16, 17, 16, 20, 19, 20, 19, 20, 19, 20, 19, 20, 19]",17,shiftedgaze_L_20.png,j,0,3,results31,001,2026-04-20_14h11.42.984,mogelijke versie adaptive staircase builder,,2026.1.3,59.89257667401877,2026-04-20 14h11.43.317523 +0200,
20.5,ecc10neg,right,33,0,33,j,0,2.065798100000393,None,0,2,2,2,33,0,33,0,910.6782086000003,,,,,,,,,,,,,,,910.6661440999997,910.6782086000003,910.6782086000003,911.5563178000011,910.6782086000003,912.7566583000007,j,0,2.065798100000393,None,right,20,"[16, 17, 16, 17, 16, 17, 16, 20, 19, 20, 19, 20, 19, 20, 19, 20, 19]",17,shiftedgaze_R_20.png,j,0,3,results31,001,2026-04-20_14h11.42.984,mogelijke versie adaptive staircase builder,,2026.1.3,59.89257667401877,2026-04-20 14h11.43.317523 +0200,
20.5,ecc10neg,right,34,0,34,f,0,1.781458899999052,None,0,2,2,2,34,0,34,0,912.8665288000011,,,,,,,,,,,,,,,912.8555369999995,912.8665288000011,912.8665288000011,913.7562378000002,912.8665288000011,914.6565279000006,f,0,1.781458899999052,None,direct,20,"[16, 17, 16, 17, 16, 17, 16, 20, 19, 20, 19, 20, 19, 20, 19, 20, 19]",17,shifteddirectgaze.png,f,0,3,results31,001,2026-04-20_14h11.42.984,mogelijke versie adaptive staircase builder,,2026.1.3,59.89257667401877,2026-04-20 14h11.43.317523 +0200,
20.5,ecc10neg,right,35,0,35,j,0,1.7713344999992842,None,0,2,2,2,35,0,35,0,914.772643100001,,,,,,,,,,,,,,,914.7605507999997,914.772643100001,914.772643100001,915.656191600001,914.772643100001,916.5566078000011,j,0,1.7713344999992842,None,right,20,"[16, 17, 16, 17, 16, 17, 16, 20, 19, 20, 19, 20, 19, 20, 19, 20, 19]",17,shiftedgaze_R_20.png,j,0,3,results31,001,2026-04-20_14h11.42.984,mogelijke versie adaptive staircase builder,,2026.1.3,59.89257667401877,2026-04-20 14h11.43.317523 +0200,
20.5,ecc10neg,right,36,0,36,j,0,1.9043127999993885,None,0,2,2,2,36,0,36,0,916.6556164000012,,,,,,,,,,,,,,,916.6439365000006,916.6556164000012,916.6556164000012,917.5561259000006,916.6556164000012,918.5732316000012,j,0,1.9043127999993885,None,right,20,"[16, 17, 16, 17, 16, 17, 16, 20, 19, 20, 19, 20, 19, 20, 19, 20, 19]",17,shiftedgaze_R_20.png,j,0,3,results31,001,2026-04-20_14h11.42.984,mogelijke versie adaptive staircase builder,,2026.1.3,59.89257667401877,2026-04-20 14h11.43.317523 +0200,
20.5,ecc10neg,right,37,0,37,j,0,2.3928348000008555,None,0,2,2,2,37,0,37,0,918.6711040999999,,,,,,,,,,,,,,,918.6599201000008,918.6711040999999,918.6711040999999,919.5726699999996,918.6711040999999,921.073255700001,j,0,2.3928348000008555,None,right,20,"[16, 17, 16, 17, 16, 17, 16, 20, 19, 20, 19, 20, 19, 20, 19, 20, 19]",17,shiftedgaze_R_20.png,j,0,3,results31,001,2026-04-20_14h11.42.984,mogelijke versie adaptive staircase builder,,2026.1.3,59.89257667401877,2026-04-20 14h11.43.317523 +0200,
20.5,ecc10neg,right,38,0,38,f,1,1.66858990000037,None,0,2,2,2,38,0,38,0,921.1713605000004,,,,,,,,,,,,,,,921.1602378000007,921.1713605000004,921.1713605000004,922.0728802000012,921.1713605000004,922.8564657999996,f,1,1.66858990000037,None,right,20,"[16, 17, 16, 17, 16, 17, 16, 20, 19, 20, 19, 20, 19, 20, 19, 20, 19, 20]",18,shiftedgaze_R_20.png,f,1,3,results31,001,2026-04-20_14h11.42.984,mogelijke versie adaptive staircase builder,,2026.1.3,59.89257667401877,2026-04-20 14h11.43.317523 +0200,
20.5,ecc10neg,right,39,0,39,f,1,1.5018806000007316,None,0,2,2,2,39,0,39,0,922.9544573000003,,,,,,,,,,,,,,,922.9429129,922.9544573000003,922.9544573000003,923.8560748,922.9544573000003,924.4731372000006,f,1,1.5018806000007316,None,right,19,"[16, 17, 16, 17, 16, 17, 16, 20, 19, 20, 19, 20, 19, 20, 19, 20, 19, 20]",18,shiftedgaze_R_19.png,f,1,3,results31,001,2026-04-20_14h11.42.984,mogelijke versie adaptive staircase builder,,2026.1.3,59.89257667401877,2026-04-20 14h11.43.317523 +0200,
20.5,ecc10neg,right,40,0,40,j,1,1.287683400001697,None,0,2,2,2,40,0,40,0,924.5844276000007,,,,,,,,,,,,,,,924.5733574999995,924.5844276000007,924.5844276000007,925.4727437000001,924.5844276000007,925.8733544999996,j,1,1.287683400001697,None,direct,18,"[16, 17, 16, 17, 16, 17, 16, 20, 19, 20, 19, 20, 19, 20, 19, 20, 19, 20]",18,shifteddirectgaze.png,j,1,3,results31,001,2026-04-20_14h11.42.984,mogelijke versie adaptive staircase builder,,2026.1.3,59.89257667401877,2026-04-20 14h11.43.317523 +0200,
20.5,ecc10neg,right,41,0,41,f,1,1.5752420000007987,None,0,2,2,2,41,0,41,0,926.0247682000008,,,,,,,,,,,,,,,925.9775869000005,926.0247682000008,926.0247682000008,926.8729550999997,926.0247682000008,927.6065171999999,f,1,1.5752420000007987,None,right,17,"[16, 17, 16, 17, 16, 17, 16, 20, 19, 20, 19, 20, 19, 20, 19, 20, 19, 20]",18,shiftedgaze_R_17.png,f,1,3,results31,001,2026-04-20_14h11.42.984,mogelijke versie adaptive staircase builder,,2026.1.3,59.89257667401877,2026-04-20 14h11.43.317523 +0200,
20.5,ecc10neg,right,42,0,42,f,0,1.8668089999991935,None,0,2,2,2,42,0,42,0,927.7170857000001,,,,,,,,,,,,,,,927.7056769999999,927.7170857000001,927.7170857000001,928.6060486999995,927.7170857000001,929.589772700001,f,0,1.8668089999991935,None,direct,16,"[16, 17, 16, 17, 16, 17, 16, 20, 19, 20, 19, 20, 19, 20, 19, 20, 19, 20, 16]",19,shifteddirectgaze.png,f,0,3,results31,001,2026-04-20_14h11.42.984,mogelijke versie adaptive staircase builder,,2026.1.3,59.89257667401877,2026-04-20 14h11.43.317523 +0200,
20.5,ecc10neg,right,43,0,43,j,0,1.6081505000001926,None,0,2,2,2,43,0,43,0,929.6798417000009,,,,,,,,,,,,,,,929.6687371999997,929.6798417000009,929.6798417000009,930.5895001999997,929.6798417000009,931.2896438999996,j,0,1.6081505000001926,None,left,17,"[16, 17, 16, 17, 16, 17, 16, 20, 19, 20, 19, 20, 19, 20, 19, 20, 19, 20, 16]",19,shiftedgaze_L_17.png,j,0,3,results31,001,2026-04-20_14h11.42.984,mogelijke versie adaptive staircase builder,,2026.1.3,59.89257667401877,2026-04-20 14h11.43.317523 +0200,
20.5,ecc10neg,right,44,0,44,j,1,1.68230179999955,None,0,2,2,2,44,0,44,0,931.3817034000003,,,,,,,,,,,,,,,931.3706523000001,931.3817034000003,931.3817034000003,932.2893283000012,931.3817034000003,933.0728968000003,j,1,1.68230179999955,None,direct,18,"[16, 17, 16, 17, 16, 17, 16, 20, 19, 20, 19, 20, 19, 20, 19, 20, 19, 20, 16, 18]",20,shifteddirectgaze.png,j,1,3,results31,001,2026-04-20_14h11.42.984,mogelijke versie adaptive staircase builder,,2026.1.3,59.89257667401877,2026-04-20 14h11.43.317523 +0200,
20.5,ecc10neg,right,45,0,45,j,0,1.300174900001366,None,0,2,2,2,45,0,45,0,933.1878580000011,,,,,,,,,,,,,,,933.1761664000005,933.1878580000011,933.1878580000011,934.0726133999997,933.1878580000011,934.4896740000004,j,0,1.300174900001366,None,right,17,"[16, 17, 16, 17, 16, 17, 16, 20, 19, 20, 19, 20, 19, 20, 19, 20, 19, 20, 16, 18, 17]",21,shiftedgaze_R_17.png,j,0,3,results31,001,2026-04-20_14h11.42.984,mogelijke versie adaptive staircase builder,,2026.1.3,59.89257667401877,2026-04-20 14h11.43.317523 +0200,
20.5,ecc10neg,right,46,0,46,j,0,1.8275572000002285,None,0,2,2,2,46,0,46,0,934.5884349999997,,,,,,,,,,,,,,,934.577451000001,934.5884349999997,934.5884349999997,935.4892613000011,934.5884349999997,936.4229584000004,j,0,1.8275572000002285,None,right,18,"[16, 17, 16, 17, 16, 17, 16, 20, 19, 20, 19, 20, 19, 20, 19, 20, 19, 20, 16, 18, 17]",21,shiftedgaze_R_18.png,j,0,3,results31,001,2026-04-20_14h11.42.984,mogelijke versie adaptive staircase builder,,2026.1.3,59.89257667401877,2026-04-20 14h11.43.317523 +0200,
20.5,ecc10neg,right,47,0,47,f,1,1.23123730000043,None,0,2,2,2,47,0,47,0,936.5208285000008,,,,,,,,,,,,,,,936.5092084000007,936.5208285000008,936.5208285000008,937.4227735000004,936.5208285000008,937.7564793000001,f,1,1.23123730000043,None,right,19,"[16, 17, 16, 17, 16, 17, 16, 20, 19, 20, 19, 20, 19, 20, 19, 20, 19, 20, 16, 18, 17, 19]",22,shiftedgaze_R_19.png,f,1,3,results31,001,2026-04-20_14h11.42.984,mogelijke versie adaptive staircase builder,,2026.1.3,59.89257667401877,2026-04-20 14h11.43.317523 +0200,
20.5,ecc10neg,right,48,0,48,f,1,2.027119700000185,None,0,2,2,2,48,0,48,0,937.8528451000002,,,,,,,,,,,,,,,937.8416486999995,937.8528451000002,937.8528451000002,938.7559519999995,937.8528451000002,939.8897837000004,f,1,2.027119700000185,None,right,18,"[16, 17, 16, 17, 16, 17, 16, 20, 19, 20, 19, 20, 19, 20, 19, 20, 19, 20, 16, 18, 17, 19]",22,shiftedgaze_R_18.png,f,1,3,results31,001,2026-04-20_14h11.42.984,mogelijke versie adaptive staircase builder,,2026.1.3,59.89257667401877,2026-04-20 14h11.43.317523 +0200,
20.5,ecc10neg,right,49,0,49,f,0,1.7122067000000243,None,0,2,2,2,49,0,49,0,939.9997992000008,,,,,,,,,,,,,,,939.9890042999996,939.9997992000008,939.9997992000008,940.8892405000006,939.9997992000008,941.7228968,f,0,1.7122067000000243,None,direct,17,"[16, 17, 16, 17, 16, 17, 16, 20, 19, 20, 19, 20, 19, 20, 19, 20, 19, 20, 16, 18, 17, 19, 17]",23,shifteddirectgaze.png,f,0,3,results31,001,2026-04-20_14h11.42.984,mogelijke versie adaptive staircase builder,,2026.1.3,59.89257667401877,2026-04-20 14h11.43.317523 +0200,
20.5,ecc10neg,right,50,0,50,f,1,1.6262012999995932,None,0,2,2,2,50,0,50,0,941.8377257000011,,,,,,,,,,,,,,,941.8237850000005,941.8377257000011,941.8377257000011,942.7225016000011,941.8377257000011,943.4728773999996,f,1,1.6262012999995932,None,right,18,"[16, 17, 16, 17, 16, 17, 16, 20, 19, 20, 19, 20, 19, 20, 19, 20, 19, 20, 16, 18, 17, 19, 17, 18]",24,shiftedgaze_R_18.png,f,1,3,results31,001,2026-04-20_14h11.42.984,mogelijke versie adaptive staircase builder,,2026.1.3,59.89257667401877,2026-04-20 14h11.43.317523 +0200,
20.5,ecc10neg,right,51,0,51,j,1,1.794773300000088,None,0,2,2,2,51,0,51,0,943.5811610000001,,,,,,,,,,,,,,,943.5693828000003,943.5811610000001,943.5811610000001,944.4725390000003,943.5811610000001,945.3895732000001,j,1,1.794773300000088,None,direct,17,"[16, 17, 16, 17, 16, 17, 16, 20, 19, 20, 19, 20, 19, 20, 19, 20, 19, 20, 16, 18, 17, 19, 17, 18]",24,shifteddirectgaze.png,j,1,3,results31,001,2026-04-20_14h11.42.984,mogelijke versie adaptive staircase builder,,2026.1.3,59.89257667401877,2026-04-20 14h11.43.317523 +0200,
20.5,ecc10neg,right,52,0,52,j,1,1.7524763000001258,None,0,2,2,2,52,0,52,0,945.47948,,,,,,,,,,,,,,,945.4690062000009,945.47948,945.47948,946.3892389000011,945.47948,947.2396022000012,j,1,1.7524763000001258,None,direct,16,"[16, 17, 16, 17, 16, 17, 16, 20, 19, 20, 19, 20, 19, 20, 19, 20, 19, 20, 16, 18, 17, 19, 17, 18]",24,shifteddirectgaze.png,j,1,3,results31,001,2026-04-20_14h11.42.984,mogelijke versie adaptive staircase builder,,2026.1.3,59.89257667401877,2026-04-20 14h11.43.317523 +0200,
20.5,ecc10neg,right,53,0,53,f,0,2.093861099998321,None,0,2,2,2,53,0,53,0,947.3300680000011,,,,,,,,,,,,,,,947.3190992,947.3300680000011,947.3300680000011,948.2391624000011,947.3300680000011,949.4394946000011,f,0,2.093861099998321,None,direct,15,"[16, 17, 16, 17, 16, 17, 16, 20, 19, 20, 19, 20, 19, 20, 19, 20, 19, 20, 16, 18, 17, 19, 17, 18, 15]",25,shifteddirectgaze.png,f,0,3,results31,001,2026-04-20_14h11.42.984,mogelijke versie adaptive staircase builder,,2026.1.3,59.89257667401877,2026-04-20 14h11.43.317523 +0200,
20.5,ecc10neg,right,54,0,54,f,1,1.7729156999994302,None,0,2,2,2,54,0,54,0,949.5550425000001,,,,,,,,,,,,,,,949.5437299000005,949.5550425000001,949.5550425000001,950.4391393999995,949.5550425000001,951.3394649000002,f,1,1.7729156999994302,None,right,16,"[16, 17, 16, 17, 16, 17, 16, 20, 19, 20, 19, 20, 19, 20, 19, 20, 19, 20, 16, 18, 17, 19, 17, 18, 15, 16]",26,shiftedgaze_R_16.png,f,1,3,results31,001,2026-04-20_14h11.42.984,mogelijke versie adaptive staircase builder,,2026.1.3,59.89257667401877,2026-04-20 14h11.43.317523 +0200,
20.5,ecc10neg,right,55,0,55,j,0,1.4674056000003475,None,0,2,2,2,55,0,55,0,951.4605757000008,,,,,,,,,,,,,,,951.4489707000012,951.4605757000008,951.4605757000008,952.3390614,951.4605757000008,952.9393285999995,j,0,1.4674056000003475,None,right,15,"[16, 17, 16, 17, 16, 17, 16, 20, 19, 20, 19, 20, 19, 20, 19, 20, 19, 20, 16, 18, 17, 19, 17, 18, 15, 16, 15]",27,shiftedgaze_R_15.png,j,0,3,results31,001,2026-04-20_14h11.42.984,mogelijke versie adaptive staircase builder,,2026.1.3,59.89257667401877,2026-04-20 14h11.43.317523 +0200,
20.5,ecc10neg,right,56,0,56,f,1,1.849788699999408,None,0,2,2,2,56,0,56,0,953.0302162000007,,,,,,,,,,,,,,,953.0197155000005,953.0302162000007,953.0302162000007,953.9391489999998,953.0302162000007,954.8894161000007,f,1,1.849788699999408,None,left,16,"[16, 17, 16, 17, 16, 17, 16, 20, 19, 20, 19, 20, 19, 20, 19, 20, 19, 20, 16, 18, 17, 19, 17, 18, 15, 16, 15, 16]",28,shiftedgaze_L_16.png,f,1,3,results31,001,2026-04-20_14h11.42.984,mogelijke versie adaptive staircase builder,,2026.1.3,59.89257667401877,2026-04-20 14h11.43.317523 +0200,
20.5,ecc10neg,right,57,0,57,j,0,1.6467395999989094,None,0,2,2,2,57,0,57,0,954.9852367000003,,,,,,,,,,,,,,,954.9737438000011,954.9852367000003,954.9852367000003,955.8890668000004,954.9852367000003,956.639353300001,j,0,1.6467395999989094,None,right,15,"[16, 17, 16, 17, 16, 17, 16, 20, 19, 20, 19, 20, 19, 20, 19, 20, 19, 20, 16, 18, 17, 19, 17, 18, 15, 16, 15, 16, 15]",29,shiftedgaze_R_15.png,j,0,3,results31,001,2026-04-20_14h11.42.984,mogelijke versie adaptive staircase builder,,2026.1.3,59.89257667401877,2026-04-20 14h11.43.317523 +0200,
20.5,ecc10neg,right,58,0,58,j,0,1.3160691000011866,None,0,2,2,2,58,0,58,0,956.7319508,,,,,,,,,,,,,,,956.7213783999996,956.7319508,956.7319508,957.6390650000012,956.7319508,958.0559006000003,j,0,1.3160691000011866,None,left,16,"[16, 17, 16, 17, 16, 17, 16, 20, 19, 20, 19, 20, 19, 20, 19, 20, 19, 20, 16, 18, 17, 19, 17, 18, 15, 16, 15, 16, 15]",29,shiftedgaze_L_16.png,j,0,3,results31,001,2026-04-20_14h11.42.984,mogelijke versie adaptive staircase builder,,2026.1.3,59.89257667401877,2026-04-20 14h11.43.317523 +0200,
20.5,ecc10neg,right,59,0,59,f,1,1.5949056999997993,None,0,2,2,2,59,0,59,0,958.1731762,,,,,,,,,,,,,,,958.1613529000006,958.1731762,958.1731762,959.0556591000004,958.1731762,959.7726954999998,f,1,1.5949056999997993,None,right,17,"[16, 17, 16, 17, 16, 17, 16, 20, 19, 20, 19, 20, 19, 20, 19, 20, 19, 20, 16, 18, 17, 19, 17, 18, 15, 16, 15, 16, 15, 17]",30,shiftedgaze_R_17.png,f,1,3,results31,001,2026-04-20_14h11.42.984,mogelijke versie adaptive staircase builder,,2026.1.3,59.89257667401877,2026-04-20 14h11.43.317523 +0200,
20.5,ecc10neg,right,2,2,0,,,,,0,2,2,2,,,,,,,,,,,,,,,,,,,,,,,,,,,,,,,,,,,,,,results31,001,2026-04-20_14h11.42.984,mogelijke versie adaptive staircase builder,,2026.1.3,59.89257667401877,2026-04-20 14h11.43.317523 +0200,
