xPos,stimulusSet,whichImage,thisN,thisTrialN,thisRepN,key_resp.keys,key_resp.corr,key_resp.rt,key_resp.duration,blocks.thisRepN,blocks.thisTrialN,blocks.thisN,blocks.thisIndex,trials.thisRepN,trials.thisTrialN,trials.thisN,trials.thisIndex,thisRow.t,notes,piloting,intro.started,introinstructions.started,intro_key.started,demo_image_left.started,demo_image_middle.started,demo_image_right.started,intro.stopped,intro_key.keys,intro_key.rt,intro_key.duration,block_start.started,block_start.stopped,trial.started,key_resp.started,middle_image.started,right_image.started,left_image.started,trial.stopped,trials.key_resp.keys,trials.key_resp.corr,trials.key_resp.rt,trials.key_resp.duration,direction,angle,reversal_intensities,number_reversals,stimulus,response,correct,blockNumber,participant,session,date,expName,expVersion,psychopyVersion,frameRate,expStart,
,,,,,,,,,,,,,,,,,,,,False,0.07723579999947106,0.09167259999958333,0.09167259999958333,0.09167259999958333,0.09167259999958333,0.09167259999958333,114.24342260000049,space,114.0671360999986,0.07980940000197734,,,,,,,,,,,,,,,,,,,,,results10,001,2026-04-13_15h10.24.025,mogelijke versie adaptive staircase builder,,2026.1.3,60.062549138171796,2026-04-13 15h10.26.871874 +0200,
4.5,ecc10pos,left,0,0,0,j,1,4.184788599999592,None,0,0,0,0,0,0,0,0,114.55820379999932,,,,,,,,,,,,,114.44895270000052,114.44900549999875,114.547443200001,114.55820379999932,114.55820379999932,114.55820379999932,115.45966399999816,118.7434718000004,j,1,4.184788599999592,None,direct,20,[],0,shifteddirectgaze.png,j,1,1,results10,001,2026-04-13_15h10.24.025,mogelijke versie adaptive staircase builder,,2026.1.3,60.062549138171796,2026-04-13 15h10.26.871874 +0200,
4.5,ecc10pos,left,1,0,1,f,1,1.793791500000225,None,0,0,0,0,1,0,1,0,118.94101089999822,,,,,,,,,,,,,,,118.93088499999794,118.94101089999822,118.94101089999822,118.94101089999822,119.74295780000102,120.74356899999839,f,1,1.793791500000225,None,right,19,[],0,shiftedgaze_R_19.png,f,1,1,results10,001,2026-04-13_15h10.24.025,mogelijke versie adaptive staircase builder,,2026.1.3,60.062549138171796,2026-04-13 15h10.26.871874 +0200,
4.5,ecc10pos,left,2,0,2,f,1,2.5068643000013253,None,0,0,0,0,2,0,2,0,120.96380649999992,,,,,,,,,,,,,,,120.95188649999909,120.96380649999992,120.96380649999992,120.96380649999992,121.74327120000089,123.4765398999989,f,1,2.5068643000013253,None,left,18,[],0,shiftedgaze_L_18.png,f,1,1,results10,001,2026-04-13_15h10.24.025,mogelijke versie adaptive staircase builder,,2026.1.3,60.062549138171796,2026-04-13 15h10.26.871874 +0200,
4.5,ecc10pos,left,3,0,3,f,0,3.0455731000001833,None,0,0,0,0,3,0,3,0,123.59304509999856,,,,,,,,,,,,,,,123.58206739999878,123.59304509999856,123.59304509999856,123.59304509999856,124.47620050000114,126.64333160000024,f,0,3.0455731000001833,None,direct,17,[17],1,shifteddirectgaze.png,f,0,1,results10,001,2026-04-13_15h10.24.025,mogelijke versie adaptive staircase builder,,2026.1.3,60.062549138171796,2026-04-13 15h10.26.871874 +0200,
4.5,ecc10pos,left,4,0,4,f,0,2.0989172000008693,None,0,0,0,0,4,0,4,0,126.73976810000022,,,,,,,,,,,,,,,126.72900880000088,126.73976810000022,126.73976810000022,126.73976810000022,127.64296019999892,128.84329259999868,f,0,2.0989172000008693,None,direct,18,[17],1,shifteddirectgaze.png,f,0,1,results10,001,2026-04-13_15h10.24.025,mogelijke versie adaptive staircase builder,,2026.1.3,60.062549138171796,2026-04-13 15h10.26.871874 +0200,
4.5,ecc10pos,left,5,0,5,j,0,2.0541903999983333,None,0,0,0,0,5,0,5,0,129.064639799999,,,,,,,,,,,,,,,129.05269659999976,129.064639799999,129.064639799999,129.064639799999,129.84282579999854,131.12659669999994,j,0,2.0541903999983333,None,left,19,[17],1,shiftedgaze_L_19.png,j,0,1,results10,001,2026-04-13_15h10.24.025,mogelijke versie adaptive staircase builder,,2026.1.3,60.062549138171796,2026-04-13 15h10.26.871874 +0200,
4.5,ecc10pos,left,6,0,6,j,0,3.9331057999988843,None,0,0,0,0,6,0,6,0,131.32959059999848,,,,,,,,,,,,,,,131.3179487999987,131.32959059999848,131.32959059999848,131.32959059999848,132.1262198000004,135.27717729999858,j,0,3.9331057999988843,None,left,20,[17],1,shiftedgaze_L_20.png,j,0,1,results10,001,2026-04-13_15h10.24.025,mogelijke versie adaptive staircase builder,,2026.1.3,60.062549138171796,2026-04-13 15h10.26.871874 +0200,
4.5,ecc10pos,left,7,0,7,j,0,2.1929267999985314,None,0,0,0,0,7,0,7,0,135.38180509999802,,,,,,,,,,,,,,,135.3698125999981,135.38180509999802,135.38180509999802,135.38180509999802,136.2927587999984,137.57712399999946,j,0,2.1929267999985314,None,left,20,[17],1,shiftedgaze_L_20.png,j,0,1,results10,001,2026-04-13_15h10.24.025,mogelijke versie adaptive staircase builder,,2026.1.3,60.062549138171796,2026-04-13 15h10.26.871874 +0200,
4.5,ecc10pos,left,8,0,8,f,1,1.9163033000004361,None,0,0,0,0,8,0,8,0,137.68243409999923,,,,,,,,,,,,,,,137.6704847000001,137.68243409999923,137.68243409999923,137.68243409999923,138.59289630000058,139.61112380000122,f,1,1.9163033000004361,None,left,20,"[17, 20]",2,shiftedgaze_L_20.png,f,1,1,results10,001,2026-04-13_15h10.24.025,mogelijke versie adaptive staircase builder,,2026.1.3,60.062549138171796,2026-04-13 15h10.26.871874 +0200,
4.5,ecc10pos,left,9,0,9,j,1,3.151960399998643,None,0,0,0,0,9,0,9,0,139.7268245999985,,,,,,,,,,,,,,,139.71598979999908,139.7268245999985,139.7268245999985,139.7268245999985,140.62606500000038,142.89669199999844,j,1,3.151960399998643,None,direct,19,"[17, 20]",2,shifteddirectgaze.png,j,1,1,results10,001,2026-04-13_15h10.24.025,mogelijke versie adaptive staircase builder,,2026.1.3,60.062549138171796,2026-04-13 15h10.26.871874 +0200,
4.5,ecc10pos,left,10,0,10,j,0,2.244656999999279,None,0,0,0,0,10,0,10,0,143.09830760000114,,,,,,,,,,,,,,,143.0848369000014,143.09830760000114,143.09830760000114,143.09830760000114,143.90910249999797,145.35973999999987,j,0,2.244656999999279,None,right,18,"[17, 20, 18]",3,shiftedgaze_R_18.png,j,0,1,results10,001,2026-04-13_15h10.24.025,mogelijke versie adaptive staircase builder,,2026.1.3,60.062549138171796,2026-04-13 15h10.26.871874 +0200,
4.5,ecc10pos,left,11,0,11,f,1,2.0117133999992802,None,0,0,0,0,11,0,11,0,145.48306199999934,,,,,,,,,,,,,,,145.4711294000008,145.48306199999934,145.48306199999934,145.48306199999934,146.3591852999998,147.5097366000009,f,1,2.0117133999992802,None,left,19,"[17, 20, 18, 19]",4,shiftedgaze_L_19.png,f,1,1,results10,001,2026-04-13_15h10.24.025,mogelijke versie adaptive staircase builder,,2026.1.3,60.062549138171796,2026-04-13 15h10.26.871874 +0200,
4.5,ecc10pos,left,12,0,12,j,1,2.42630250000002,None,0,0,0,0,12,0,12,0,147.62834600000133,,,,,,,,,,,,,,,147.61661989999993,147.62834600000133,147.62834600000133,147.62834600000133,148.50913579999906,150.05957660000058,j,1,2.42630250000002,None,direct,18,"[17, 20, 18, 19]",4,shifteddirectgaze.png,j,1,1,results10,001,2026-04-13_15h10.24.025,mogelijke versie adaptive staircase builder,,2026.1.3,60.062549138171796,2026-04-13 15h10.26.871874 +0200,
4.5,ecc10pos,left,13,0,13,j,1,2.1045085999976436,None,0,0,0,0,13,0,13,0,150.1580963999986,,,,,,,,,,,,,,,150.14746920000107,150.1580963999986,150.1580963999986,150.1580963999986,151.05909539999993,152.27594519999911,j,1,2.1045085999976436,None,direct,17,"[17, 20, 18, 19]",4,shifteddirectgaze.png,j,1,1,results10,001,2026-04-13_15h10.24.025,mogelijke versie adaptive staircase builder,,2026.1.3,60.062549138171796,2026-04-13 15h10.26.871874 +0200,
4.5,ecc10pos,left,14,0,14,f,1,2.655607799999416,None,0,0,0,0,14,0,14,0,152.49508539999806,,,,,,,,,,,,,,,152.48370879999857,152.49508539999806,152.49508539999806,152.49508539999806,153.27576699999918,155.15956799999913,f,1,2.655607799999416,None,left,16,"[17, 20, 18, 19]",4,shiftedgaze_L_16.png,f,1,1,results10,001,2026-04-13_15h10.24.025,mogelijke versie adaptive staircase builder,,2026.1.3,60.062549138171796,2026-04-13 15h10.26.871874 +0200,
4.5,ecc10pos,left,15,0,15,j,1,1.7290709000008064,None,0,0,0,0,15,0,15,0,155.27762599999915,,,,,,,,,,,,,,,155.26631500000076,155.27762599999915,155.27762599999915,155.27762599999915,156.15907570000127,157.00948620000054,j,1,1.7290709000008064,None,direct,15,"[17, 20, 18, 19]",4,shifteddirectgaze.png,j,1,1,results10,001,2026-04-13_15h10.24.025,mogelijke versie adaptive staircase builder,,2026.1.3,60.062549138171796,2026-04-13 15h10.26.871874 +0200,
4.5,ecc10pos,left,16,0,16,j,0,2.061978599998838,None,0,0,0,0,16,0,16,0,157.20059910000055,,,,,,,,,,,,,,,157.18981630000053,157.20059910000055,157.20059910000055,157.20059910000055,158.00922830000127,159.27593839999827,j,0,2.061978599998838,None,right,14,"[17, 20, 18, 19, 14]",5,shiftedgaze_R_14.png,j,0,1,results10,001,2026-04-13_15h10.24.025,mogelijke versie adaptive staircase builder,,2026.1.3,60.062549138171796,2026-04-13 15h10.26.871874 +0200,
4.5,ecc10pos,left,17,0,17,f,1,2.6764789999979257,None,0,0,0,0,17,0,17,0,159.4663787999998,,,,,,,,,,,,,,,159.45562810000047,159.4663787999998,159.4663787999998,159.4663787999998,160.27577649999876,162.1594624999998,f,1,2.6764789999979257,None,right,15,"[17, 20, 18, 19, 14, 15]",6,shiftedgaze_R_15.png,f,1,1,results10,001,2026-04-13_15h10.24.025,mogelijke versie adaptive staircase builder,,2026.1.3,60.062549138171796,2026-04-13 15h10.26.871874 +0200,
4.5,ecc10pos,left,18,0,18,f,1,2.1218683999977657,None,0,0,0,0,18,0,18,0,162.26079200000095,,,,,,,,,,,,,,,162.25085549999858,162.26079200000095,162.26079200000095,162.26079200000095,163.15892470000108,164.39269839999906,f,1,2.1218683999977657,None,right,14,"[17, 20, 18, 19, 14, 15]",6,shiftedgaze_R_14.png,f,1,1,results10,001,2026-04-13_15h10.24.025,mogelijke versie adaptive staircase builder,,2026.1.3,60.062549138171796,2026-04-13 15h10.26.871874 +0200,
4.5,ecc10pos,left,19,0,19,j,1,2.259098200000153,None,0,0,0,0,19,0,19,0,164.49162680000154,,,,,,,,,,,,,,,164.48099100000036,164.49162680000154,164.49162680000154,164.49162680000154,165.39232170000105,166.75942529999884,j,1,2.259098200000153,None,direct,13,"[17, 20, 18, 19, 14, 15]",6,shifteddirectgaze.png,j,1,1,results10,001,2026-04-13_15h10.24.025,mogelijke versie adaptive staircase builder,,2026.1.3,60.062549138171796,2026-04-13 15h10.26.871874 +0200,
4.5,ecc10pos,left,20,0,20,j,1,1.8593314999998256,None,0,0,0,0,20,0,20,0,166.85935899999822,,,,,,,,,,,,,,,166.84830109999893,166.85935899999822,166.85935899999822,166.85935899999822,167.75888510000004,168.7260282999996,j,1,1.8593314999998256,None,direct,12,"[17, 20, 18, 19, 14, 15]",6,shifteddirectgaze.png,j,1,1,results10,001,2026-04-13_15h10.24.025,mogelijke versie adaptive staircase builder,,2026.1.3,60.062549138171796,2026-04-13 15h10.26.871874 +0200,
4.5,ecc10pos,left,21,0,21,f,1,3.1215257000003476,None,0,0,0,0,21,0,21,0,168.9410656,,,,,,,,,,,,,,,168.93086269999912,168.9410656,168.9410656,168.9410656,169.72555020000073,172.0761851999996,f,1,3.1215257000003476,None,left,11,"[17, 20, 18, 19, 14, 15]",6,shiftedgaze_L_11.png,f,1,1,results10,001,2026-04-13_15h10.24.025,mogelijke versie adaptive staircase builder,,2026.1.3,60.062549138171796,2026-04-13 15h10.26.871874 +0200,
4.5,ecc10pos,left,22,0,22,j,0,2.295637600000191,None,0,0,0,0,22,0,22,0,172.2869576999983,,,,,,,,,,,,,,,172.2757402999996,172.2869576999983,172.2869576999983,172.2869576999983,173.07563899999877,174.59275590000107,j,0,2.295637600000191,None,right,10,"[17, 20, 18, 19, 14, 15, 10]",7,shiftedgaze_R_10.png,j,0,1,results10,001,2026-04-13_15h10.24.025,mogelijke versie adaptive staircase builder,,2026.1.3,60.062549138171796,2026-04-13 15h10.26.871874 +0200,
4.5,ecc10pos,left,23,0,23,j,1,2.0490993999992497,None,0,0,0,0,23,0,23,0,174.68543579999823,,,,,,,,,,,,,,,174.67462180000075,174.68543579999823,174.68543579999823,174.68543579999823,175.592179700001,176.7424280999985,j,1,2.0490993999992497,None,direct,11,"[17, 20, 18, 19, 14, 15, 10, 11]",8,shifteddirectgaze.png,j,1,1,results10,001,2026-04-13_15h10.24.025,mogelijke versie adaptive staircase builder,,2026.1.3,60.062549138171796,2026-04-13 15h10.26.871874 +0200,
4.5,ecc10pos,left,24,0,24,j,0,1.87507910000204,None,0,0,0,0,24,0,24,0,177.33160199999838,,,,,,,,,,,,,,,177.31991639999978,177.33160199999838,177.33160199999838,177.33160199999838,177.74209559999872,179.20927989999836,j,0,1.87507910000204,None,left,10,"[17, 20, 18, 19, 14, 15, 10, 11, 10]",9,shiftedgaze_L_10.png,j,0,1,results10,001,2026-04-13_15h10.24.025,mogelijke versie adaptive staircase builder,,2026.1.3,60.062549138171796,2026-04-13 15h10.26.871874 +0200,
4.5,ecc10pos,left,25,0,25,j,0,2.22262899999987,None,0,0,0,0,25,0,25,0,179.32004229999802,,,,,,,,,,,,,,,179.31029510000008,179.32004229999802,179.32004229999802,179.32004229999802,180.20882580000034,181.55912779999926,j,0,2.22262899999987,None,left,11,"[17, 20, 18, 19, 14, 15, 10, 11, 10]",9,shiftedgaze_L_11.png,j,0,1,results10,001,2026-04-13_15h10.24.025,mogelijke versie adaptive staircase builder,,2026.1.3,60.062549138171796,2026-04-13 15h10.26.871874 +0200,
4.5,ecc10pos,left,26,0,26,f,1,1.9418281999969622,None,0,0,0,0,26,0,26,0,181.75281679999898,,,,,,,,,,,,,,,181.74181780000072,181.75281679999898,181.75281679999898,181.75281679999898,182.55862400000115,183.70895910000036,f,1,1.9418281999969622,None,right,12,"[17, 20, 18, 19, 14, 15, 10, 11, 10, 12]",10,shiftedgaze_R_12.png,f,1,1,results10,001,2026-04-13_15h10.24.025,mogelijke versie adaptive staircase builder,,2026.1.3,60.062549138171796,2026-04-13 15h10.26.871874 +0200,
4.5,ecc10pos,left,27,0,27,f,1,1.7061290999990888,None,0,0,0,0,27,0,27,0,183.89332600000125,,,,,,,,,,,,,,,183.88282059999983,183.89332600000125,183.89332600000125,183.89332600000125,184.70880580000085,185.60909769999853,f,1,1.7061290999990888,None,right,11,"[17, 20, 18, 19, 14, 15, 10, 11, 10, 12]",10,shiftedgaze_R_11.png,f,1,1,results10,001,2026-04-13_15h10.24.025,mogelijke versie adaptive staircase builder,,2026.1.3,60.062549138171796,2026-04-13 15h10.26.871874 +0200,
4.5,ecc10pos,left,28,0,28,j,1,1.9443838000006508,None,0,0,0,0,28,0,28,0,185.70244820000153,,,,,,,,,,,,,,,185.69148900000073,185.70244820000153,185.70244820000153,185.70244820000153,186.60869509999975,187.65894760000083,j,1,1.9443838000006508,None,direct,10,"[17, 20, 18, 19, 14, 15, 10, 11, 10, 12]",10,shifteddirectgaze.png,j,1,1,results10,001,2026-04-13_15h10.24.025,mogelijke versie adaptive staircase builder,,2026.1.3,60.062549138171796,2026-04-13 15h10.26.871874 +0200,
4.5,ecc10pos,left,29,0,29,j,0,2.411404999998922,None,0,0,0,0,29,0,29,0,187.84317839999858,,,,,,,,,,,,,,,187.83244529999865,187.84317839999858,187.84317839999858,187.84317839999858,188.6585769000012,190.2589330999981,j,0,2.411404999998922,None,left,9,"[17, 20, 18, 19, 14, 15, 10, 11, 10, 12, 9]",11,shiftedgaze_L_9.png,j,0,1,results10,001,2026-04-13_15h10.24.025,mogelijke versie adaptive staircase builder,,2026.1.3,60.062549138171796,2026-04-13 15h10.26.871874 +0200,
4.5,ecc10pos,left,30,0,30,j,0,1.9431315000001632,None,0,0,0,0,30,0,30,0,190.35149059999821,,,,,,,,,,,,,,,190.34083439999813,190.35149059999821,190.35149059999821,190.35149059999821,191.25852369999848,192.30895890000102,j,0,1.9431315000001632,None,right,10,"[17, 20, 18, 19, 14, 15, 10, 11, 10, 12, 9]",11,shiftedgaze_R_10.png,j,0,1,results10,001,2026-04-13_15h10.24.025,mogelijke versie adaptive staircase builder,,2026.1.3,60.062549138171796,2026-04-13 15h10.26.871874 +0200,
4.5,ecc10pos,left,31,0,31,f,0,2.3785017999980482,None,0,0,0,0,31,0,31,0,192.40418149999823,,,,,,,,,,,,,,,192.39282900000035,192.40418149999823,192.40418149999823,192.40418149999823,193.30861350000123,194.7923144000015,f,0,2.3785017999980482,None,direct,11,"[17, 20, 18, 19, 14, 15, 10, 11, 10, 12, 9]",11,shifteddirectgaze.png,f,0,1,results10,001,2026-04-13_15h10.24.025,mogelijke versie adaptive staircase builder,,2026.1.3,60.062549138171796,2026-04-13 15h10.26.871874 +0200,
4.5,ecc10pos,left,32,0,32,j,0,1.894517500000802,None,0,0,0,0,32,0,32,0,195.2483147999992,,,,,,,,,,,,,,,195.23729549999916,195.2483147999992,195.2483147999992,195.2483147999992,195.79183470000135,197.1590311,j,0,1.894517500000802,None,left,12,"[17, 20, 18, 19, 14, 15, 10, 11, 10, 12, 9]",11,shiftedgaze_L_12.png,j,0,1,results10,001,2026-04-13_15h10.24.025,mogelijke versie adaptive staircase builder,,2026.1.3,60.062549138171796,2026-04-13 15h10.26.871874 +0200,
4.5,ecc10pos,left,33,0,33,j,1,2.6035694999991392,None,0,0,0,0,33,0,33,0,197.2511087999992,,,,,,,,,,,,,,,197.24031359999935,197.2511087999992,197.2511087999992,197.2511087999992,198.1585793000013,199.8589307000002,j,1,2.6035694999991392,None,direct,13,"[17, 20, 18, 19, 14, 15, 10, 11, 10, 12, 9, 13]",12,shifteddirectgaze.png,j,1,1,results10,001,2026-04-13_15h10.24.025,mogelijke versie adaptive staircase builder,,2026.1.3,60.062549138171796,2026-04-13 15h10.26.871874 +0200,
4.5,ecc10pos,left,34,0,34,f,0,1.9219831000009435,None,0,0,0,0,34,0,34,0,199.95659579999847,,,,,,,,,,,,,,,199.9445068999994,199.95659579999847,199.95659579999847,199.95659579999847,200.85848709999846,201.89211839999916,f,0,1.9219831000009435,None,direct,12,"[17, 20, 18, 19, 14, 15, 10, 11, 10, 12, 9, 13, 12]",13,shifteddirectgaze.png,f,0,1,results10,001,2026-04-13_15h10.24.025,mogelijke versie adaptive staircase builder,,2026.1.3,60.062549138171796,2026-04-13 15h10.26.871874 +0200,
4.5,ecc10pos,left,35,0,35,f,1,1.810862199999974,None,0,0,0,0,35,0,35,0,202.07578269999794,,,,,,,,,,,,,,,202.0652403999993,202.07578269999794,202.07578269999794,202.07578269999794,202.89181850000023,203.89226250000138,f,1,1.810862199999974,None,left,13,"[17, 20, 18, 19, 14, 15, 10, 11, 10, 12, 9, 13, 12, 13]",14,shiftedgaze_L_13.png,f,1,1,results10,001,2026-04-13_15h10.24.025,mogelijke versie adaptive staircase builder,,2026.1.3,60.062549138171796,2026-04-13 15h10.26.871874 +0200,
4.5,ecc10pos,left,36,0,36,j,1,2.3318441999981587,None,0,0,0,0,36,0,36,0,203.9867747999997,,,,,,,,,,,,,,,203.97554820000005,203.9867747999997,203.9867747999997,203.9867747999997,204.89168490000156,206.3257941999982,j,1,2.3318441999981587,None,direct,12,"[17, 20, 18, 19, 14, 15, 10, 11, 10, 12, 9, 13, 12, 13]",14,shifteddirectgaze.png,j,1,1,results10,001,2026-04-13_15h10.24.025,mogelijke versie adaptive staircase builder,,2026.1.3,60.062549138171796,2026-04-13 15h10.26.871874 +0200,
4.5,ecc10pos,left,37,0,37,j,0,1.9341089999979886,None,0,0,0,0,37,0,37,0,206.43254929999966,,,,,,,,,,,,,,,206.42149620000055,206.43254929999966,206.43254929999966,206.43254929999966,207.34299159999864,208.37562550000075,j,0,1.9341089999979886,None,right,11,"[17, 20, 18, 19, 14, 15, 10, 11, 10, 12, 9, 13, 12, 13, 11]",15,shiftedgaze_R_11.png,j,0,1,results10,001,2026-04-13_15h10.24.025,mogelijke versie adaptive staircase builder,,2026.1.3,60.062549138171796,2026-04-13 15h10.26.871874 +0200,
4.5,ecc10pos,left,38,0,38,j,1,2.321320099999866,None,0,0,0,0,38,0,38,0,208.47782709999956,,,,,,,,,,,,,,,208.46782370000074,208.47782709999956,208.47782709999956,208.47782709999956,209.375134599999,210.80904219999866,j,1,2.321320099999866,None,direct,12,"[17, 20, 18, 19, 14, 15, 10, 11, 10, 12, 9, 13, 12, 13, 11, 12]",16,shifteddirectgaze.png,j,1,1,results10,001,2026-04-13_15h10.24.025,mogelijke versie adaptive staircase builder,,2026.1.3,60.062549138171796,2026-04-13 15h10.26.871874 +0200,
4.5,ecc10pos,left,39,0,39,j,0,2.3043058999974164,None,0,0,0,0,39,0,39,0,210.92644129999826,,,,,,,,,,,,,,,210.91488839999874,210.92644129999826,210.92644129999826,210.92644129999826,211.8082800000011,213.242210299999,j,0,2.3043058999974164,None,left,11,"[17, 20, 18, 19, 14, 15, 10, 11, 10, 12, 9, 13, 12, 13, 11, 12, 11]",17,shiftedgaze_L_11.png,j,0,1,results10,001,2026-04-13_15h10.24.025,mogelijke versie adaptive staircase builder,,2026.1.3,60.062549138171796,2026-04-13 15h10.26.871874 +0200,
4.5,ecc10pos,left,40,0,40,f,0,2.0574372000010044,None,0,0,0,0,40,0,40,0,213.3584281000003,,,,,,,,,,,,,,,213.34865490000084,213.3584281000003,213.3584281000003,213.3584281000003,214.24143879999974,215.42555390000052,f,0,2.0574372000010044,None,direct,12,"[17, 20, 18, 19, 14, 15, 10, 11, 10, 12, 9, 13, 12, 13, 11, 12, 11]",17,shifteddirectgaze.png,f,0,1,results10,001,2026-04-13_15h10.24.025,mogelijke versie adaptive staircase builder,,2026.1.3,60.062549138171796,2026-04-13 15h10.26.871874 +0200,
4.5,ecc10pos,left,41,0,41,f,1,1.8075229000023683,None,0,0,0,0,41,0,41,0,215.61515169999984,,,,,,,,,,,,,,,215.60332520000156,215.61515169999984,215.61515169999984,215.61515169999984,216.44168640000134,217.42557289999968,f,1,1.8075229000023683,None,right,13,"[17, 20, 18, 19, 14, 15, 10, 11, 10, 12, 9, 13, 12, 13, 11, 12, 11, 13]",18,shiftedgaze_R_13.png,f,1,1,results10,001,2026-04-13_15h10.24.025,mogelijke versie adaptive staircase builder,,2026.1.3,60.062549138171796,2026-04-13 15h10.26.871874 +0200,
4.5,ecc10pos,left,42,0,42,f,1,2.0081062000026577,None,0,0,0,0,42,0,42,0,217.52649680000104,,,,,,,,,,,,,,,217.515009499999,217.52649680000104,217.52649680000104,217.52649680000104,218.4249904999997,219.54201720000128,f,1,2.0081062000026577,None,right,12,"[17, 20, 18, 19, 14, 15, 10, 11, 10, 12, 9, 13, 12, 13, 11, 12, 11, 13]",18,shiftedgaze_R_12.png,f,1,1,results10,001,2026-04-13_15h10.24.025,mogelijke versie adaptive staircase builder,,2026.1.3,60.062549138171796,2026-04-13 15h10.26.871874 +0200,
4.5,ecc10pos,left,43,0,43,j,0,1.7669671999974526,None,0,0,0,0,43,0,43,0,219.6396949000009,,,,,,,,,,,,,,,219.62940080000044,219.6396949000009,219.6396949000009,219.6396949000009,220.54166479999913,221.40862890000062,j,0,1.7669671999974526,None,right,11,"[17, 20, 18, 19, 14, 15, 10, 11, 10, 12, 9, 13, 12, 13, 11, 12, 11, 13, 11]",19,shiftedgaze_R_11.png,j,0,1,results10,001,2026-04-13_15h10.24.025,mogelijke versie adaptive staircase builder,,2026.1.3,60.062549138171796,2026-04-13 15h10.26.871874 +0200,
4.5,ecc10pos,left,44,0,44,j,0,2.1485830999990867,None,0,0,0,0,44,0,44,0,221.50602929999877,,,,,,,,,,,,,,,221.49526680000054,221.50602929999877,221.50602929999877,221.50602929999877,222.40837860000102,223.65882789999887,j,0,2.1485830999990867,None,right,12,"[17, 20, 18, 19, 14, 15, 10, 11, 10, 12, 9, 13, 12, 13, 11, 12, 11, 13, 11]",19,shiftedgaze_R_12.png,j,0,1,results10,001,2026-04-13_15h10.24.025,mogelijke versie adaptive staircase builder,,2026.1.3,60.062549138171796,2026-04-13 15h10.26.871874 +0200,
4.5,ecc10pos,left,45,0,45,f,0,3.6480760000013106,None,0,0,0,0,45,0,45,0,223.7584730999988,,,,,,,,,,,,,,,223.74840620000032,223.7584730999988,223.7584730999988,223.7584730999988,224.65818070000023,227.40875009999945,f,0,3.6480760000013106,None,direct,13,"[17, 20, 18, 19, 14, 15, 10, 11, 10, 12, 9, 13, 12, 13, 11, 12, 11, 13, 11]",19,shifteddirectgaze.png,f,0,1,results10,001,2026-04-13_15h10.24.025,mogelijke versie adaptive staircase builder,,2026.1.3,60.062549138171796,2026-04-13 15h10.26.871874 +0200,
4.5,ecc10pos,left,46,0,46,f,1,2.183935000000929,None,0,0,0,0,46,0,46,0,227.59924070000125,,,,,,,,,,,,,,,227.588422599998,227.59924070000125,227.59924070000125,227.59924070000125,228.40816749999794,229.79203060000145,f,1,2.183935000000929,None,left,14,"[17, 20, 18, 19, 14, 15, 10, 11, 10, 12, 9, 13, 12, 13, 11, 12, 11, 13, 11, 14]",20,shiftedgaze_L_14.png,f,1,1,results10,001,2026-04-13_15h10.24.025,mogelijke versie adaptive staircase builder,,2026.1.3,60.062549138171796,2026-04-13 15h10.26.871874 +0200,
4.5,ecc10pos,left,47,0,47,j,1,1.5864613999983703,None,0,0,0,0,47,0,47,0,229.90014449999944,,,,,,,,,,,,,,,229.8889898999987,229.90014449999944,229.90014449999944,229.90014449999944,230.80822859999898,231.49195640000107,j,1,1.5864613999983703,None,direct,13,"[17, 20, 18, 19, 14, 15, 10, 11, 10, 12, 9, 13, 12, 13, 11, 12, 11, 13, 11, 14]",20,shifteddirectgaze.png,j,1,1,results10,001,2026-04-13_15h10.24.025,mogelijke versie adaptive staircase builder,,2026.1.3,60.062549138171796,2026-04-13 15h10.26.871874 +0200,
4.5,ecc10pos,left,48,0,48,j,0,2.345946299999923,None,0,0,0,0,48,0,48,0,231.59673209999892,,,,,,,,,,,,,,,231.58632399999988,231.59673209999892,231.59673209999892,231.59673209999892,232.49131979999947,233.9589906000001,j,0,2.345946299999923,None,left,12,"[17, 20, 18, 19, 14, 15, 10, 11, 10, 12, 9, 13, 12, 13, 11, 12, 11, 13, 11, 14, 12]",21,shiftedgaze_L_12.png,j,0,1,results10,001,2026-04-13_15h10.24.025,mogelijke versie adaptive staircase builder,,2026.1.3,60.062549138171796,2026-04-13 15h10.26.871874 +0200,
4.5,ecc10pos,left,49,0,49,j,0,3.772477799997432,None,0,0,0,0,49,0,49,0,234.06047689999832,,,,,,,,,,,,,,,234.04944109999997,234.06047689999832,234.06047689999832,234.06047689999832,234.97468759999902,237.8416627000006,j,0,3.772477799997432,None,right,13,"[17, 20, 18, 19, 14, 15, 10, 11, 10, 12, 9, 13, 12, 13, 11, 12, 11, 13, 11, 14, 12]",21,shiftedgaze_R_13.png,j,0,1,results10,001,2026-04-13_15h10.24.025,mogelijke versie adaptive staircase builder,,2026.1.3,60.062549138171796,2026-04-13 15h10.26.871874 +0200,
4.5,ecc10pos,left,50,0,50,f,0,1.5853132999982336,None,0,0,0,0,50,0,50,0,237.94938159999947,,,,,,,,,,,,,,,237.93889069999932,237.94938159999947,237.94938159999947,237.94938159999947,238.8413064999986,239.542141599999,f,0,1.5853132999982336,None,direct,14,"[17, 20, 18, 19, 14, 15, 10, 11, 10, 12, 9, 13, 12, 13, 11, 12, 11, 13, 11, 14, 12]",21,shifteddirectgaze.png,f,0,1,results10,001,2026-04-13_15h10.24.025,mogelijke versie adaptive staircase builder,,2026.1.3,60.062549138171796,2026-04-13 15h10.26.871874 +0200,
4.5,ecc10pos,left,51,0,51,j,0,2.2932533000021067,None,0,0,0,0,51,0,51,0,239.7452904999991,,,,,,,,,,,,,,,239.7340347999998,239.7452904999991,239.7452904999991,239.7452904999991,240.55815559999974,242.04183030000058,j,0,2.2932533000021067,None,left,15,"[17, 20, 18, 19, 14, 15, 10, 11, 10, 12, 9, 13, 12, 13, 11, 12, 11, 13, 11, 14, 12]",21,shiftedgaze_L_15.png,j,0,1,results10,001,2026-04-13_15h10.24.025,mogelijke versie adaptive staircase builder,,2026.1.3,60.062549138171796,2026-04-13 15h10.26.871874 +0200,
4.5,ecc10pos,left,52,0,52,j,0,1.3119594999989204,None,0,0,0,0,52,0,52,0,242.35066499999812,,,,,,,,,,,,,,,242.34058000000005,242.35066499999812,242.35066499999812,242.35066499999812,243.04117000000042,243.67493159999867,j,0,1.3119594999989204,None,right,16,"[17, 20, 18, 19, 14, 15, 10, 11, 10, 12, 9, 13, 12, 13, 11, 12, 11, 13, 11, 14, 12]",21,shiftedgaze_R_16.png,j,0,1,results10,001,2026-04-13_15h10.24.025,mogelijke versie adaptive staircase builder,,2026.1.3,60.062549138171796,2026-04-13 15h10.26.871874 +0200,
4.5,ecc10pos,left,53,0,53,j,1,2.0067151000002923,None,0,0,0,0,53,0,53,0,243.77643069999976,,,,,,,,,,,,,,,243.76570359999823,243.77643069999976,243.77643069999976,243.77643069999976,244.6744323999992,245.7919460999983,j,1,2.0067151000002923,None,direct,17,"[17, 20, 18, 19, 14, 15, 10, 11, 10, 12, 9, 13, 12, 13, 11, 12, 11, 13, 11, 14, 12, 17]",22,shifteddirectgaze.png,j,1,1,results10,001,2026-04-13_15h10.24.025,mogelijke versie adaptive staircase builder,,2026.1.3,60.062549138171796,2026-04-13 15h10.26.871874 +0200,
4.5,ecc10pos,left,54,0,54,j,0,1.9132027000014205,None,0,0,0,0,54,0,54,0,245.8936207000006,,,,,,,,,,,,,,,245.88228589999926,245.8936207000006,245.8936207000006,245.8936207000006,246.80788050000046,247.80833749999874,j,0,1.9132027000014205,None,right,16,"[17, 20, 18, 19, 14, 15, 10, 11, 10, 12, 9, 13, 12, 13, 11, 12, 11, 13, 11, 14, 12, 17, 16]",23,shiftedgaze_R_16.png,j,0,1,results10,001,2026-04-13_15h10.24.025,mogelijke versie adaptive staircase builder,,2026.1.3,60.062549138171796,2026-04-13 15h10.26.871874 +0200,
4.5,ecc10pos,left,55,0,55,j,0,1.915473800003383,None,0,0,0,0,55,0,55,0,248.0271619999985,,,,,,,,,,,,,,,248.01572099999976,248.0271619999985,248.0271619999985,248.0271619999985,248.80895189999865,249.95845220000047,j,0,1.915473800003383,None,left,17,"[17, 20, 18, 19, 14, 15, 10, 11, 10, 12, 9, 13, 12, 13, 11, 12, 11, 13, 11, 14, 12, 17, 16]",23,shiftedgaze_L_17.png,j,0,1,results10,001,2026-04-13_15h10.24.025,mogelijke versie adaptive staircase builder,,2026.1.3,60.062549138171796,2026-04-13 15h10.26.871874 +0200,
4.5,ecc10pos,left,56,0,56,j,0,2.5258251999985077,None,0,0,0,0,56,0,56,0,250.07345509999868,,,,,,,,,,,,,,,250.06232679999812,250.07345509999868,250.07345509999868,250.07345509999868,250.95771139999852,252.60829540000123,j,0,2.5258251999985077,None,right,18,"[17, 20, 18, 19, 14, 15, 10, 11, 10, 12, 9, 13, 12, 13, 11, 12, 11, 13, 11, 14, 12, 17, 16]",23,shiftedgaze_R_18.png,j,0,1,results10,001,2026-04-13_15h10.24.025,mogelijke versie adaptive staircase builder,,2026.1.3,60.062549138171796,2026-04-13 15h10.26.871874 +0200,
4.5,ecc10pos,left,57,0,57,j,0,2.1059129999994184,None,0,0,0,0,57,0,57,0,252.7267114999995,,,,,,,,,,,,,,,252.71517099999983,252.7267114999995,252.7267114999995,252.7267114999995,253.60784200000126,254.84156440000152,j,0,2.1059129999994184,None,left,19,"[17, 20, 18, 19, 14, 15, 10, 11, 10, 12, 9, 13, 12, 13, 11, 12, 11, 13, 11, 14, 12, 17, 16]",23,shiftedgaze_L_19.png,j,0,1,results10,001,2026-04-13_15h10.24.025,mogelijke versie adaptive staircase builder,,2026.1.3,60.062549138171796,2026-04-13 15h10.26.871874 +0200,
4.5,ecc10pos,left,58,0,58,f,0,1.9345154000002367,None,0,0,0,0,58,0,58,0,254.9522966000004,,,,,,,,,,,,,,,254.9410237000011,254.9522966000004,254.9522966000004,254.9522966000004,255.84150809999846,256.89149259999976,f,0,1.9345154000002367,None,direct,20,"[17, 20, 18, 19, 14, 15, 10, 11, 10, 12, 9, 13, 12, 13, 11, 12, 11, 13, 11, 14, 12, 17, 16]",23,shifteddirectgaze.png,f,0,1,results10,001,2026-04-13_15h10.24.025,mogelijke versie adaptive staircase builder,,2026.1.3,60.062549138171796,2026-04-13 15h10.26.871874 +0200,
4.5,ecc10pos,left,59,0,59,f,1,2.206426700002339,None,0,0,0,0,59,0,59,0,257.07231169999795,,,,,,,,,,,,,,,257.06167579999965,257.07231169999795,257.07231169999795,257.07231169999795,257.89091420000113,259.29153139999835,f,1,2.206426700002339,None,right,20,"[17, 20, 18, 19, 14, 15, 10, 11, 10, 12, 9, 13, 12, 13, 11, 12, 11, 13, 11, 14, 12, 17, 16, 20]",24,shiftedgaze_R_20.png,f,1,1,results10,001,2026-04-13_15h10.24.025,mogelijke versie adaptive staircase builder,,2026.1.3,60.062549138171796,2026-04-13 15h10.26.871874 +0200,
4.5,ecc10pos,left,0,0,0,,,,,0,0,0,0,,,,,,,,,,,,,,,,,,,,,,,,,,,,,,,,,,,,,,results10,001,2026-04-13_15h10.24.025,mogelijke versie adaptive staircase builder,,2026.1.3,60.062549138171796,2026-04-13 15h10.26.871874 +0200,
12.5,ecc0,mid,0,0,0,j,1,2.896586599999864,None,0,1,1,1,0,0,0,0,259.4301517999993,,,,,,,,,,,,,259.33510150000075,259.33520449999924,259.41892759999973,259.4301517999993,260.34097770000153,259.4301517999993,259.4301517999993,262.3416255000011,j,1,2.896586599999864,None,direct,20,[],0,direct_gaze.png,j,1,2,results10,001,2026-04-13_15h10.24.025,mogelijke versie adaptive staircase builder,,2026.1.3,60.062549138171796,2026-04-13 15h10.26.871874 +0200,
12.5,ecc0,mid,1,0,1,f,0,2.048185799998464,None,0,1,1,1,1,0,1,0,262.4385040999987,,,,,,,,,,,,,,,262.42703809999875,262.4385040999987,263.34183219999977,262.4385040999987,262.4385040999987,264.4915402000006,f,0,2.048185799998464,None,direct,19,[19],1,direct_gaze.png,f,0,2,results10,001,2026-04-13_15h10.24.025,mogelijke versie adaptive staircase builder,,2026.1.3,60.062549138171796,2026-04-13 15h10.26.871874 +0200,
12.5,ecc0,mid,2,0,2,j,0,1.478185799998755,None,0,1,1,1,2,0,2,0,264.67249230000016,,,,,,,,,,,,,,,264.6623265999988,264.67249230000016,265.4909168999984,264.67249230000016,264.67249230000016,266.15794050000113,j,0,1.478185799998755,None,left,20,[19],1,gaze_L_20.png,j,0,2,results10,001,2026-04-13_15h10.24.025,mogelijke versie adaptive staircase builder,,2026.1.3,60.062549138171796,2026-04-13 15h10.26.871874 +0200,
12.5,ecc0,mid,3,0,3,j,1,1.6783725999994203,None,0,1,1,1,3,0,3,0,266.2563162000006,,,,,,,,,,,,,,,266.24368239999967,266.2563162000006,267.1575703999988,266.2563162000006,266.2563162000006,267.94141899999886,j,1,1.6783725999994203,None,direct,20,"[19, 20]",2,direct_gaze.png,j,1,2,results10,001,2026-04-13_15h10.24.025,mogelijke versie adaptive staircase builder,,2026.1.3,60.062549138171796,2026-04-13 15h10.26.871874 +0200,
12.5,ecc0,mid,4,0,4,j,1,2.2359128999996756,None,0,1,1,1,4,0,4,0,268.04273209999883,,,,,,,,,,,,,,,268.0317490999987,268.04273209999883,268.9409861999993,268.04273209999883,268.04273209999883,270.2913002999994,j,1,2.2359128999996756,None,direct,19,"[19, 20]",2,direct_gaze.png,j,1,2,results10,001,2026-04-13_15h10.24.025,mogelijke versie adaptive staircase builder,,2026.1.3,60.062549138171796,2026-04-13 15h10.26.871874 +0200,
12.5,ecc0,mid,5,0,5,f,0,1.6284846999988076,None,0,1,1,1,5,0,5,0,270.3874047999998,,,,,,,,,,,,,,,270.37659690000146,270.3874047999998,271.29084650000004,270.3874047999998,270.3874047999998,272.02527869999903,f,0,1.6284846999988076,None,direct,18,"[19, 20, 18]",3,direct_gaze.png,f,0,2,results10,001,2026-04-13_15h10.24.025,mogelijke versie adaptive staircase builder,,2026.1.3,60.062549138171796,2026-04-13 15h10.26.871874 +0200,
12.5,ecc0,mid,6,0,6,j,0,3.0315674000012223,None,0,1,1,1,6,0,6,0,272.2150667999995,,,,,,,,,,,,,,,272.2032743999989,272.2150667999995,273.0408544999991,272.2150667999995,272.2150667999995,275.2579436999986,j,0,3.0315674000012223,None,right,19,"[19, 20, 18]",3,gaze_R_19.png,j,0,2,results10,001,2026-04-13_15h10.24.025,mogelijke versie adaptive staircase builder,,2026.1.3,60.062549138171796,2026-04-13 15h10.26.871874 +0200,
12.5,ecc0,mid,7,0,7,f,1,1.8950764000001072,None,0,1,1,1,7,0,7,0,275.4474933999991,,,,,,,,,,,,,,,275.4371481999988,275.4474933999991,276.25738120000096,275.4474933999991,275.4474933999991,277.3579568999994,f,1,1.8950764000001072,None,right,20,"[19, 20, 18, 20]",4,gaze_R_20.png,f,1,2,results10,001,2026-04-13_15h10.24.025,mogelijke versie adaptive staircase builder,,2026.1.3,60.062549138171796,2026-04-13 15h10.26.871874 +0200,
12.5,ecc0,mid,8,0,8,j,1,1.4454101000010269,None,0,1,1,1,8,0,8,0,277.4572273999984,,,,,,,,,,,,,,,277.44649709999794,277.4572273999984,278.3573921999996,277.4572273999984,277.4572273999984,278.9076967000001,j,1,1.4454101000010269,None,direct,19,"[19, 20, 18, 20]",4,direct_gaze.png,j,1,2,results10,001,2026-04-13_15h10.24.025,mogelijke versie adaptive staircase builder,,2026.1.3,60.062549138171796,2026-04-13 15h10.26.871874 +0200,
12.5,ecc0,mid,9,0,9,j,1,1.783709400002408,None,0,1,1,1,9,0,9,0,279.0071606999991,,,,,,,,,,,,,,,278.9963013000015,279.0071606999991,279.907349000001,279.0071606999991,279.0071606999991,280.8079035999981,j,1,1.783709400002408,None,direct,18,"[19, 20, 18, 20]",4,direct_gaze.png,j,1,2,results10,001,2026-04-13_15h10.24.025,mogelijke versie adaptive staircase builder,,2026.1.3,60.062549138171796,2026-04-13 15h10.26.871874 +0200,
12.5,ecc0,mid,10,0,10,j,1,1.5923196000003372,None,0,1,1,1,10,0,10,0,280.90223200000037,,,,,,,,,,,,,,,280.89142659999925,280.90223200000037,281.8072816999993,280.90223200000037,280.90223200000037,282.50774960000126,j,1,1.5923196000003372,None,direct,17,"[19, 20, 18, 20]",4,direct_gaze.png,j,1,2,results10,001,2026-04-13_15h10.24.025,mogelijke versie adaptive staircase builder,,2026.1.3,60.062549138171796,2026-04-13 15h10.26.871874 +0200,
12.5,ecc0,mid,11,0,11,j,0,1.8734989999975369,None,0,1,1,1,11,0,11,0,282.6930997999989,,,,,,,,,,,,,,,282.6819284000012,282.6930997999989,283.50708459999805,282.6930997999989,282.6930997999989,284.5745567999984,j,0,1.8734989999975369,None,right,16,"[19, 20, 18, 20, 16]",5,gaze_R_16.png,j,0,2,results10,001,2026-04-13_15h10.24.025,mogelijke versie adaptive staircase builder,,2026.1.3,60.062549138171796,2026-04-13 15h10.26.871874 +0200,
12.5,ecc0,mid,12,0,12,j,0,1.8786092000009376,None,0,1,1,1,12,0,12,0,284.75996790000136,,,,,,,,,,,,,,,284.7499902999989,284.75996790000136,285.5740154000014,284.75996790000136,284.75996790000136,286.6409829000004,j,0,1.8786092000009376,None,left,17,"[19, 20, 18, 20, 16]",5,gaze_L_17.png,j,0,2,results10,001,2026-04-13_15h10.24.025,mogelijke versie adaptive staircase builder,,2026.1.3,60.062549138171796,2026-04-13 15h10.26.871874 +0200,
12.5,ecc0,mid,13,0,13,j,1,2.113594499998726,None,0,1,1,1,13,0,13,0,286.73297430000093,,,,,,,,,,,,,,,286.7224826999991,286.73297430000093,287.640387200001,286.73297430000093,286.73297430000093,288.8577054000016,j,1,2.113594499998726,None,direct,18,"[19, 20, 18, 20, 16, 18]",6,direct_gaze.png,j,1,2,results10,001,2026-04-13_15h10.24.025,mogelijke versie adaptive staircase builder,,2026.1.3,60.062549138171796,2026-04-13 15h10.26.871874 +0200,
12.5,ecc0,mid,14,0,14,j,0,1.7995483000013337,None,0,1,1,1,14,0,14,0,288.95108940000136,,,,,,,,,,,,,,,288.9392033000004,288.95108940000136,289.8573206000001,288.95108940000136,288.95108940000136,290.7577124999989,j,0,1.7995483000013337,None,left,17,"[19, 20, 18, 20, 16, 18, 17]",7,gaze_L_17.png,j,0,2,results10,001,2026-04-13_15h10.24.025,mogelijke versie adaptive staircase builder,,2026.1.3,60.062549138171796,2026-04-13 15h10.26.871874 +0200,
12.5,ecc0,mid,15,0,15,f,1,1.8347762999983388,None,0,1,1,1,15,0,15,0,290.939782999998,,,,,,,,,,,,,,,290.9297540000007,290.939782999998,291.75704939999923,290.939782999998,290.939782999998,292.790838500001,f,1,1.8347762999983388,None,left,18,"[19, 20, 18, 20, 16, 18, 17, 18]",8,gaze_L_18.png,f,1,2,results10,001,2026-04-13_15h10.24.025,mogelijke versie adaptive staircase builder,,2026.1.3,60.062549138171796,2026-04-13 15h10.26.871874 +0200,
12.5,ecc0,mid,16,0,16,f,0,1.8925071000012395,None,0,1,1,1,16,0,16,0,292.88215769999806,,,,,,,,,,,,,,,292.8717715999992,292.88215769999806,293.7905129999999,292.88215769999806,292.88215769999806,294.79103229999964,f,0,1.8925071000012395,None,direct,17,"[19, 20, 18, 20, 16, 18, 17, 18, 17]",9,direct_gaze.png,f,0,2,results10,001,2026-04-13_15h10.24.025,mogelijke versie adaptive staircase builder,,2026.1.3,60.062549138171796,2026-04-13 15h10.26.871874 +0200,
12.5,ecc0,mid,17,0,17,f,1,1.734484100001282,None,0,1,1,1,17,0,17,0,294.9760964999987,,,,,,,,,,,,,,,294.96455250000145,294.9760964999987,295.7903029000008,294.9760964999987,294.9760964999987,296.72425920000023,f,1,1.734484100001282,None,right,18,"[19, 20, 18, 20, 16, 18, 17, 18, 17, 18]",10,gaze_R_18.png,f,1,2,results10,001,2026-04-13_15h10.24.025,mogelijke versie adaptive staircase builder,,2026.1.3,60.062549138171796,2026-04-13 15h10.26.871874 +0200,
12.5,ecc0,mid,18,0,18,j,0,1.8064436999993632,None,0,1,1,1,18,0,18,0,296.81617520000145,,,,,,,,,,,,,,,296.80550550000044,296.81617520000145,297.7238305999999,296.81617520000145,296.81617520000145,298.62432089999857,j,0,1.8064436999993632,None,left,17,"[19, 20, 18, 20, 16, 18, 17, 18, 17, 18, 17]",11,gaze_L_17.png,j,0,2,results10,001,2026-04-13_15h10.24.025,mogelijke versie adaptive staircase builder,,2026.1.3,60.062549138171796,2026-04-13 15h10.26.871874 +0200,
12.5,ecc0,mid,19,0,19,f,1,1.5949500999995507,None,0,1,1,1,19,0,19,0,298.7156763999992,,,,,,,,,,,,,,,298.7050506000014,298.7156763999992,299.623622799998,298.7156763999992,298.7156763999992,300.3244556999998,f,1,1.5949500999995507,None,right,18,"[19, 20, 18, 20, 16, 18, 17, 18, 17, 18, 17, 18]",12,gaze_R_18.png,f,1,2,results10,001,2026-04-13_15h10.24.025,mogelijke versie adaptive staircase builder,,2026.1.3,60.062549138171796,2026-04-13 15h10.26.871874 +0200,
12.5,ecc0,mid,20,0,20,j,0,1.6436911999990116,None,0,1,1,1,20,0,20,0,300.4189460999987,,,,,,,,,,,,,,,300.4083783999995,300.4189460999987,301.32365859999845,300.4189460999987,300.4189460999987,302.0742098999981,j,0,1.6436911999990116,None,left,17,"[19, 20, 18, 20, 16, 18, 17, 18, 17, 18, 17, 18, 17]",13,gaze_L_17.png,j,0,2,results10,001,2026-04-13_15h10.24.025,mogelijke versie adaptive staircase builder,,2026.1.3,60.062549138171796,2026-04-13 15h10.26.871874 +0200,
12.5,ecc0,mid,21,0,21,j,0,1.88176420000309,None,0,1,1,1,21,0,21,0,302.1657782000002,,,,,,,,,,,,,,,302.1552225000014,302.1657782000002,303.0736298000011,302.1657782000002,302.1657782000002,304.0574062000014,j,0,1.88176420000309,None,right,18,"[19, 20, 18, 20, 16, 18, 17, 18, 17, 18, 17, 18, 17]",13,gaze_R_18.png,j,0,2,results10,001,2026-04-13_15h10.24.025,mogelijke versie adaptive staircase builder,,2026.1.3,60.062549138171796,2026-04-13 15h10.26.871874 +0200,
12.5,ecc0,mid,22,0,22,f,0,2.273723099999188,None,0,1,1,1,22,0,22,0,304.1489827000005,,,,,,,,,,,,,,,304.1382201999986,304.1489827000005,305.0569209999994,304.1489827000005,304.1489827000005,306.42420389999825,f,0,2.273723099999188,None,direct,19,"[19, 20, 18, 20, 16, 18, 17, 18, 17, 18, 17, 18, 17]",13,direct_gaze.png,f,0,2,results10,001,2026-04-13_15h10.24.025,mogelijke versie adaptive staircase builder,,2026.1.3,60.062549138171796,2026-04-13 15h10.26.871874 +0200,
12.5,ecc0,mid,23,0,23,j,0,1.8052122999979474,None,0,1,1,1,23,0,23,0,306.52134880000085,,,,,,,,,,,,,,,306.5106272999983,306.52134880000085,307.42347230000087,306.52134880000085,306.52134880000085,308.34072709999964,j,0,1.8052122999979474,None,right,20,"[19, 20, 18, 20, 16, 18, 17, 18, 17, 18, 17, 18, 17]",13,gaze_R_20.png,j,0,2,results10,001,2026-04-13_15h10.24.025,mogelijke versie adaptive staircase builder,,2026.1.3,60.062549138171796,2026-04-13 15h10.26.871874 +0200,
12.5,ecc0,mid,24,0,24,j,0,1.925527700001112,None,0,1,1,1,24,0,24,0,308.43303730000116,,,,,,,,,,,,,,,308.42220109999835,308.43303730000116,309.3403154000007,308.43303730000116,308.43303730000116,310.37409000000116,j,0,1.925527700001112,None,left,20,"[19, 20, 18, 20, 16, 18, 17, 18, 17, 18, 17, 18, 17]",13,gaze_L_20.png,j,0,2,results10,001,2026-04-13_15h10.24.025,mogelijke versie adaptive staircase builder,,2026.1.3,60.062549138171796,2026-04-13 15h10.26.871874 +0200,
12.5,ecc0,mid,25,0,25,f,0,1.7725957000002381,None,0,1,1,1,25,0,25,0,310.46618379999927,,,,,,,,,,,,,,,310.4548160999984,310.46618379999927,311.37357559999873,310.46618379999927,310.46618379999927,312.24078689999806,f,0,1.7725957000002381,None,direct,20,"[19, 20, 18, 20, 16, 18, 17, 18, 17, 18, 17, 18, 17]",13,direct_gaze.png,f,0,2,results10,001,2026-04-13_15h10.24.025,mogelijke versie adaptive staircase builder,,2026.1.3,60.062549138171796,2026-04-13 15h10.26.871874 +0200,
12.5,ecc0,mid,26,0,26,j,0,2.0984037999987777,None,0,1,1,1,26,0,26,0,312.33272020000004,,,,,,,,,,,,,,,312.32261989999824,312.33272020000004,313.24010289999933,312.33272020000004,312.33272020000004,314.4407633999981,j,0,2.0984037999987777,None,left,20,"[19, 20, 18, 20, 16, 18, 17, 18, 17, 18, 17, 18, 17]",13,gaze_L_20.png,j,0,2,results10,001,2026-04-13_15h10.24.025,mogelijke versie adaptive staircase builder,,2026.1.3,60.062549138171796,2026-04-13 15h10.26.871874 +0200,
12.5,ecc0,mid,27,0,27,j,0,1.9916023000005225,None,0,1,1,1,27,0,27,0,314.5350298000012,,,,,,,,,,,,,,,314.52412950000144,314.5350298000012,315.4401179000015,314.5350298000012,314.5350298000012,316.5405987999984,j,0,1.9916023000005225,None,right,20,"[19, 20, 18, 20, 16, 18, 17, 18, 17, 18, 17, 18, 17]",13,gaze_R_20.png,j,0,2,results10,001,2026-04-13_15h10.24.025,mogelijke versie adaptive staircase builder,,2026.1.3,60.062549138171796,2026-04-13 15h10.26.871874 +0200,
12.5,ecc0,mid,28,0,28,j,0,2.036014699999214,None,0,1,1,1,28,0,28,0,316.63454769999953,,,,,,,,,,,,,,,316.6233941999999,316.63454769999953,317.5401103000004,316.63454769999953,316.63454769999953,318.67409300000145,j,0,2.036014699999214,None,left,20,"[19, 20, 18, 20, 16, 18, 17, 18, 17, 18, 17, 18, 17]",13,gaze_L_20.png,j,0,2,results10,001,2026-04-13_15h10.24.025,mogelijke versie adaptive staircase builder,,2026.1.3,60.062549138171796,2026-04-13 15h10.26.871874 +0200,
12.5,ecc0,mid,29,0,29,f,0,1.9265750999984448,None,0,1,1,1,29,0,29,0,318.7680440000004,,,,,,,,,,,,,,,318.7572871000011,318.7680440000004,319.67348779999884,318.7680440000004,318.7680440000004,320.70731779999915,f,0,1.9265750999984448,None,direct,20,"[19, 20, 18, 20, 16, 18, 17, 18, 17, 18, 17, 18, 17]",13,direct_gaze.png,f,0,2,results10,001,2026-04-13_15h10.24.025,mogelijke versie adaptive staircase builder,,2026.1.3,60.062549138171796,2026-04-13 15h10.26.871874 +0200,
12.5,ecc0,mid,30,0,30,j,1,2.517930799996975,None,0,1,1,1,30,0,30,0,320.8006988999987,,,,,,,,,,,,,,,320.7893210000002,320.8006988999987,321.70680419999917,320.8006988999987,320.8006988999987,323.3239057999999,j,1,2.517930799996975,None,direct,20,"[19, 20, 18, 20, 16, 18, 17, 18, 17, 18, 17, 18, 17, 20]",14,direct_gaze.png,j,1,2,results10,001,2026-04-13_15h10.24.025,mogelijke versie adaptive staircase builder,,2026.1.3,60.062549138171796,2026-04-13 15h10.26.871874 +0200,
12.5,ecc0,mid,31,0,31,j,0,2.306085599997459,None,0,1,1,1,31,0,31,0,323.50848140000016,,,,,,,,,,,,,,,323.4978569999985,323.50848140000016,324.32332459999816,323.50848140000016,323.50848140000016,325.82367760000125,j,0,2.306085599997459,None,left,19,"[19, 20, 18, 20, 16, 18, 17, 18, 17, 18, 17, 18, 17, 20, 19]",15,gaze_L_19.png,j,0,2,results10,001,2026-04-13_15h10.24.025,mogelijke versie adaptive staircase builder,,2026.1.3,60.062549138171796,2026-04-13 15h10.26.871874 +0200,
12.5,ecc0,mid,32,0,32,j,0,1.6438172999987728,None,0,1,1,1,32,0,32,0,325.91483470000094,,,,,,,,,,,,,,,325.9042807000005,325.91483470000094,326.8234741999986,325.91483470000094,325.91483470000094,327.5743318999994,j,0,1.6438172999987728,None,right,20,"[19, 20, 18, 20, 16, 18, 17, 18, 17, 18, 17, 18, 17, 20, 19]",15,gaze_R_20.png,j,0,2,results10,001,2026-04-13_15h10.24.025,mogelijke versie adaptive staircase builder,,2026.1.3,60.062549138171796,2026-04-13 15h10.26.871874 +0200,
12.5,ecc0,mid,33,0,33,j,1,1.8995051000019885,None,0,1,1,1,33,0,33,0,327.66701939999984,,,,,,,,,,,,,,,327.6555096000011,327.66701939999984,328.59001160000116,327.66701939999984,327.66701939999984,329.5733298999985,j,1,1.8995051000019885,None,direct,20,"[19, 20, 18, 20, 16, 18, 17, 18, 17, 18, 17, 18, 17, 20, 19, 20]",16,direct_gaze.png,j,1,2,results10,001,2026-04-13_15h10.24.025,mogelijke versie adaptive staircase builder,,2026.1.3,60.062549138171796,2026-04-13 15h10.26.871874 +0200,
12.5,ecc0,mid,34,0,34,f,0,1.7114689000009093,None,0,1,1,1,34,0,34,0,329.66312219999963,,,,,,,,,,,,,,,329.65261069999906,329.66312219999963,330.57330300000103,329.66312219999963,329.66312219999963,331.3903644999991,f,0,1.7114689000009093,None,direct,19,"[19, 20, 18, 20, 16, 18, 17, 18, 17, 18, 17, 18, 17, 20, 19, 20, 19]",17,direct_gaze.png,f,0,2,results10,001,2026-04-13_15h10.24.025,mogelijke versie adaptive staircase builder,,2026.1.3,60.062549138171796,2026-04-13 15h10.26.871874 +0200,
12.5,ecc0,mid,35,0,35,f,1,2.1668143999995664,None,0,1,1,1,35,0,35,0,331.4804498000012,,,,,,,,,,,,,,,331.46944559999974,331.4804498000012,332.389901999999,331.4804498000012,331.4804498000012,333.6568632999988,f,1,2.1668143999995664,None,right,20,"[19, 20, 18, 20, 16, 18, 17, 18, 17, 18, 17, 18, 17, 20, 19, 20, 19, 20]",18,gaze_R_20.png,f,1,2,results10,001,2026-04-13_15h10.24.025,mogelijke versie adaptive staircase builder,,2026.1.3,60.062549138171796,2026-04-13 15h10.26.871874 +0200,
12.5,ecc0,mid,36,0,36,j,1,1.810139799999888,None,0,1,1,1,36,0,36,0,333.74842369999897,,,,,,,,,,,,,,,333.73772069999904,333.74842369999897,334.6562907000007,333.74842369999897,333.74842369999897,335.57384359999924,j,1,1.810139799999888,None,direct,19,"[19, 20, 18, 20, 16, 18, 17, 18, 17, 18, 17, 18, 17, 20, 19, 20, 19, 20]",18,direct_gaze.png,j,1,2,results10,001,2026-04-13_15h10.24.025,mogelijke versie adaptive staircase builder,,2026.1.3,60.062549138171796,2026-04-13 15h10.26.871874 +0200,
12.5,ecc0,mid,37,0,37,f,1,2.678280399999494,None,0,1,1,1,37,0,37,0,335.664308899999,,,,,,,,,,,,,,,335.6537236000004,335.664308899999,336.57317949999924,335.664308899999,335.664308899999,338.35681770000156,f,1,2.678280399999494,None,right,18,"[19, 20, 18, 20, 16, 18, 17, 18, 17, 18, 17, 18, 17, 20, 19, 20, 19, 20]",18,gaze_R_18.png,f,1,2,results10,001,2026-04-13_15h10.24.025,mogelijke versie adaptive staircase builder,,2026.1.3,60.062549138171796,2026-04-13 15h10.26.871874 +0200,
12.5,ecc0,mid,38,0,38,f,1,1.9222039000014775,None,0,1,1,1,38,0,38,0,338.45241309999983,,,,,,,,,,,,,,,338.43901370000094,338.45241309999983,339.3566247999988,338.45241309999983,338.45241309999983,340.3902710000002,f,1,1.9222039000014775,None,left,17,"[19, 20, 18, 20, 16, 18, 17, 18, 17, 18, 17, 18, 17, 20, 19, 20, 19, 20]",18,gaze_L_17.png,f,1,2,results10,001,2026-04-13_15h10.24.025,mogelijke versie adaptive staircase builder,,2026.1.3,60.062549138171796,2026-04-13 15h10.26.871874 +0200,
12.5,ecc0,mid,39,0,39,f,1,1.9574259000000893,None,0,1,1,1,39,0,39,0,340.4813783999998,,,,,,,,,,,,,,,340.47039909999876,340.4813783999998,341.3898569000012,340.4813783999998,340.4813783999998,342.44048660000044,f,1,1.9574259000000893,None,right,16,"[19, 20, 18, 20, 16, 18, 17, 18, 17, 18, 17, 18, 17, 20, 19, 20, 19, 20]",18,gaze_R_16.png,f,1,2,results10,001,2026-04-13_15h10.24.025,mogelijke versie adaptive staircase builder,,2026.1.3,60.062549138171796,2026-04-13 15h10.26.871874 +0200,
12.5,ecc0,mid,40,0,40,f,1,2.005366800000047,None,0,1,1,1,40,0,40,0,342.6251755000012,,,,,,,,,,,,,,,342.6141056000015,342.6251755000012,343.43957880000016,342.6251755000012,342.6251755000012,344.64005140000154,f,1,2.005366800000047,None,right,15,"[19, 20, 18, 20, 16, 18, 17, 18, 17, 18, 17, 18, 17, 20, 19, 20, 19, 20]",18,gaze_R_15.png,f,1,2,results10,001,2026-04-13_15h10.24.025,mogelijke versie adaptive staircase builder,,2026.1.3,60.062549138171796,2026-04-13 15h10.26.871874 +0200,
12.5,ecc0,mid,41,0,41,j,0,1.6793464000002132,None,0,1,1,1,41,0,41,0,344.82322719999866,,,,,,,,,,,,,,,344.81200549999994,344.82322719999866,345.63958959999945,344.82322719999866,344.82322719999866,346.5063951000011,j,0,1.6793464000002132,None,left,14,"[19, 20, 18, 20, 16, 18, 17, 18, 17, 18, 17, 18, 17, 20, 19, 20, 19, 20, 14]",19,gaze_L_14.png,j,0,2,results10,001,2026-04-13_15h10.24.025,mogelijke versie adaptive staircase builder,,2026.1.3,60.062549138171796,2026-04-13 15h10.26.871874 +0200,
12.5,ecc0,mid,42,0,42,j,0,1.7895409000011568,None,0,1,1,1,42,0,42,0,346.6890370000001,,,,,,,,,,,,,,,346.67781240000113,346.6890370000001,347.50633019999805,346.6890370000001,346.6890370000001,348.48993920000066,j,0,1.7895409000011568,None,left,15,"[19, 20, 18, 20, 16, 18, 17, 18, 17, 18, 17, 18, 17, 20, 19, 20, 19, 20, 14]",19,gaze_L_15.png,j,0,2,results10,001,2026-04-13_15h10.24.025,mogelijke versie adaptive staircase builder,,2026.1.3,60.062549138171796,2026-04-13 15h10.26.871874 +0200,
12.5,ecc0,mid,43,0,43,j,0,1.3844495000012103,None,0,1,1,1,43,0,43,0,349.55012590000115,,,,,,,,,,,,,,,349.5370006999983,349.55012590000115,349.55012590000115,349.55012590000115,349.55012590000115,350.9401546000008,j,0,1.3844495000012103,None,left,16,"[19, 20, 18, 20, 16, 18, 17, 18, 17, 18, 17, 18, 17, 20, 19, 20, 19, 20, 14]",19,gaze_L_16.png,j,0,2,results10,001,2026-04-13_15h10.24.025,mogelijke versie adaptive staircase builder,,2026.1.3,60.062549138171796,2026-04-13 15h10.26.871874 +0200,
12.5,ecc0,mid,44,0,44,f,1,2.7729321000006166,None,0,1,1,1,44,0,44,0,351.034004000001,,,,,,,,,,,,,,,351.02381890000106,351.034004000001,351.9395484000015,351.034004000001,351.034004000001,353.8232305999991,f,1,2.7729321000006166,None,left,17,"[19, 20, 18, 20, 16, 18, 17, 18, 17, 18, 17, 18, 17, 20, 19, 20, 19, 20, 14, 17]",20,gaze_L_17.png,f,1,2,results10,001,2026-04-13_15h10.24.025,mogelijke versie adaptive staircase builder,,2026.1.3,60.062549138171796,2026-04-13 15h10.26.871874 +0200,
12.5,ecc0,mid,45,0,45,f,0,3.237476999998762,None,0,1,1,1,45,0,45,0,353.9210614000003,,,,,,,,,,,,,,,353.9105778000012,353.9210614000003,354.8228987000002,353.9210614000003,353.9210614000003,357.172892999999,f,0,3.237476999998762,None,direct,16,"[19, 20, 18, 20, 16, 18, 17, 18, 17, 18, 17, 18, 17, 20, 19, 20, 19, 20, 14, 17, 16]",21,direct_gaze.png,f,0,2,results10,001,2026-04-13_15h10.24.025,mogelijke versie adaptive staircase builder,,2026.1.3,60.062549138171796,2026-04-13 15h10.26.871874 +0200,
12.5,ecc0,mid,46,0,46,j,1,2.0030957000017224,None,0,1,1,1,46,0,46,0,357.26746840000123,,,,,,,,,,,,,,,357.25574229999984,357.26746840000123,358.17286160000003,357.26746840000123,357.26746840000123,359.27322749999803,j,1,2.0030957000017224,None,direct,17,"[19, 20, 18, 20, 16, 18, 17, 18, 17, 18, 17, 18, 17, 20, 19, 20, 19, 20, 14, 17, 16, 17]",22,direct_gaze.png,j,1,2,results10,001,2026-04-13_15h10.24.025,mogelijke versie adaptive staircase builder,,2026.1.3,60.062549138171796,2026-04-13 15h10.26.871874 +0200,
12.5,ecc0,mid,47,0,47,f,1,1.5748650999994425,None,0,1,1,1,47,0,47,0,359.3676723999997,,,,,,,,,,,,,,,359.3572964999985,359.3676723999997,360.27287330000036,359.3676723999997,359.3676723999997,360.95678000000044,f,1,1.5748650999994425,None,left,16,"[19, 20, 18, 20, 16, 18, 17, 18, 17, 18, 17, 18, 17, 20, 19, 20, 19, 20, 14, 17, 16, 17]",22,gaze_L_16.png,f,1,2,results10,001,2026-04-13_15h10.24.025,mogelijke versie adaptive staircase builder,,2026.1.3,60.062549138171796,2026-04-13 15h10.26.871874 +0200,
12.5,ecc0,mid,48,0,48,j,0,1.7244419999988168,None,0,1,1,1,48,0,48,0,361.05018800000107,,,,,,,,,,,,,,,361.0390660000012,361.05018800000107,361.95616130000053,361.05018800000107,361.05018800000107,362.7899565000007,j,0,1.7244419999988168,None,left,15,"[19, 20, 18, 20, 16, 18, 17, 18, 17, 18, 17, 18, 17, 20, 19, 20, 19, 20, 14, 17, 16, 17, 15]",23,gaze_L_15.png,j,0,2,results10,001,2026-04-13_15h10.24.025,mogelijke versie adaptive staircase builder,,2026.1.3,60.062549138171796,2026-04-13 15h10.26.871874 +0200,
12.5,ecc0,mid,49,0,49,j,0,3.128950900001655,None,0,1,1,1,49,0,49,0,362.88565519999975,,,,,,,,,,,,,,,362.87238140000045,362.88565519999975,363.7895776000005,362.88565519999975,362.88565519999975,366.023054199999,j,0,3.128950900001655,None,left,16,"[19, 20, 18, 20, 16, 18, 17, 18, 17, 18, 17, 18, 17, 20, 19, 20, 19, 20, 14, 17, 16, 17, 15]",23,gaze_L_16.png,j,0,2,results10,001,2026-04-13_15h10.24.025,mogelijke versie adaptive staircase builder,,2026.1.3,60.062549138171796,2026-04-13 15h10.26.871874 +0200,
12.5,ecc0,mid,50,0,50,f,1,3.6733260000000882,None,0,1,1,1,50,0,50,0,366.237326399998,,,,,,,,,,,,,,,366.2272945000004,366.237326399998,367.02273649999916,366.237326399998,366.237326399998,369.92322409999906,f,1,3.6733260000000882,None,right,17,"[19, 20, 18, 20, 16, 18, 17, 18, 17, 18, 17, 18, 17, 20, 19, 20, 19, 20, 14, 17, 16, 17, 15, 17]",24,gaze_R_17.png,f,1,2,results10,001,2026-04-13_15h10.24.025,mogelijke versie adaptive staircase builder,,2026.1.3,60.062549138171796,2026-04-13 15h10.26.871874 +0200,
12.5,ecc0,mid,51,0,51,f,1,4.585924999999406,None,0,1,1,1,51,0,51,0,370.0209489000008,,,,,,,,,,,,,,,370.0100362999983,370.0209489000008,370.9226156000004,370.0209489000008,370.0209489000008,374.62308180000036,f,1,4.585924999999406,None,right,16,"[19, 20, 18, 20, 16, 18, 17, 18, 17, 18, 17, 18, 17, 20, 19, 20, 19, 20, 14, 17, 16, 17, 15, 17]",24,gaze_R_16.png,f,1,2,results10,001,2026-04-13_15h10.24.025,mogelijke versie adaptive staircase builder,,2026.1.3,60.062549138171796,2026-04-13 15h10.26.871874 +0200,
12.5,ecc0,mid,52,0,52,j,0,1.9492987000012363,None,0,1,1,1,52,0,52,0,374.7214156000009,,,,,,,,,,,,,,,374.7081400999996,374.7214156000009,375.6226969999989,374.7214156000009,374.7214156000009,376.67330109999966,j,0,1.9492987000012363,None,right,15,"[19, 20, 18, 20, 16, 18, 17, 18, 17, 18, 17, 18, 17, 20, 19, 20, 19, 20, 14, 17, 16, 17, 15, 17, 15]",25,gaze_R_15.png,j,0,2,results10,001,2026-04-13_15h10.24.025,mogelijke versie adaptive staircase builder,,2026.1.3,60.062549138171796,2026-04-13 15h10.26.871874 +0200,
12.5,ecc0,mid,53,0,53,j,1,1.8065797999988717,None,0,1,1,1,53,0,53,0,376.7680737999981,,,,,,,,,,,,,,,376.75724830000036,376.7680737999981,377.6726032000006,376.7680737999981,376.7680737999981,378.58971530000053,j,1,1.8065797999988717,None,direct,16,"[19, 20, 18, 20, 16, 18, 17, 18, 17, 18, 17, 18, 17, 20, 19, 20, 19, 20, 14, 17, 16, 17, 15, 17, 15, 16]",26,direct_gaze.png,j,1,2,results10,001,2026-04-13_15h10.24.025,mogelijke versie adaptive staircase builder,,2026.1.3,60.062549138171796,2026-04-13 15h10.26.871874 +0200,
12.5,ecc0,mid,54,0,54,f,1,3.366222699998616,None,0,1,1,1,54,0,54,0,378.68844420000096,,,,,,,,,,,,,,,378.6767136999988,378.68844420000096,379.58935610000117,378.68844420000096,378.68844420000096,382.0564009000009,f,1,3.366222699998616,None,left,15,"[19, 20, 18, 20, 16, 18, 17, 18, 17, 18, 17, 18, 17, 20, 19, 20, 19, 20, 14, 17, 16, 17, 15, 17, 15, 16]",26,gaze_L_15.png,f,1,2,results10,001,2026-04-13_15h10.24.025,mogelijke versie adaptive staircase builder,,2026.1.3,60.062549138171796,2026-04-13 15h10.26.871874 +0200,
12.5,ecc0,mid,55,0,55,f,1,1.655516800001351,None,0,1,1,1,55,0,55,0,382.24715260000085,,,,,,,,,,,,,,,382.2365948000006,382.24715260000085,383.0559389000009,382.24715260000085,382.24715260000085,383.90648800000054,f,1,1.655516800001351,None,right,14,"[19, 20, 18, 20, 16, 18, 17, 18, 17, 18, 17, 18, 17, 20, 19, 20, 19, 20, 14, 17, 16, 17, 15, 17, 15, 16]",26,gaze_R_14.png,f,1,2,results10,001,2026-04-13_15h10.24.025,mogelijke versie adaptive staircase builder,,2026.1.3,60.062549138171796,2026-04-13 15h10.26.871874 +0200,
12.5,ecc0,mid,56,0,56,j,1,1.571325099997921,None,0,1,1,1,56,0,56,0,384.0032237000014,,,,,,,,,,,,,,,383.99219280000034,384.0032237000014,384.9058420000001,384.0032237000014,384.0032237000014,385.5910499999991,j,1,1.571325099997921,None,direct,13,"[19, 20, 18, 20, 16, 18, 17, 18, 17, 18, 17, 18, 17, 20, 19, 20, 19, 20, 14, 17, 16, 17, 15, 17, 15, 16]",26,direct_gaze.png,j,1,2,results10,001,2026-04-13_15h10.24.025,mogelijke versie adaptive staircase builder,,2026.1.3,60.062549138171796,2026-04-13 15h10.26.871874 +0200,
12.5,ecc0,mid,57,0,57,j,0,2.00702309999906,None,0,1,1,1,57,0,57,0,385.78352559999985,,,,,,,,,,,,,,,385.7712552000012,385.78352559999985,386.60588859999916,385.78352559999985,385.78352559999985,387.80627620000087,j,0,2.00702309999906,None,right,12,"[19, 20, 18, 20, 16, 18, 17, 18, 17, 18, 17, 18, 17, 20, 19, 20, 19, 20, 14, 17, 16, 17, 15, 17, 15, 16, 12]",27,gaze_R_12.png,j,0,2,results10,001,2026-04-13_15h10.24.025,mogelijke versie adaptive staircase builder,,2026.1.3,60.062549138171796,2026-04-13 15h10.26.871874 +0200,
12.5,ecc0,mid,58,0,58,j,0,2.223463399997854,None,0,1,1,1,58,0,58,0,387.9911601999993,,,,,,,,,,,,,,,387.9812727999997,387.9911601999993,388.80578610000157,387.9911601999993,387.9911601999993,390.22309719999976,j,0,2.223463399997854,None,right,13,"[19, 20, 18, 20, 16, 18, 17, 18, 17, 18, 17, 18, 17, 20, 19, 20, 19, 20, 14, 17, 16, 17, 15, 17, 15, 16, 12]",27,gaze_R_13.png,j,0,2,results10,001,2026-04-13_15h10.24.025,mogelijke versie adaptive staircase builder,,2026.1.3,60.062549138171796,2026-04-13 15h10.26.871874 +0200,
12.5,ecc0,mid,59,0,59,j,0,1.9206068000021332,None,0,1,1,1,59,0,59,0,390.31819059999907,,,,,,,,,,,,,,,390.30710850000105,390.31819059999907,391.22262599999885,390.31819059999907,390.31819059999907,392.23952500000087,j,0,1.9206068000021332,None,left,14,"[19, 20, 18, 20, 16, 18, 17, 18, 17, 18, 17, 18, 17, 20, 19, 20, 19, 20, 14, 17, 16, 17, 15, 17, 15, 16, 12]",27,gaze_L_14.png,j,0,2,results10,001,2026-04-13_15h10.24.025,mogelijke versie adaptive staircase builder,,2026.1.3,60.062549138171796,2026-04-13 15h10.26.871874 +0200,
12.5,ecc0,mid,1,1,0,,,,,0,1,1,1,,,,,,,,,,,,,,,,,,,,,,,,,,,,,,,,,,,,,,results10,001,2026-04-13_15h10.24.025,mogelijke versie adaptive staircase builder,,2026.1.3,60.062549138171796,2026-04-13 15h10.26.871874 +0200,
20.5,ecc10neg,right,0,0,0,j,0,2.1896866999995837,None,0,2,2,2,0,0,0,0,392.46516340000016,,,,,,,,,,,,,392.2421331000005,392.2421792999994,392.4532131999986,392.46516340000016,392.46516340000016,393.2558520999992,392.46516340000016,394.65695069999856,j,0,2.1896866999995837,None,right,20,[],0,shiftedgaze_R_20.png,j,0,3,results10,001,2026-04-13_15h10.24.025,mogelijke versie adaptive staircase builder,,2026.1.3,60.062549138171796,2026-04-13 15h10.26.871874 +0200,
20.5,ecc10neg,right,1,0,1,j,0,1.7062275999996928,None,0,2,2,2,1,0,1,0,394.86832610000056,,,,,,,,,,,,,,,394.8567987999995,394.86832610000056,394.86832610000056,395.6721510999996,394.86832610000056,396.589508699999,j,0,1.7062275999996928,None,left,20,[],0,shiftedgaze_L_20.png,j,0,3,results10,001,2026-04-13_15h10.24.025,mogelijke versie adaptive staircase builder,,2026.1.3,60.062549138171796,2026-04-13 15h10.26.871874 +0200,
20.5,ecc10neg,right,2,0,2,j,0,1.8376997000013944,None,0,2,2,2,2,0,2,0,396.7128107999997,,,,,,,,,,,,,,,396.701690599999,396.7128107999997,396.7128107999997,397.5888182999988,396.7128107999997,398.55603119999796,j,0,1.8376997000013944,None,right,20,[],0,shiftedgaze_R_20.png,j,0,3,results10,001,2026-04-13_15h10.24.025,mogelijke versie adaptive staircase builder,,2026.1.3,60.062549138171796,2026-04-13 15h10.26.871874 +0200,
20.5,ecc10neg,right,3,0,3,j,0,1.7923369999989518,None,0,2,2,2,3,0,3,0,398.6705019000001,,,,,,,,,,,,,,,398.659436599999,398.6705019000001,398.6705019000001,399.55584219999946,398.6705019000001,400.4725889000001,j,0,1.7923369999989518,None,left,20,[],0,shiftedgaze_L_20.png,j,0,3,results10,001,2026-04-13_15h10.24.025,mogelijke versie adaptive staircase builder,,2026.1.3,60.062549138171796,2026-04-13 15h10.26.871874 +0200,
20.5,ecc10neg,right,4,0,4,f,1,2.0974962000000232,None,0,2,2,2,4,0,4,0,400.5970519000002,,,,,,,,,,,,,,,400.5854185999997,400.5970519000002,400.5970519000002,401.47218299999804,400.5970519000002,402.70620589999817,f,1,2.0974962000000232,None,right,20,[20],1,shiftedgaze_R_20.png,f,1,3,results10,001,2026-04-13_15h10.24.025,mogelijke versie adaptive staircase builder,,2026.1.3,60.062549138171796,2026-04-13 15h10.26.871874 +0200,
20.5,ecc10neg,right,5,0,5,f,1,2.839969499997096,None,0,2,2,2,5,0,5,0,402.90268899999865,,,,,,,,,,,,,,,402.89216999999917,402.90268899999865,402.90268899999865,403.70555500000046,402.90268899999865,405.75600119999945,f,1,2.839969499997096,None,right,19,[20],1,shiftedgaze_R_19.png,f,1,3,results10,001,2026-04-13_15h10.24.025,mogelijke versie adaptive staircase builder,,2026.1.3,60.062549138171796,2026-04-13 15h10.26.871874 +0200,
20.5,ecc10neg,right,6,0,6,j,0,1.8656535000009171,None,0,2,2,2,6,0,6,0,405.9488617999996,,,,,,,,,,,,,,,405.9376952999992,405.9488617999996,405.9488617999996,406.75562830000126,405.9488617999996,407.8225268999995,j,0,1.8656535000009171,None,right,18,"[20, 18]",2,shiftedgaze_R_18.png,j,0,3,results10,001,2026-04-13_15h10.24.025,mogelijke versie adaptive staircase builder,,2026.1.3,60.062549138171796,2026-04-13 15h10.26.871874 +0200,
20.5,ecc10neg,right,7,0,7,j,0,2.473699400001351,None,0,2,2,2,7,0,7,0,408.02885460000107,,,,,,,,,,,,,,,408.01796150000155,408.02885460000107,408.02885460000107,408.82211950000055,408.02885460000107,410.50592289999986,j,0,2.473699400001351,None,left,19,"[20, 18]",2,shiftedgaze_L_19.png,j,0,3,results10,001,2026-04-13_15h10.24.025,mogelijke versie adaptive staircase builder,,2026.1.3,60.062549138171796,2026-04-13 15h10.26.871874 +0200,
20.5,ecc10neg,right,8,0,8,f,1,1.7808952999985195,None,0,2,2,2,8,0,8,0,410.6016361000002,,,,,,,,,,,,,,,410.5906823000005,410.6016361000002,410.6016361000002,411.50559259999864,410.6016361000002,412.38922119999916,f,1,1.7808952999985195,None,left,20,"[20, 18, 20]",3,shiftedgaze_L_20.png,f,1,3,results10,001,2026-04-13_15h10.24.025,mogelijke versie adaptive staircase builder,,2026.1.3,60.062549138171796,2026-04-13 15h10.26.871874 +0200,
20.5,ecc10neg,right,9,0,9,j,0,1.7207535000015923,None,0,2,2,2,9,0,9,0,412.48582629999873,,,,,,,,,,,,,,,412.475785300001,412.48582629999873,412.48582629999873,413.3889244999991,412.48582629999873,414.2224301999995,j,0,1.7207535000015923,None,left,19,"[20, 18, 20, 19]",4,shiftedgaze_L_19.png,j,0,3,results10,001,2026-04-13_15h10.24.025,mogelijke versie adaptive staircase builder,,2026.1.3,60.062549138171796,2026-04-13 15h10.26.871874 +0200,
20.5,ecc10neg,right,10,0,10,j,0,1.9238513999989664,None,0,2,2,2,10,0,10,0,414.34668450000026,,,,,,,,,,,,,,,414.33274130000063,414.34668450000026,414.34668450000026,415.22197519999827,414.34668450000026,416.27247839999836,j,0,1.9238513999989664,None,right,20,"[20, 18, 20, 19]",4,shiftedgaze_R_20.png,j,0,3,results10,001,2026-04-13_15h10.24.025,mogelijke versie adaptive staircase builder,,2026.1.3,60.062549138171796,2026-04-13 15h10.26.871874 +0200,
20.5,ecc10neg,right,11,0,11,j,0,2.1466959999997925,None,0,2,2,2,11,0,11,0,416.38780359999873,,,,,,,,,,,,,,,416.3766391999998,416.38780359999873,416.38780359999873,417.2721569999994,416.38780359999873,418.5391200000013,j,0,2.1466959999997925,None,left,20,"[20, 18, 20, 19]",4,shiftedgaze_L_20.png,j,0,3,results10,001,2026-04-13_15h10.24.025,mogelijke versie adaptive staircase builder,,2026.1.3,60.062549138171796,2026-04-13 15h10.26.871874 +0200,
20.5,ecc10neg,right,12,0,12,f,1,1.6108383999999205,None,0,2,2,2,12,0,12,0,418.6356823999995,,,,,,,,,,,,,,,418.62447769999926,418.6356823999995,418.6356823999995,419.53869979999945,418.6356823999995,420.2560033000009,f,1,1.6108383999999205,None,left,20,"[20, 18, 20, 19, 20]",5,shiftedgaze_L_20.png,f,1,3,results10,001,2026-04-13_15h10.24.025,mogelijke versie adaptive staircase builder,,2026.1.3,60.062549138171796,2026-04-13 15h10.26.871874 +0200,
20.5,ecc10neg,right,13,0,13,f,1,1.806673299997783,None,0,2,2,2,13,0,13,0,420.3519254999992,,,,,,,,,,,,,,,420.3417652999997,420.3519254999992,420.3519254999992,421.27203459999873,420.3519254999992,422.1726020999995,f,1,1.806673299997783,None,left,19,"[20, 18, 20, 19, 20]",5,shiftedgaze_L_19.png,f,1,3,results10,001,2026-04-13_15h10.24.025,mogelijke versie adaptive staircase builder,,2026.1.3,60.062549138171796,2026-04-13 15h10.26.871874 +0200,
20.5,ecc10neg,right,14,0,14,j,0,1.7494090000000142,None,0,2,2,2,14,0,14,0,422.3612159000004,,,,,,,,,,,,,,,422.3504557999986,422.3612159000004,422.3612159000004,423.1720502999997,422.3612159000004,424.1223811999989,j,0,1.7494090000000142,None,left,18,"[20, 18, 20, 19, 20, 18]",6,shiftedgaze_L_18.png,j,0,3,results10,001,2026-04-13_15h10.24.025,mogelijke versie adaptive staircase builder,,2026.1.3,60.062549138171796,2026-04-13 15h10.26.871874 +0200,
20.5,ecc10neg,right,15,0,15,j,1,1.7558792999989237,None,0,2,2,2,15,0,15,0,424.21874200000093,,,,,,,,,,,,,,,424.2077836999997,424.21874200000093,424.21874200000093,425.1218712000009,424.21874200000093,425.98919399999795,j,1,1.7558792999989237,None,direct,19,"[20, 18, 20, 19, 20, 18, 19]",7,shifteddirectgaze.png,j,1,3,results10,001,2026-04-13_15h10.24.025,mogelijke versie adaptive staircase builder,,2026.1.3,60.062549138171796,2026-04-13 15h10.26.871874 +0200,
20.5,ecc10neg,right,16,0,16,f,1,2.0974139999998442,None,0,2,2,2,16,0,16,0,426.0852537999999,,,,,,,,,,,,,,,426.0748958000004,426.0852537999999,426.0852537999999,426.9887619000001,426.0852537999999,428.1890185000011,f,1,2.0974139999998442,None,left,18,"[20, 18, 20, 19, 20, 18, 19]",7,shiftedgaze_L_18.png,f,1,3,results10,001,2026-04-13_15h10.24.025,mogelijke versie adaptive staircase builder,,2026.1.3,60.062549138171796,2026-04-13 15h10.26.871874 +0200,
20.5,ecc10neg,right,17,0,17,j,0,1.7893618000016431,None,0,2,2,2,17,0,17,0,428.37716139999975,,,,,,,,,,,,,,,428.3659613999989,428.37716139999975,428.37716139999975,429.18872759999795,428.37716139999975,430.1723098000002,j,0,1.7893618000016431,None,left,17,"[20, 18, 20, 19, 20, 18, 19, 17]",8,shiftedgaze_L_17.png,j,0,3,results10,001,2026-04-13_15h10.24.025,mogelijke versie adaptive staircase builder,,2026.1.3,60.062549138171796,2026-04-13 15h10.26.871874 +0200,
20.5,ecc10neg,right,18,0,18,f,1,1.6871541999971669,None,0,2,2,2,18,0,18,0,430.2954739000015,,,,,,,,,,,,,,,430.2838480999999,430.2954739000015,430.2954739000015,431.1717673999992,430.2954739000015,431.9889106999981,f,1,1.6871541999971669,None,right,18,"[20, 18, 20, 19, 20, 18, 19, 17, 18]",9,shiftedgaze_R_18.png,f,1,3,results10,001,2026-04-13_15h10.24.025,mogelijke versie adaptive staircase builder,,2026.1.3,60.062549138171796,2026-04-13 15h10.26.871874 +0200,
20.5,ecc10neg,right,19,0,19,f,0,1.8216003999987151,None,0,2,2,2,19,0,19,0,432.10508800000025,,,,,,,,,,,,,,,432.09369909999805,432.10508800000025,432.10508800000025,432.9886058999982,432.10508800000025,433.9389099,f,0,1.8216003999987151,None,direct,17,"[20, 18, 20, 19, 20, 18, 19, 17, 18, 17]",10,shifteddirectgaze.png,f,0,3,results10,001,2026-04-13_15h10.24.025,mogelijke versie adaptive staircase builder,,2026.1.3,60.062549138171796,2026-04-13 15h10.26.871874 +0200,
20.5,ecc10neg,right,20,0,20,f,1,1.827855699997599,None,0,2,2,2,20,0,20,0,434.03462370000125,,,,,,,,,,,,,,,434.0233499999995,434.03462370000125,434.03462370000125,434.93852999999945,434.03462370000125,435.87220159999924,f,1,1.827855699997599,None,left,18,"[20, 18, 20, 19, 20, 18, 19, 17, 18, 17, 18]",11,shiftedgaze_L_18.png,f,1,3,results10,001,2026-04-13_15h10.24.025,mogelijke versie adaptive staircase builder,,2026.1.3,60.062549138171796,2026-04-13 15h10.26.871874 +0200,
20.5,ecc10neg,right,21,0,21,j,0,1.5895897000009427,None,0,2,2,2,21,0,21,0,436.0890404999991,,,,,,,,,,,,,,,436.077583899998,436.0890404999991,436.0890404999991,436.8719975999993,436.0890404999991,437.68880250000075,j,0,1.5895897000009427,None,right,17,"[20, 18, 20, 19, 20, 18, 19, 17, 18, 17, 18, 17]",12,shiftedgaze_R_17.png,j,0,3,results10,001,2026-04-13_15h10.24.025,mogelijke versie adaptive staircase builder,,2026.1.3,60.062549138171796,2026-04-13 15h10.26.871874 +0200,
20.5,ecc10neg,right,22,0,22,j,0,1.5794105000022682,None,0,2,2,2,22,0,22,0,437.8031951999983,,,,,,,,,,,,,,,437.7921677999984,437.8031951999983,437.8031951999983,438.68846660000054,437.8031951999983,439.38886830000047,j,0,1.5794105000022682,None,left,18,"[20, 18, 20, 19, 20, 18, 19, 17, 18, 17, 18, 17]",12,shiftedgaze_L_18.png,j,0,3,results10,001,2026-04-13_15h10.24.025,mogelijke versie adaptive staircase builder,,2026.1.3,60.062549138171796,2026-04-13 15h10.26.871874 +0200,
20.5,ecc10neg,right,23,0,23,f,0,1.7387507000021287,None,0,2,2,2,23,0,23,0,439.48381230000086,,,,,,,,,,,,,,,439.47317699999985,439.48381230000086,439.48381230000086,440.3886750999991,439.48381230000086,441.2387939,f,0,1.7387507000021287,None,direct,19,"[20, 18, 20, 19, 20, 18, 19, 17, 18, 17, 18, 17]",12,shifteddirectgaze.png,f,0,3,results10,001,2026-04-13_15h10.24.025,mogelijke versie adaptive staircase builder,,2026.1.3,60.062549138171796,2026-04-13 15h10.26.871874 +0200,
20.5,ecc10neg,right,24,0,24,f,0,1.976022999999259,None,0,2,2,2,24,0,24,0,441.3345358000006,,,,,,,,,,,,,,,441.32398829999875,441.3345358000006,441.3345358000006,442.23850310000125,441.3345358000006,443.3220598000007,f,0,1.976022999999259,None,direct,20,"[20, 18, 20, 19, 20, 18, 19, 17, 18, 17, 18, 17]",12,shifteddirectgaze.png,f,0,3,results10,001,2026-04-13_15h10.24.025,mogelijke versie adaptive staircase builder,,2026.1.3,60.062549138171796,2026-04-13 15h10.26.871874 +0200,
20.5,ecc10neg,right,25,0,25,j,1,1.8831157000022358,None,0,2,2,2,25,0,25,0,443.4194843000005,,,,,,,,,,,,,,,443.40919959999883,443.4194843000005,443.4194843000005,444.32177690000026,443.4194843000005,445.30544050000026,j,1,1.8831157000022358,None,direct,20,"[20, 18, 20, 19, 20, 18, 19, 17, 18, 17, 18, 17, 20]",13,shifteddirectgaze.png,j,1,3,results10,001,2026-04-13_15h10.24.025,mogelijke versie adaptive staircase builder,,2026.1.3,60.062549138171796,2026-04-13 15h10.26.871874 +0200,
20.5,ecc10neg,right,26,0,26,f,1,1.6928096000010555,None,0,2,2,2,26,0,26,0,445.40289009999833,,,,,,,,,,,,,,,445.39237330000105,445.40289009999833,445.40289009999833,446.3052855999995,445.40289009999833,447.10594560000027,f,1,1.6928096000010555,None,left,19,"[20, 18, 20, 19, 20, 18, 19, 17, 18, 17, 18, 17, 20]",13,shiftedgaze_L_19.png,f,1,3,results10,001,2026-04-13_15h10.24.025,mogelijke versie adaptive staircase builder,,2026.1.3,60.062549138171796,2026-04-13 15h10.26.871874 +0200,
20.5,ecc10neg,right,27,0,27,j,1,1.6390029000031063,None,0,2,2,2,27,0,27,0,447.2075169999989,,,,,,,,,,,,,,,447.19713599999886,447.2075169999989,447.2075169999989,448.1217690000012,447.2075169999989,448.8554796999997,j,1,1.6390029000031063,None,direct,18,"[20, 18, 20, 19, 20, 18, 19, 17, 18, 17, 18, 17, 20]",13,shifteddirectgaze.png,j,1,3,results10,001,2026-04-13_15h10.24.025,mogelijke versie adaptive staircase builder,,2026.1.3,60.062549138171796,2026-04-13 15h10.26.871874 +0200,
20.5,ecc10neg,right,28,0,28,j,0,1.6208826999973098,None,0,2,2,2,28,0,28,0,448.9777052999998,,,,,,,,,,,,,,,448.96582059999855,448.9777052999998,448.9777052999998,449.8548109000003,448.9777052999998,450.6054876999988,j,0,1.6208826999973098,None,right,17,"[20, 18, 20, 19, 20, 18, 19, 17, 18, 17, 18, 17, 20, 17]",14,shiftedgaze_R_17.png,j,0,3,results10,001,2026-04-13_15h10.24.025,mogelijke versie adaptive staircase builder,,2026.1.3,60.062549138171796,2026-04-13 15h10.26.871874 +0200,
20.5,ecc10neg,right,29,0,29,f,0,2.1002300000000105,None,0,2,2,2,29,0,29,0,450.7223195000006,,,,,,,,,,,,,,,450.7112080000006,450.7223195000006,450.7223195000006,451.60482440000123,450.7223195000006,452.8386290999988,f,0,2.1002300000000105,None,direct,18,"[20, 18, 20, 19, 20, 18, 19, 17, 18, 17, 18, 17, 20, 17]",14,shifteddirectgaze.png,f,0,3,results10,001,2026-04-13_15h10.24.025,mogelijke versie adaptive staircase builder,,2026.1.3,60.062549138171796,2026-04-13 15h10.26.871874 +0200,
20.5,ecc10neg,right,30,0,30,f,1,1.693954099999246,None,0,2,2,2,30,0,30,0,452.93653189999895,,,,,,,,,,,,,,,452.92536219999965,452.93653189999895,452.93653189999895,453.8383084999987,452.93653189999895,454.6386191999991,f,1,1.693954099999246,None,left,19,"[20, 18, 20, 19, 20, 18, 19, 17, 18, 17, 18, 17, 20, 17, 19]",15,shiftedgaze_L_19.png,f,1,3,results10,001,2026-04-13_15h10.24.025,mogelijke versie adaptive staircase builder,,2026.1.3,60.062549138171796,2026-04-13 15h10.26.871874 +0200,
20.5,ecc10neg,right,31,0,31,j,0,1.9187192999997933,None,0,2,2,2,31,0,31,0,454.7360418999997,,,,,,,,,,,,,,,454.7258355999984,454.7360418999997,454.7360418999997,455.63853670000026,454.7360418999997,456.6720127000008,j,0,1.9187192999997933,None,left,18,"[20, 18, 20, 19, 20, 18, 19, 17, 18, 17, 18, 17, 20, 17, 19, 18]",16,shiftedgaze_L_18.png,j,0,3,results10,001,2026-04-13_15h10.24.025,mogelijke versie adaptive staircase builder,,2026.1.3,60.062549138171796,2026-04-13 15h10.26.871874 +0200,
20.5,ecc10neg,right,32,0,32,j,0,2.1817053999984637,None,0,2,2,2,32,0,32,0,456.7688864999982,,,,,,,,,,,,,,,456.7582551000014,456.7688864999982,456.7688864999982,457.67143360000046,456.7688864999982,458.95520000000033,j,0,2.1817053999984637,None,left,19,"[20, 18, 20, 19, 20, 18, 19, 17, 18, 17, 18, 17, 20, 17, 19, 18]",16,shiftedgaze_L_19.png,j,0,3,results10,001,2026-04-13_15h10.24.025,mogelijke versie adaptive staircase builder,,2026.1.3,60.062549138171796,2026-04-13 15h10.26.871874 +0200,
20.5,ecc10neg,right,33,0,33,j,1,1.8821124999994936,None,0,2,2,2,33,0,33,0,459.05251959999805,,,,,,,,,,,,,,,459.0415146000014,459.05251959999805,459.05251959999805,459.9546779000011,459.05251959999805,460.93840740000087,j,1,1.8821124999994936,None,direct,20,"[20, 18, 20, 19, 20, 18, 19, 17, 18, 17, 18, 17, 20, 17, 19, 18, 20]",17,shifteddirectgaze.png,j,1,3,results10,001,2026-04-13_15h10.24.025,mogelijke versie adaptive staircase builder,,2026.1.3,60.062549138171796,2026-04-13 15h10.26.871874 +0200,
20.5,ecc10neg,right,34,0,34,j,0,1.7690693999975338,None,0,2,2,2,34,0,34,0,461.0615829999988,,,,,,,,,,,,,,,461.0502736999988,461.0615829999988,461.0615829999988,461.9380624000005,461.0615829999988,462.8386299999984,j,0,1.7690693999975338,None,right,19,"[20, 18, 20, 19, 20, 18, 19, 17, 18, 17, 18, 17, 20, 17, 19, 18, 20, 19]",18,shiftedgaze_R_19.png,j,0,3,results10,001,2026-04-13_15h10.24.025,mogelijke versie adaptive staircase builder,,2026.1.3,60.062549138171796,2026-04-13 15h10.26.871874 +0200,
20.5,ecc10neg,right,35,0,35,j,1,2.1404808000006597,None,0,2,2,2,35,0,35,0,462.95460340000136,,,,,,,,,,,,,,,462.943544400001,462.95460340000136,462.95460340000136,463.8381221999989,462.95460340000136,465.10519289999866,j,1,2.1404808000006597,None,direct,20,"[20, 18, 20, 19, 20, 18, 19, 17, 18, 17, 18, 17, 20, 17, 19, 18, 20, 19, 20]",19,shifteddirectgaze.png,j,1,3,results10,001,2026-04-13_15h10.24.025,mogelijke versie adaptive staircase builder,,2026.1.3,60.062549138171796,2026-04-13 15h10.26.871874 +0200,
20.5,ecc10neg,right,36,0,36,f,1,1.6896039999992354,None,0,2,2,2,36,0,36,0,465.22898709999936,,,,,,,,,,,,,,,465.21836339999936,465.22898709999936,465.22898709999936,466.1048747999994,465.22898709999936,466.921822100001,f,1,1.6896039999992354,None,right,19,"[20, 18, 20, 19, 20, 18, 19, 17, 18, 17, 18, 17, 20, 17, 19, 18, 20, 19, 20]",19,shiftedgaze_R_19.png,f,1,3,results10,001,2026-04-13_15h10.24.025,mogelijke versie adaptive staircase builder,,2026.1.3,60.062549138171796,2026-04-13 15h10.26.871874 +0200,
20.5,ecc10neg,right,37,0,37,j,1,2.6724857999979577,None,0,2,2,2,37,0,37,0,467.0380307999985,,,,,,,,,,,,,,,467.0267022000007,467.0380307999985,467.0380307999985,467.92145190000156,467.0380307999985,469.722192199999,j,1,2.6724857999979577,None,direct,18,"[20, 18, 20, 19, 20, 18, 19, 17, 18, 17, 18, 17, 20, 17, 19, 18, 20, 19, 20]",19,shifteddirectgaze.png,j,1,3,results10,001,2026-04-13_15h10.24.025,mogelijke versie adaptive staircase builder,,2026.1.3,60.062549138171796,2026-04-13 15h10.26.871874 +0200,
20.5,ecc10neg,right,38,0,38,j,0,1.6481767000004766,None,0,2,2,2,38,0,38,0,469.8624103000002,,,,,,,,,,,,,,,469.8561821000003,469.8624103000002,469.8624103000002,470.73784579999847,469.8624103000002,471.5211405000009,j,0,1.6481767000004766,None,right,17,"[20, 18, 20, 19, 20, 18, 19, 17, 18, 17, 18, 17, 20, 17, 19, 18, 20, 19, 20, 17]",20,shiftedgaze_R_17.png,j,0,3,results10,001,2026-04-13_15h10.24.025,mogelijke versie adaptive staircase builder,,2026.1.3,60.062549138171796,2026-04-13 15h10.26.871874 +0200,
20.5,ecc10neg,right,39,0,39,j,0,1.8387176999967778,None,0,2,2,2,39,0,39,0,471.6317558999981,,,,,,,,,,,,,,,471.62605729999996,471.6317558999981,471.6317558999981,472.5212766000004,471.6317558999981,473.47192899999936,j,0,1.8387176999967778,None,left,18,"[20, 18, 20, 19, 20, 18, 19, 17, 18, 17, 18, 17, 20, 17, 19, 18, 20, 19, 20, 17]",20,shiftedgaze_L_18.png,j,0,3,results10,001,2026-04-13_15h10.24.025,mogelijke versie adaptive staircase builder,,2026.1.3,60.062549138171796,2026-04-13 15h10.26.871874 +0200,
20.5,ecc10neg,right,40,0,40,f,1,1.7941455000000133,None,0,2,2,2,40,0,40,0,473.57237130000067,,,,,,,,,,,,,,,473.5623188999998,473.57237130000067,473.57237130000067,474.48793360000127,473.57237130000067,475.37184909999996,f,1,1.7941455000000133,None,left,19,"[20, 18, 20, 19, 20, 18, 19, 17, 18, 17, 18, 17, 20, 17, 19, 18, 20, 19, 20, 17, 19]",21,shiftedgaze_L_19.png,f,1,3,results10,001,2026-04-13_15h10.24.025,mogelijke versie adaptive staircase builder,,2026.1.3,60.062549138171796,2026-04-13 15h10.26.871874 +0200,
20.5,ecc10neg,right,41,0,41,f,0,2.1701984999999695,None,0,2,2,2,41,0,41,0,475.4763888999987,,,,,,,,,,,,,,,475.46491669999887,475.4763888999987,475.4763888999987,476.37132389999897,475.4763888999987,477.6552292000015,f,0,2.1701984999999695,None,direct,18,"[20, 18, 20, 19, 20, 18, 19, 17, 18, 17, 18, 17, 20, 17, 19, 18, 20, 19, 20, 17, 19, 18]",22,shifteddirectgaze.png,f,0,3,results10,001,2026-04-13_15h10.24.025,mogelijke versie adaptive staircase builder,,2026.1.3,60.062549138171796,2026-04-13 15h10.26.871874 +0200,
20.5,ecc10neg,right,42,0,42,j,1,1.9600608000000648,None,0,2,2,2,42,0,42,0,477.7511826000009,,,,,,,,,,,,,,,477.7411104999992,477.7511826000009,477.7511826000009,478.67123920000085,477.7511826000009,479.72153759999856,j,1,1.9600608000000648,None,direct,19,"[20, 18, 20, 19, 20, 18, 19, 17, 18, 17, 18, 17, 20, 17, 19, 18, 20, 19, 20, 17, 19, 18, 19]",23,shifteddirectgaze.png,j,1,3,results10,001,2026-04-13_15h10.24.025,mogelijke versie adaptive staircase builder,,2026.1.3,60.062549138171796,2026-04-13 15h10.26.871874 +0200,
20.5,ecc10neg,right,43,0,43,j,0,1.8013853000011295,None,0,2,2,2,43,0,43,0,479.8212155000001,,,,,,,,,,,,,,,479.81081709999853,479.8212155000001,479.8212155000001,480.7212460999981,479.8212155000001,481.63797949999935,j,0,1.8013853000011295,None,left,18,"[20, 18, 20, 19, 20, 18, 19, 17, 18, 17, 18, 17, 20, 17, 19, 18, 20, 19, 20, 17, 19, 18, 19, 18]",24,shiftedgaze_L_18.png,j,0,3,results10,001,2026-04-13_15h10.24.025,mogelijke versie adaptive staircase builder,,2026.1.3,60.062549138171796,2026-04-13 15h10.26.871874 +0200,
20.5,ecc10neg,right,44,0,44,f,1,1.7869633999980579,None,0,2,2,2,44,0,44,0,481.7636774999992,,,,,,,,,,,,,,,481.75234049999926,481.7636774999992,481.7636774999992,482.63775669999814,481.7636774999992,483.55495620000147,f,1,1.7869633999980579,None,right,19,"[20, 18, 20, 19, 20, 18, 19, 17, 18, 17, 18, 17, 20, 17, 19, 18, 20, 19, 20, 17, 19, 18, 19, 18, 19]",25,shiftedgaze_R_19.png,f,1,3,results10,001,2026-04-13_15h10.24.025,mogelijke versie adaptive staircase builder,,2026.1.3,60.062549138171796,2026-04-13 15h10.26.871874 +0200,
20.5,ecc10neg,right,45,0,45,f,1,1.7551653000009537,None,0,2,2,2,45,0,45,0,483.65943809999953,,,,,,,,,,,,,,,483.6482145000009,483.65943809999953,483.65943809999953,484.5544579999987,483.65943809999953,485.4214820999987,f,1,1.7551653000009537,None,right,18,"[20, 18, 20, 19, 20, 18, 19, 17, 18, 17, 18, 17, 20, 17, 19, 18, 20, 19, 20, 17, 19, 18, 19, 18, 19]",25,shiftedgaze_R_18.png,f,1,3,results10,001,2026-04-13_15h10.24.025,mogelijke versie adaptive staircase builder,,2026.1.3,60.062549138171796,2026-04-13 15h10.26.871874 +0200,
20.5,ecc10neg,right,46,0,46,f,0,1.7267041000013705,None,0,2,2,2,46,0,46,0,485.5358887000002,,,,,,,,,,,,,,,485.5244323000006,485.5358887000002,485.5358887000002,486.421136500001,485.5358887000002,487.27154829999927,f,0,1.7267041000013705,None,direct,17,"[20, 18, 20, 19, 20, 18, 19, 17, 18, 17, 18, 17, 20, 17, 19, 18, 20, 19, 20, 17, 19, 18, 19, 18, 19, 17]",26,shifteddirectgaze.png,f,0,3,results10,001,2026-04-13_15h10.24.025,mogelijke versie adaptive staircase builder,,2026.1.3,60.062549138171796,2026-04-13 15h10.26.871874 +0200,
20.5,ecc10neg,right,47,0,47,j,1,1.7755968999990728,None,0,2,2,2,47,0,47,0,487.3670208000003,,,,,,,,,,,,,,,487.3565987000002,487.3670208000003,487.3670208000003,488.2711898999987,487.3670208000003,489.1548226999985,j,1,1.7755968999990728,None,direct,18,"[20, 18, 20, 19, 20, 18, 19, 17, 18, 17, 18, 17, 20, 17, 19, 18, 20, 19, 20, 17, 19, 18, 19, 18, 19, 17, 18]",27,shifteddirectgaze.png,j,1,3,results10,001,2026-04-13_15h10.24.025,mogelijke versie adaptive staircase builder,,2026.1.3,60.062549138171796,2026-04-13 15h10.26.871874 +0200,
20.5,ecc10neg,right,48,0,48,j,0,1.7129110999994737,None,0,2,2,2,48,0,48,0,489.25365220000094,,,,,,,,,,,,,,,489.24311079999825,489.25365220000094,489.25365220000094,490.1546992000003,489.25365220000094,490.9715021999982,j,0,1.7129110999994737,None,left,17,"[20, 18, 20, 19, 20, 18, 19, 17, 18, 17, 18, 17, 20, 17, 19, 18, 20, 19, 20, 17, 19, 18, 19, 18, 19, 17, 18, 17]",28,shiftedgaze_L_17.png,j,0,3,results10,001,2026-04-13_15h10.24.025,mogelijke versie adaptive staircase builder,,2026.1.3,60.062549138171796,2026-04-13 15h10.26.871874 +0200,
20.5,ecc10neg,right,49,0,49,j,0,2.087588800000958,None,0,2,2,2,49,0,49,0,491.0710500999994,,,,,,,,,,,,,,,491.0602722000003,491.0710500999994,491.0710500999994,491.971067399998,491.0710500999994,493.17137459999867,j,0,2.087588800000958,None,left,18,"[20, 18, 20, 19, 20, 18, 19, 17, 18, 17, 18, 17, 20, 17, 19, 18, 20, 19, 20, 17, 19, 18, 19, 18, 19, 17, 18, 17]",28,shiftedgaze_L_18.png,j,0,3,results10,001,2026-04-13_15h10.24.025,mogelijke versie adaptive staircase builder,,2026.1.3,60.062549138171796,2026-04-13 15h10.26.871874 +0200,
20.5,ecc10neg,right,50,0,50,f,1,1.6351657999985036,None,0,2,2,2,50,0,50,0,493.2674683000005,,,,,,,,,,,,,,,493.25745599999937,493.2674683000005,493.2674683000005,494.1710548999981,493.2674683000005,494.90489349999916,f,1,1.6351657999985036,None,left,19,"[20, 18, 20, 19, 20, 18, 19, 17, 18, 17, 18, 17, 20, 17, 19, 18, 20, 19, 20, 17, 19, 18, 19, 18, 19, 17, 18, 17, 19]",29,shiftedgaze_L_19.png,f,1,3,results10,001,2026-04-13_15h10.24.025,mogelijke versie adaptive staircase builder,,2026.1.3,60.062549138171796,2026-04-13 15h10.26.871874 +0200,
20.5,ecc10neg,right,51,0,51,j,1,1.7098602000005485,None,0,2,2,2,51,0,51,0,495.00159359999816,,,,,,,,,,,,,,,494.9908375999985,495.00159359999816,495.00159359999816,495.9043692000014,495.00159359999816,496.7214853000005,j,1,1.7098602000005485,None,direct,18,"[20, 18, 20, 19, 20, 18, 19, 17, 18, 17, 18, 17, 20, 17, 19, 18, 20, 19, 20, 17, 19, 18, 19, 18, 19, 17, 18, 17, 19]",29,shifteddirectgaze.png,j,1,3,results10,001,2026-04-13_15h10.24.025,mogelijke versie adaptive staircase builder,,2026.1.3,60.062549138171796,2026-04-13 15h10.26.871874 +0200,
20.5,ecc10neg,right,52,0,52,f,0,1.874948000000586,None,0,2,2,2,52,0,52,0,496.82043740000154,,,,,,,,,,,,,,,496.81085769999845,496.82043740000154,496.82043740000154,497.72074019999854,496.82043740000154,498.70486249999885,f,0,1.874948000000586,None,direct,17,"[20, 18, 20, 19, 20, 18, 19, 17, 18, 17, 18, 17, 20, 17, 19, 18, 20, 19, 20, 17, 19, 18, 19, 18, 19, 17, 18, 17, 19, 17]",30,shifteddirectgaze.png,f,0,3,results10,001,2026-04-13_15h10.24.025,mogelijke versie adaptive staircase builder,,2026.1.3,60.062549138171796,2026-04-13 15h10.26.871874 +0200,
20.5,ecc10neg,right,53,0,53,f,0,1.7806650999991689,None,0,2,2,2,53,0,53,0,498.8019697999989,,,,,,,,,,,,,,,498.79151080000156,498.8019697999989,498.8019697999989,499.7209710999996,498.8019697999989,500.5879706000014,f,0,1.7806650999991689,None,direct,18,"[20, 18, 20, 19, 20, 18, 19, 17, 18, 17, 18, 17, 20, 17, 19, 18, 20, 19, 20, 17, 19, 18, 19, 18, 19, 17, 18, 17, 19, 17]",30,shifteddirectgaze.png,f,0,3,results10,001,2026-04-13_15h10.24.025,mogelijke versie adaptive staircase builder,,2026.1.3,60.062549138171796,2026-04-13 15h10.26.871874 +0200,
20.5,ecc10neg,right,54,0,54,j,0,1.7057954000010795,None,0,2,2,2,54,0,54,0,500.68479429999934,,,,,,,,,,,,,,,500.6737326000002,500.68479429999934,500.68479429999934,501.5876277999996,500.68479429999934,502.40463549999913,j,0,1.7057954000010795,None,left,19,"[20, 18, 20, 19, 20, 18, 19, 17, 18, 17, 18, 17, 20, 17, 19, 18, 20, 19, 20, 17, 19, 18, 19, 18, 19, 17, 18, 17, 19, 17]",30,shiftedgaze_L_19.png,j,0,3,results10,001,2026-04-13_15h10.24.025,mogelijke versie adaptive staircase builder,,2026.1.3,60.062549138171796,2026-04-13 15h10.26.871874 +0200,
20.5,ecc10neg,right,55,0,55,f,1,2.4398905000016384,None,0,2,2,2,55,0,55,0,502.50272609999956,,,,,,,,,,,,,,,502.492555599998,502.50272609999956,502.50272609999956,503.4042244000011,502.50272609999956,504.95457539999916,f,1,2.4398905000016384,None,left,20,"[20, 18, 20, 19, 20, 18, 19, 17, 18, 17, 18, 17, 20, 17, 19, 18, 20, 19, 20, 17, 19, 18, 19, 18, 19, 17, 18, 17, 19, 17, 20]",31,shiftedgaze_L_20.png,f,1,3,results10,001,2026-04-13_15h10.24.025,mogelijke versie adaptive staircase builder,,2026.1.3,60.062549138171796,2026-04-13 15h10.26.871874 +0200,
20.5,ecc10neg,right,56,0,56,f,1,2.0249033000000054,None,0,2,2,2,56,0,56,0,505.0777885999996,,,,,,,,,,,,,,,505.06580060000124,505.0777885999996,505.0777885999996,505.95414439999877,505.0777885999996,507.1045850999981,f,1,2.0249033000000054,None,right,19,"[20, 18, 20, 19, 20, 18, 19, 17, 18, 17, 18, 17, 20, 17, 19, 18, 20, 19, 20, 17, 19, 18, 19, 18, 19, 17, 18, 17, 19, 17, 20]",31,shiftedgaze_R_19.png,f,1,3,results10,001,2026-04-13_15h10.24.025,mogelijke versie adaptive staircase builder,,2026.1.3,60.062549138171796,2026-04-13 15h10.26.871874 +0200,
20.5,ecc10neg,right,57,0,57,j,1,2.002875700000004,None,0,2,2,2,57,0,57,0,507.2278574000011,,,,,,,,,,,,,,,507.21724600000016,507.2278574000011,507.2278574000011,508.1042587999982,507.2278574000011,509.2377535000014,j,1,2.002875700000004,None,direct,18,"[20, 18, 20, 19, 20, 18, 19, 17, 18, 17, 18, 17, 20, 17, 19, 18, 20, 19, 20, 17, 19, 18, 19, 18, 19, 17, 18, 17, 19, 17, 20]",31,shifteddirectgaze.png,j,1,3,results10,001,2026-04-13_15h10.24.025,mogelijke versie adaptive staircase builder,,2026.1.3,60.062549138171796,2026-04-13 15h10.26.871874 +0200,
20.5,ecc10neg,right,58,0,58,j,0,1.8793659000002663,None,0,2,2,2,58,0,58,0,509.33518410000033,,,,,,,,,,,,,,,509.32438700000057,509.33518410000033,509.33518410000033,510.2372252999994,509.33518410000033,511.221110399998,j,0,1.8793659000002663,None,left,17,"[20, 18, 20, 19, 20, 18, 19, 17, 18, 17, 18, 17, 20, 17, 19, 18, 20, 19, 20, 17, 19, 18, 19, 18, 19, 17, 18, 17, 19, 17, 20, 17]",32,shiftedgaze_L_17.png,j,0,3,results10,001,2026-04-13_15h10.24.025,mogelijke versie adaptive staircase builder,,2026.1.3,60.062549138171796,2026-04-13 15h10.26.871874 +0200,
20.5,ecc10neg,right,59,0,59,j,0,2.2450685999974667,None,0,2,2,2,59,0,59,0,511.3454902000012,,,,,,,,,,,,,,,511.3341983999999,511.3454902000012,511.3454902000012,512.2207066999981,511.3454902000012,513.6046836999994,j,0,2.2450685999974667,None,right,18,"[20, 18, 20, 19, 20, 18, 19, 17, 18, 17, 18, 17, 20, 17, 19, 18, 20, 19, 20, 17, 19, 18, 19, 18, 19, 17, 18, 17, 19, 17, 20, 17]",32,shiftedgaze_R_18.png,j,0,3,results10,001,2026-04-13_15h10.24.025,mogelijke versie adaptive staircase builder,,2026.1.3,60.062549138171796,2026-04-13 15h10.26.871874 +0200,
20.5,ecc10neg,right,2,2,0,,,,,0,2,2,2,,,,,,,,,,,,,,,,,,,,,,,,,,,,,,,,,,,,,,results10,001,2026-04-13_15h10.24.025,mogelijke versie adaptive staircase builder,,2026.1.3,60.062549138171796,2026-04-13 15h10.26.871874 +0200,
