xPos,stimulusSet,whichImage,thisN,thisTrialN,thisRepN,key_resp.keys,key_resp.corr,key_resp.rt,key_resp.duration,blocks.thisRepN,blocks.thisTrialN,blocks.thisN,blocks.thisIndex,trials.thisRepN,trials.thisTrialN,trials.thisN,trials.thisIndex,thisRow.t,notes,piloting,intro.started,introinstructions.started,intro_key.started,demo_image_left.started,demo_image_middle.started,demo_image_right.started,intro.stopped,intro_key.keys,intro_key.rt,intro_key.duration,block_start.started,block_start.stopped,trial.started,key_resp.started,middle_image.started,right_image.started,left_image.started,trial.stopped,trials.key_resp.keys,trials.key_resp.corr,trials.key_resp.rt,trials.key_resp.duration,direction,angle,reversal_intensities,number_reversals,stimulus,response,correct,blockNumber,participant,session,date,expName,expVersion,psychopyVersion,frameRate,expStart,
,,,,,,,,,,,,,,,,,,,,False,0.0033006999983626883,0.006247699999221368,0.006247699999221368,0.006247699999221368,0.006247699999221368,0.006247699999221368,294.9445415000009,space,294.79864029999953,0.1278466000003391,,,,,,,,,,,,,,,,,,,,,results21,001,2026-04-14_14h56.14.606,mogelijke versie adaptive staircase builder,,2026.1.3,59.966886286312125,2026-04-14 14h56.14.783403 +0200,
4.5,ecc10pos,left,0,0,0,f,1,3.805289299998549,None,0,0,0,0,0,0,0,0,295.22350879999794,,,,,,,,,,,,,295.12105800000063,295.1211234000002,295.2194039999995,295.22350879999794,295.22350879999794,295.22350879999794,296.12814770000114,299.04513249999945,f,1,3.805289299998549,None,right,20,[],0,shiftedgaze_R_20.png,f,1,1,results21,001,2026-04-14_14h56.14.606,mogelijke versie adaptive staircase builder,,2026.1.3,59.966886286312125,2026-04-14 14h56.14.783403 +0200,
4.5,ecc10pos,left,1,0,1,f,0,2.45189179999943,None,0,0,0,0,1,0,1,0,299.1369937999989,,,,,,,,,,,,,,,299.13321409999844,299.1369937999989,299.1369937999989,299.1369937999989,300.0447856999999,301.5944266000006,f,0,2.45189179999943,None,direct,19,[19],1,shifteddirectgaze.png,f,0,1,results21,001,2026-04-14_14h56.14.606,mogelijke versie adaptive staircase builder,,2026.1.3,59.966886286312125,2026-04-14 14h56.14.783403 +0200,
4.5,ecc10pos,left,2,0,2,j,0,2.0589034000004176,None,0,0,0,0,2,0,2,0,301.6823258000004,,,,,,,,,,,,,,,301.6779405999987,301.6823258000004,301.6823258000004,301.6823258000004,302.59432430000015,303.74513339999976,j,0,2.0589034000004176,None,right,20,[19],1,shiftedgaze_R_20.png,j,0,1,results21,001,2026-04-14_14h56.14.606,mogelijke versie adaptive staircase builder,,2026.1.3,59.966886286312125,2026-04-14 14h56.14.783403 +0200,
4.5,ecc10pos,left,3,0,3,j,0,1.964842999997927,None,0,0,0,0,3,0,3,0,303.83203429999776,,,,,,,,,,,,,,,303.82817019999857,303.83203429999776,303.83203429999776,303.83203429999776,304.76099709999835,305.8112207000013,j,0,1.964842999997927,None,right,20,[19],1,shiftedgaze_R_20.png,j,0,1,results21,001,2026-04-14_14h56.14.606,mogelijke versie adaptive staircase builder,,2026.1.3,59.966886286312125,2026-04-14 14h56.14.783403 +0200,
4.5,ecc10pos,left,4,0,4,j,0,2.367669700000988,None,0,0,0,0,4,0,4,0,305.98125580000124,,,,,,,,,,,,,,,305.97611640000105,305.98125580000124,305.98125580000124,305.98125580000124,306.811009699999,308.3616895000014,j,0,2.367669700000988,None,left,20,[19],1,shiftedgaze_L_20.png,j,0,1,results21,001,2026-04-14_14h56.14.606,mogelijke versie adaptive staircase builder,,2026.1.3,59.966886286312125,2026-04-14 14h56.14.783403 +0200,
4.5,ecc10pos,left,5,0,5,f,1,1.7090075999985856,None,0,0,0,0,5,0,5,0,308.4558027999992,,,,,,,,,,,,,,,308.4516641000009,308.4558027999992,308.4558027999992,308.4558027999992,309.361082899999,310.1777175999996,f,1,1.7090075999985856,None,left,20,"[19, 20]",2,shiftedgaze_L_20.png,f,1,1,results21,001,2026-04-14_14h56.14.606,mogelijke versie adaptive staircase builder,,2026.1.3,59.966886286312125,2026-04-14 14h56.14.783403 +0200,
4.5,ecc10pos,left,6,0,6,j,1,2.400357200000144,None,0,0,0,0,6,0,6,0,310.2845465999999,,,,,,,,,,,,,,,310.2749818000011,310.2845465999999,310.2845465999999,310.2845465999999,311.1780609999987,312.6944517999982,j,1,2.400357200000144,None,direct,19,"[19, 20]",2,shifteddirectgaze.png,j,1,1,results21,001,2026-04-14_14h56.14.606,mogelijke versie adaptive staircase builder,,2026.1.3,59.966886286312125,2026-04-14 14h56.14.783403 +0200,
4.5,ecc10pos,left,7,0,7,j,1,2.98306749999756,None,0,0,0,0,7,0,7,0,312.7817262999997,,,,,,,,,,,,,,,312.77768690000084,312.7817262999997,312.7817262999997,312.7817262999997,313.69430869999997,315.7780340999998,j,1,2.98306749999756,None,direct,18,"[19, 20]",2,shifteddirectgaze.png,j,1,1,results21,001,2026-04-14_14h56.14.606,mogelijke versie adaptive staircase builder,,2026.1.3,59.966886286312125,2026-04-14 14h56.14.783403 +0200,
4.5,ecc10pos,left,8,0,8,j,0,1.8588982000001124,None,0,0,0,0,8,0,8,0,315.88196849999804,,,,,,,,,,,,,,,315.8776620999997,315.88196849999804,315.88196849999804,315.88196849999804,316.77765100000033,317.74449559999994,j,0,1.8588982000001124,None,right,17,"[19, 20, 17]",3,shiftedgaze_R_17.png,j,0,1,results21,001,2026-04-14_14h56.14.606,mogelijke versie adaptive staircase builder,,2026.1.3,59.966886286312125,2026-04-14 14h56.14.783403 +0200,
4.5,ecc10pos,left,9,0,9,j,1,4.597168100000999,None,0,0,0,0,9,0,9,0,317.831723299998,,,,,,,,,,,,,,,317.827579599998,317.831723299998,317.831723299998,317.831723299998,318.74428700000135,322.44450940000024,j,1,4.597168100000999,None,direct,18,"[19, 20, 17, 18]",4,shifteddirectgaze.png,j,1,1,results21,001,2026-04-14_14h56.14.606,mogelijke versie adaptive staircase builder,,2026.1.3,59.966886286312125,2026-04-14 14h56.14.783403 +0200,
4.5,ecc10pos,left,10,0,10,j,1,1.962838899999042,None,0,0,0,0,10,0,10,0,322.538085199998,,,,,,,,,,,,,,,322.53299739999784,322.538085199998,322.538085199998,322.538085199998,323.4447677999997,324.5110910000003,j,1,1.962838899999042,None,direct,17,"[19, 20, 17, 18]",4,shifteddirectgaze.png,j,1,1,results21,001,2026-04-14_14h56.14.606,mogelijke versie adaptive staircase builder,,2026.1.3,59.966886286312125,2026-04-14 14h56.14.783403 +0200,
4.5,ecc10pos,left,11,0,11,j,1,3.6343450999993365,None,0,0,0,0,11,0,11,0,324.59472910000113,,,,,,,,,,,,,,,324.59059889999844,324.59472910000113,324.59472910000113,324.59472910000113,325.5111775000005,328.24486179999803,j,1,3.6343450999993365,None,direct,16,"[19, 20, 17, 18]",4,shifteddirectgaze.png,j,1,1,results21,001,2026-04-14_14h56.14.606,mogelijke versie adaptive staircase builder,,2026.1.3,59.966886286312125,2026-04-14 14h56.14.783403 +0200,
4.5,ecc10pos,left,12,0,12,f,1,4.251850299999205,None,0,0,0,0,12,0,12,0,328.3534690999986,,,,,,,,,,,,,,,328.3430890999989,328.3534690999986,328.3534690999986,328.3534690999986,329.2446902999982,332.6117384999998,f,1,4.251850299999205,None,left,15,"[19, 20, 17, 18]",4,shiftedgaze_L_15.png,f,1,1,results21,001,2026-04-14_14h56.14.606,mogelijke versie adaptive staircase builder,,2026.1.3,59.966886286312125,2026-04-14 14h56.14.783403 +0200,
4.5,ecc10pos,left,13,0,13,f,1,2.320709800002078,None,0,0,0,0,13,0,13,0,332.7082177000011,,,,,,,,,,,,,,,332.69865840000057,332.7082177000011,332.7082177000011,332.7082177000011,333.62757710000005,335.04439179999827,f,1,2.320709800002078,None,right,14,"[19, 20, 17, 18]",4,shiftedgaze_R_14.png,f,1,1,results21,001,2026-04-14_14h56.14.606,mogelijke versie adaptive staircase builder,,2026.1.3,59.966886286312125,2026-04-14 14h56.14.783403 +0200,
4.5,ecc10pos,left,14,0,14,f,1,2.4670525999972597,None,0,0,0,0,14,0,14,0,335.12983689999965,,,,,,,,,,,,,,,335.1255478999992,335.12983689999965,335.12983689999965,335.12983689999965,336.04440559999784,337.61141679999855,f,1,2.4670525999972597,None,left,13,"[19, 20, 17, 18]",4,shiftedgaze_L_13.png,f,1,1,results21,001,2026-04-14_14h56.14.606,mogelijke versie adaptive staircase builder,,2026.1.3,59.966886286312125,2026-04-14 14h56.14.783403 +0200,
4.5,ecc10pos,left,15,0,15,j,0,2.076898400002392,None,0,0,0,0,15,0,15,0,337.70441389999905,,,,,,,,,,,,,,,337.70033219999823,337.70441389999905,337.70441389999905,337.70441389999905,338.61138279999795,339.7950434999984,j,0,2.076898400002392,None,right,12,"[19, 20, 17, 18, 12]",5,shiftedgaze_R_12.png,j,0,1,results21,001,2026-04-14_14h56.14.606,mogelijke versie adaptive staircase builder,,2026.1.3,59.966886286312125,2026-04-14 14h56.14.783403 +0200,
4.5,ecc10pos,left,16,0,16,j,1,2.756939799997781,None,0,0,0,0,16,0,16,0,339.8802255999981,,,,,,,,,,,,,,,339.87631899999906,339.8802255999981,339.8802255999981,339.8802255999981,340.7944060000009,342.64501720000044,j,1,2.756939799997781,None,direct,13,"[19, 20, 17, 18, 12, 13]",6,shifteddirectgaze.png,j,1,1,results21,001,2026-04-14_14h56.14.606,mogelijke versie adaptive staircase builder,,2026.1.3,59.966886286312125,2026-04-14 14h56.14.783403 +0200,
4.5,ecc10pos,left,17,0,17,j,1,2.4864260999966064,None,0,0,0,0,17,0,17,0,342.7345166999985,,,,,,,,,,,,,,,342.73018239999874,342.7345166999985,342.7345166999985,342.7345166999985,343.6608707999985,345.2277228999992,j,1,2.4864260999966064,None,direct,12,"[19, 20, 17, 18, 12, 13]",6,shifteddirectgaze.png,j,1,1,results21,001,2026-04-14_14h56.14.606,mogelijke versie adaptive staircase builder,,2026.1.3,59.966886286312125,2026-04-14 14h56.14.783403 +0200,
4.5,ecc10pos,left,18,0,18,f,1,1.4607357000022603,None,0,0,0,0,18,0,18,0,345.3205593999992,,,,,,,,,,,,,,,345.31647059999887,345.3205593999992,345.3205593999992,345.3205593999992,346.22803809999823,346.795012999999,f,1,1.4607357000022603,None,right,11,"[19, 20, 17, 18, 12, 13]",6,shiftedgaze_R_11.png,f,1,1,results21,001,2026-04-14_14h56.14.606,mogelijke versie adaptive staircase builder,,2026.1.3,59.966886286312125,2026-04-14 14h56.14.783403 +0200,
4.5,ecc10pos,left,19,0,19,j,0,1.6955969000009645,None,0,0,0,0,19,0,19,0,346.88529610000114,,,,,,,,,,,,,,,346.88134400000126,346.88529610000114,346.88529610000114,346.88529610000114,347.79468559999805,348.5944550999993,j,0,1.6955969000009645,None,right,10,"[19, 20, 17, 18, 12, 13, 10]",7,shiftedgaze_R_10.png,j,0,1,results21,001,2026-04-14_14h56.14.606,mogelijke versie adaptive staircase builder,,2026.1.3,59.966886286312125,2026-04-14 14h56.14.783403 +0200,
4.5,ecc10pos,left,20,0,20,j,0,1.7339764999996987,None,0,0,0,0,20,0,20,0,348.68731670000125,,,,,,,,,,,,,,,348.6823805999993,348.68731670000125,348.68731670000125,348.68731670000125,349.5942181999999,350.4290559000001,j,0,1.7339764999996987,None,right,11,"[19, 20, 17, 18, 12, 13, 10]",7,shiftedgaze_R_11.png,j,0,1,results21,001,2026-04-14_14h56.14.606,mogelijke versie adaptive staircase builder,,2026.1.3,59.966886286312125,2026-04-14 14h56.14.783403 +0200,
4.5,ecc10pos,left,21,0,21,j,0,2.2622530000007828,None,0,0,0,0,21,0,21,0,350.5190776999989,,,,,,,,,,,,,,,350.514336799999,350.5190776999989,350.5190776999989,350.5190776999989,351.4442010999992,352.795025899999,j,0,2.2622530000007828,None,right,12,"[19, 20, 17, 18, 12, 13, 10]",7,shiftedgaze_R_12.png,j,0,1,results21,001,2026-04-14_14h56.14.606,mogelijke versie adaptive staircase builder,,2026.1.3,59.966886286312125,2026-04-14 14h56.14.783403 +0200,
4.5,ecc10pos,left,22,0,22,j,1,1.9054365000010876,None,0,0,0,0,22,0,22,0,352.8837112000001,,,,,,,,,,,,,,,352.87922369999797,352.8837112000001,352.8837112000001,352.8837112000001,353.79470089999813,354.7946067999983,j,1,1.9054365000010876,None,direct,13,"[19, 20, 17, 18, 12, 13, 10, 13]",8,shifteddirectgaze.png,j,1,1,results21,001,2026-04-14_14h56.14.606,mogelijke versie adaptive staircase builder,,2026.1.3,59.966886286312125,2026-04-14 14h56.14.783403 +0200,
4.5,ecc10pos,left,23,0,23,j,0,1.3756694000003336,None,0,0,0,0,23,0,23,0,354.87762179999845,,,,,,,,,,,,,,,354.87355670000034,354.87762179999845,354.87762179999845,354.87762179999845,355.79464369999914,356.2611379000009,j,0,1.3756694000003336,None,left,12,"[19, 20, 17, 18, 12, 13, 10, 13, 12]",9,shiftedgaze_L_12.png,j,0,1,results21,001,2026-04-14_14h56.14.606,mogelijke versie adaptive staircase builder,,2026.1.3,59.966886286312125,2026-04-14 14h56.14.783403 +0200,
4.5,ecc10pos,left,24,0,24,f,1,1.6914160999986052,None,0,0,0,0,24,0,24,0,356.3459376999999,,,,,,,,,,,,,,,356.3415967000001,356.3459376999999,356.3459376999999,356.3459376999999,357.2607289000007,358.0450861999998,f,1,1.6914160999986052,None,right,13,"[19, 20, 17, 18, 12, 13, 10, 13, 12, 13]",10,shiftedgaze_R_13.png,f,1,1,results21,001,2026-04-14_14h56.14.606,mogelijke versie adaptive staircase builder,,2026.1.3,59.966886286312125,2026-04-14 14h56.14.783403 +0200,
4.5,ecc10pos,left,25,0,25,f,1,1.6758436000018264,None,0,0,0,0,25,0,25,0,358.12925520000135,,,,,,,,,,,,,,,358.1249742,358.12925520000135,358.12925520000135,358.12925520000135,359.04429159999927,359.81166849999863,f,1,1.6758436000018264,None,left,12,"[19, 20, 17, 18, 12, 13, 10, 13, 12, 13]",10,shiftedgaze_L_12.png,f,1,1,results21,001,2026-04-14_14h56.14.606,mogelijke versie adaptive staircase builder,,2026.1.3,59.966886286312125,2026-04-14 14h56.14.783403 +0200,
4.5,ecc10pos,left,26,0,26,j,0,2.102072000001499,None,0,0,0,0,26,0,26,0,359.92682140000034,,,,,,,,,,,,,,,359.91692129999865,359.92682140000034,359.92682140000034,359.92682140000034,360.8111327000006,362.04499659999783,j,0,2.102072000001499,None,left,11,"[19, 20, 17, 18, 12, 13, 10, 13, 12, 13, 11]",11,shiftedgaze_L_11.png,j,0,1,results21,001,2026-04-14_14h56.14.606,mogelijke versie adaptive staircase builder,,2026.1.3,59.966886286312125,2026-04-14 14h56.14.783403 +0200,
4.5,ecc10pos,left,27,0,27,j,0,1.5894477999972878,None,0,0,0,0,27,0,27,0,362.1438492999987,,,,,,,,,,,,,,,362.1340238999983,362.1438492999987,362.1438492999987,362.1438492999987,363.0607299000003,363.7450233999989,j,0,1.5894477999972878,None,right,12,"[19, 20, 17, 18, 12, 13, 10, 13, 12, 13, 11]",11,shiftedgaze_R_12.png,j,0,1,results21,001,2026-04-14_14h56.14.606,mogelijke versie adaptive staircase builder,,2026.1.3,59.966886286312125,2026-04-14 14h56.14.783403 +0200,
4.5,ecc10pos,left,28,0,28,j,1,1.781558300001052,None,0,0,0,0,28,0,28,0,363.8317883999989,,,,,,,,,,,,,,,363.8276901999998,363.8317883999989,363.8317883999989,363.8317883999989,364.74443959999917,365.6282566000009,j,1,1.781558300001052,None,direct,13,"[19, 20, 17, 18, 12, 13, 10, 13, 12, 13, 11, 13]",12,shifteddirectgaze.png,j,1,1,results21,001,2026-04-14_14h56.14.606,mogelijke versie adaptive staircase builder,,2026.1.3,59.966886286312125,2026-04-14 14h56.14.783403 +0200,
4.5,ecc10pos,left,29,0,29,j,0,1.2335060000004887,None,0,0,0,0,29,0,29,0,365.7154416000012,,,,,,,,,,,,,,,365.7115100999981,365.7154416000012,365.7154416000012,365.7154416000012,366.6277451999995,366.9613600999983,j,0,1.2335060000004887,None,right,12,"[19, 20, 17, 18, 12, 13, 10, 13, 12, 13, 11, 13, 12]",13,shiftedgaze_R_12.png,j,0,1,results21,001,2026-04-14_14h56.14.606,mogelijke versie adaptive staircase builder,,2026.1.3,59.966886286312125,2026-04-14 14h56.14.783403 +0200,
4.5,ecc10pos,left,30,0,30,f,0,1.641030700000556,None,0,0,0,0,30,0,30,0,367.05241939999905,,,,,,,,,,,,,,,367.0483616999991,367.05241939999905,367.05241939999905,367.05241939999905,367.96125369999936,368.69519020000007,f,0,1.641030700000556,None,direct,13,"[19, 20, 17, 18, 12, 13, 10, 13, 12, 13, 11, 13, 12]",13,shifteddirectgaze.png,f,0,1,results21,001,2026-04-14_14h56.14.606,mogelijke versie adaptive staircase builder,,2026.1.3,59.966886286312125,2026-04-14 14h56.14.783403 +0200,
4.5,ecc10pos,left,31,0,31,j,1,1.5982585999990988,None,0,0,0,0,31,0,31,0,368.78267109999797,,,,,,,,,,,,,,,368.778557499998,368.78267109999797,368.78267109999797,368.78267109999797,369.71134489999895,370.39436990000104,j,1,1.5982585999990988,None,direct,14,"[19, 20, 17, 18, 12, 13, 10, 13, 12, 13, 11, 13, 12, 14]",14,shifteddirectgaze.png,j,1,1,results21,001,2026-04-14_14h56.14.606,mogelijke versie adaptive staircase builder,,2026.1.3,59.966886286312125,2026-04-14 14h56.14.783403 +0200,
4.5,ecc10pos,left,32,0,32,j,0,1.5651257999998052,None,0,0,0,0,32,0,32,0,370.4877983000006,,,,,,,,,,,,,,,370.48298559999967,370.4877983000006,370.4877983000006,370.4877983000006,371.3946164000008,372.0612207000013,j,0,1.5651257999998052,None,left,13,"[19, 20, 17, 18, 12, 13, 10, 13, 12, 13, 11, 13, 12, 14, 13]",15,shiftedgaze_L_13.png,j,0,1,results21,001,2026-04-14_14h56.14.606,mogelijke versie adaptive staircase builder,,2026.1.3,59.966886286312125,2026-04-14 14h56.14.783403 +0200,
4.5,ecc10pos,left,33,0,33,j,0,1.3323601000010967,None,0,0,0,0,33,0,33,0,372.1447230999984,,,,,,,,,,,,,,,372.14069179999933,372.1447230999984,372.1447230999984,372.1447230999984,373.06089299999803,373.47768129999895,j,0,1.3323601000010967,None,right,14,"[19, 20, 17, 18, 12, 13, 10, 13, 12, 13, 11, 13, 12, 14, 13]",15,shiftedgaze_R_14.png,j,0,1,results21,001,2026-04-14_14h56.14.606,mogelijke versie adaptive staircase builder,,2026.1.3,59.966886286312125,2026-04-14 14h56.14.783403 +0200,
4.5,ecc10pos,left,34,0,34,f,1,1.3199172999993607,None,0,0,0,0,34,0,34,0,373.58139219999794,,,,,,,,,,,,,,,373.571039800001,373.58139219999794,373.58139219999794,373.58139219999794,374.4780420999996,374.9113843999985,f,1,1.3199172999993607,None,left,15,"[19, 20, 17, 18, 12, 13, 10, 13, 12, 13, 11, 13, 12, 14, 13, 15]",16,shiftedgaze_L_15.png,f,1,1,results21,001,2026-04-14_14h56.14.606,mogelijke versie adaptive staircase builder,,2026.1.3,59.966886286312125,2026-04-14 14h56.14.783403 +0200,
4.5,ecc10pos,left,35,0,35,f,0,1.4267622000006668,None,0,0,0,0,35,0,35,0,375.01814490000106,,,,,,,,,,,,,,,375.0080596000007,375.01814490000106,375.01814490000106,375.01814490000106,375.92755169999873,376.4452152999984,f,0,1.4267622000006668,None,direct,14,"[19, 20, 17, 18, 12, 13, 10, 13, 12, 13, 11, 13, 12, 14, 13, 15, 14]",17,shifteddirectgaze.png,f,0,1,results21,001,2026-04-14_14h56.14.606,mogelijke versie adaptive staircase builder,,2026.1.3,59.966886286312125,2026-04-14 14h56.14.783403 +0200,
4.5,ecc10pos,left,36,0,36,f,1,1.735112800000934,None,0,0,0,0,36,0,36,0,376.53416899999866,,,,,,,,,,,,,,,376.53014339999936,376.53416899999866,376.53416899999866,376.53416899999866,377.44434399999955,378.2783242000005,f,1,1.735112800000934,None,right,15,"[19, 20, 17, 18, 12, 13, 10, 13, 12, 13, 11, 13, 12, 14, 13, 15, 14, 15]",18,shiftedgaze_R_15.png,f,1,1,results21,001,2026-04-14_14h56.14.606,mogelijke versie adaptive staircase builder,,2026.1.3,59.966886286312125,2026-04-14 14h56.14.783403 +0200,
4.5,ecc10pos,left,37,0,37,f,1,2.4924639999990177,None,0,0,0,0,37,0,37,0,378.3687030000001,,,,,,,,,,,,,,,378.36459040000045,378.3687030000001,378.3687030000001,378.3687030000001,379.27781680000044,380.8615398000002,f,1,2.4924639999990177,None,left,14,"[19, 20, 17, 18, 12, 13, 10, 13, 12, 13, 11, 13, 12, 14, 13, 15, 14, 15]",18,shiftedgaze_L_14.png,f,1,1,results21,001,2026-04-14_14h56.14.606,mogelijke versie adaptive staircase builder,,2026.1.3,59.966886286312125,2026-04-14 14h56.14.783403 +0200,
4.5,ecc10pos,left,38,0,38,j,0,1.8424454999985755,None,0,0,0,0,38,0,38,0,380.94685970000137,,,,,,,,,,,,,,,380.9427434999998,380.94685970000137,380.94685970000137,380.94685970000137,381.86127679999845,382.794554600001,j,0,1.8424454999985755,None,left,13,"[19, 20, 17, 18, 12, 13, 10, 13, 12, 13, 11, 13, 12, 14, 13, 15, 14, 15, 13]",19,shiftedgaze_L_13.png,j,0,1,results21,001,2026-04-14_14h56.14.606,mogelijke versie adaptive staircase builder,,2026.1.3,59.966886286312125,2026-04-14 14h56.14.783403 +0200,
4.5,ecc10pos,left,39,0,39,f,1,1.9085863000000245,None,0,0,0,0,39,0,39,0,382.88027760000114,,,,,,,,,,,,,,,382.8762846999998,382.88027760000114,382.88027760000114,382.88027760000114,383.7946382000009,384.79443080000055,f,1,1.9085863000000245,None,left,14,"[19, 20, 17, 18, 12, 13, 10, 13, 12, 13, 11, 13, 12, 14, 13, 15, 14, 15, 13, 14]",20,shiftedgaze_L_14.png,f,1,1,results21,001,2026-04-14_14h56.14.606,mogelijke versie adaptive staircase builder,,2026.1.3,59.966886286312125,2026-04-14 14h56.14.783403 +0200,
4.5,ecc10pos,left,40,0,40,j,0,2.0218438999982027,None,0,0,0,0,40,0,40,0,384.87905930000124,,,,,,,,,,,,,,,384.87495299999864,384.87905930000124,384.87905930000124,384.87905930000124,385.7948088000012,386.9111740999979,j,0,2.0218438999982027,None,right,13,"[19, 20, 17, 18, 12, 13, 10, 13, 12, 13, 11, 13, 12, 14, 13, 15, 14, 15, 13, 14, 13]",21,shiftedgaze_R_13.png,j,0,1,results21,001,2026-04-14_14h56.14.606,mogelijke versie adaptive staircase builder,,2026.1.3,59.966886286312125,2026-04-14 14h56.14.783403 +0200,
4.5,ecc10pos,left,41,0,41,j,0,4.150399000001926,None,0,0,0,0,41,0,41,0,386.99857110000085,,,,,,,,,,,,,,,386.99446180000086,386.99857110000085,386.99857110000085,386.99857110000085,387.91095190000124,391.16147369999817,j,0,4.150399000001926,None,right,14,"[19, 20, 17, 18, 12, 13, 10, 13, 12, 13, 11, 13, 12, 14, 13, 15, 14, 15, 13, 14, 13]",21,shiftedgaze_R_14.png,j,0,1,results21,001,2026-04-14_14h56.14.606,mogelijke versie adaptive staircase builder,,2026.1.3,59.966886286312125,2026-04-14 14h56.14.783403 +0200,
4.5,ecc10pos,left,42,0,42,j,1,1.5781322999973781,None,0,0,0,0,42,0,42,0,391.24273249999897,,,,,,,,,,,,,,,391.23875399999815,391.24273249999897,391.24273249999897,391.24273249999897,392.1610333999997,392.82780099999945,j,1,1.5781322999973781,None,direct,15,"[19, 20, 17, 18, 12, 13, 10, 13, 12, 13, 11, 13, 12, 14, 13, 15, 14, 15, 13, 14, 13, 15]",22,shifteddirectgaze.png,j,1,1,results21,001,2026-04-14_14h56.14.606,mogelijke versie adaptive staircase builder,,2026.1.3,59.966886286312125,2026-04-14 14h56.14.783403 +0200,
4.5,ecc10pos,left,43,0,43,f,1,1.8204880999983288,None,0,0,0,0,43,0,43,0,392.912599700001,,,,,,,,,,,,,,,392.9084234000002,392.912599700001,392.912599700001,392.912599700001,393.82816869999806,394.74504739999975,f,1,1.8204880999983288,None,left,14,"[19, 20, 17, 18, 12, 13, 10, 13, 12, 13, 11, 13, 12, 14, 13, 15, 14, 15, 13, 14, 13, 15]",22,shiftedgaze_L_14.png,f,1,1,results21,001,2026-04-14_14h56.14.606,mogelijke versie adaptive staircase builder,,2026.1.3,59.966886286312125,2026-04-14 14h56.14.783403 +0200,
4.5,ecc10pos,left,44,0,44,j,1,1.4506553999999596,None,0,0,0,0,44,0,44,0,394.8262375999984,,,,,,,,,,,,,,,394.82210099999793,394.8262375999984,394.8262375999984,394.8262375999984,395.7609487000009,396.277831899999,j,1,1.4506553999999596,None,direct,13,"[19, 20, 17, 18, 12, 13, 10, 13, 12, 13, 11, 13, 12, 14, 13, 15, 14, 15, 13, 14, 13, 15]",22,shifteddirectgaze.png,j,1,1,results21,001,2026-04-14_14h56.14.606,mogelijke versie adaptive staircase builder,,2026.1.3,59.966886286312125,2026-04-14 14h56.14.783403 +0200,
4.5,ecc10pos,left,45,0,45,j,0,1.4683646999983466,None,0,0,0,0,45,0,45,0,396.36050389999946,,,,,,,,,,,,,,,396.3563304999989,396.36050389999946,396.36050389999946,396.36050389999946,397.2776483999987,397.8444739000006,j,0,1.4683646999983466,None,right,12,"[19, 20, 17, 18, 12, 13, 10, 13, 12, 13, 11, 13, 12, 14, 13, 15, 14, 15, 13, 14, 13, 15, 12]",23,shiftedgaze_R_12.png,j,0,1,results21,001,2026-04-14_14h56.14.606,mogelijke versie adaptive staircase builder,,2026.1.3,59.966886286312125,2026-04-14 14h56.14.783403 +0200,
4.5,ecc10pos,left,46,0,46,j,0,1.1094927999984066,None,0,0,0,0,46,0,46,0,397.92779320000045,,,,,,,,,,,,,,,397.9236110999991,397.92779320000045,397.92779320000045,397.92779320000045,398.84478749999835,399.0451071999996,j,0,1.1094927999984066,None,left,13,"[19, 20, 17, 18, 12, 13, 10, 13, 12, 13, 11, 13, 12, 14, 13, 15, 14, 15, 13, 14, 13, 15, 12]",23,shiftedgaze_L_13.png,j,0,1,results21,001,2026-04-14_14h56.14.606,mogelijke versie adaptive staircase builder,,2026.1.3,59.966886286312125,2026-04-14 14h56.14.783403 +0200,
4.5,ecc10pos,left,47,0,47,f,1,1.9329347999992024,None,0,0,0,0,47,0,47,0,399.12813710000046,,,,,,,,,,,,,,,399.12414369999897,399.12813710000046,399.12813710000046,399.12813710000046,400.06098289999863,401.06165880000117,f,1,1.9329347999992024,None,left,14,"[19, 20, 17, 18, 12, 13, 10, 13, 12, 13, 11, 13, 12, 14, 13, 15, 14, 15, 13, 14, 13, 15, 12, 14]",24,shiftedgaze_L_14.png,f,1,1,results21,001,2026-04-14_14h56.14.606,mogelijke versie adaptive staircase builder,,2026.1.3,59.966886286312125,2026-04-14 14h56.14.783403 +0200,
4.5,ecc10pos,left,48,0,48,j,0,1.4288291000011668,None,0,0,0,0,48,0,48,0,401.14406990000134,,,,,,,,,,,,,,,401.13999200000035,401.14406990000134,401.14406990000134,401.14406990000134,402.0612101000006,402.5778012999981,j,0,1.4288291000011668,None,right,13,"[19, 20, 17, 18, 12, 13, 10, 13, 12, 13, 11, 13, 12, 14, 13, 15, 14, 15, 13, 14, 13, 15, 12, 14, 13]",25,shiftedgaze_R_13.png,j,0,1,results21,001,2026-04-14_14h56.14.606,mogelijke versie adaptive staircase builder,,2026.1.3,59.966886286312125,2026-04-14 14h56.14.783403 +0200,
4.5,ecc10pos,left,49,0,49,f,1,1.7844927000005555,None,0,0,0,0,49,0,49,0,402.6605658999979,,,,,,,,,,,,,,,402.65647759999774,402.6605658999979,402.6605658999979,402.6605658999979,403.57764640000096,404.4454326999985,f,1,1.7844927000005555,None,right,14,"[19, 20, 17, 18, 12, 13, 10, 13, 12, 13, 11, 13, 12, 14, 13, 15, 14, 15, 13, 14, 13, 15, 12, 14, 13, 14]",26,shiftedgaze_R_14.png,f,1,1,results21,001,2026-04-14_14h56.14.606,mogelijke versie adaptive staircase builder,,2026.1.3,59.966886286312125,2026-04-14 14h56.14.783403 +0200,
4.5,ecc10pos,left,50,0,50,j,0,2.6437425000003714,None,0,0,0,0,50,0,50,0,404.5290774999994,,,,,,,,,,,,,,,404.52481700000135,404.5290774999994,404.5290774999994,404.5290774999994,405.4609625999983,407.1778766999996,j,0,2.6437425000003714,None,left,13,"[19, 20, 17, 18, 12, 13, 10, 13, 12, 13, 11, 13, 12, 14, 13, 15, 14, 15, 13, 14, 13, 15, 12, 14, 13, 14, 13]",27,shiftedgaze_L_13.png,j,0,1,results21,001,2026-04-14_14h56.14.606,mogelijke versie adaptive staircase builder,,2026.1.3,59.966886286312125,2026-04-14 14h56.14.783403 +0200,
4.5,ecc10pos,left,51,0,51,f,1,1.6242163999995682,None,0,0,0,0,51,0,51,0,407.26082659999884,,,,,,,,,,,,,,,407.25640049999856,407.26082659999884,407.26082659999884,407.26082659999884,408.1776272999996,408.8950270999994,f,1,1.6242163999995682,None,left,14,"[19, 20, 17, 18, 12, 13, 10, 13, 12, 13, 11, 13, 12, 14, 13, 15, 14, 15, 13, 14, 13, 15, 12, 14, 13, 14, 13, 14]",28,shiftedgaze_L_14.png,f,1,1,results21,001,2026-04-14_14h56.14.606,mogelijke versie adaptive staircase builder,,2026.1.3,59.966886286312125,2026-04-14 14h56.14.783403 +0200,
4.5,ecc10pos,left,52,0,52,f,1,1.1795549000016763,None,0,0,0,0,52,0,52,0,408.977184899999,,,,,,,,,,,,,,,408.97300379999797,408.977184899999,408.977184899999,408.977184899999,409.89446619999944,410.1613163000002,f,1,1.1795549000016763,None,right,13,"[19, 20, 17, 18, 12, 13, 10, 13, 12, 13, 11, 13, 12, 14, 13, 15, 14, 15, 13, 14, 13, 15, 12, 14, 13, 14, 13, 14]",28,shiftedgaze_R_13.png,f,1,1,results21,001,2026-04-14_14h56.14.606,mogelijke versie adaptive staircase builder,,2026.1.3,59.966886286312125,2026-04-14 14h56.14.783403 +0200,
4.5,ecc10pos,left,53,0,53,f,1,1.797644099999161,None,0,0,0,0,53,0,53,0,410.2471340999982,,,,,,,,,,,,,,,410.2431152999998,410.2471340999982,410.2471340999982,410.2471340999982,411.1612408000001,412.0611551000002,f,1,1.797644099999161,None,right,12,"[19, 20, 17, 18, 12, 13, 10, 13, 12, 13, 11, 13, 12, 14, 13, 15, 14, 15, 13, 14, 13, 15, 12, 14, 13, 14, 13, 14]",28,shiftedgaze_R_12.png,f,1,1,results21,001,2026-04-14_14h56.14.606,mogelijke versie adaptive staircase builder,,2026.1.3,59.966886286312125,2026-04-14 14h56.14.783403 +0200,
4.5,ecc10pos,left,54,0,54,j,0,1.6134190000011586,None,0,0,0,0,54,0,54,0,412.15944239999953,,,,,,,,,,,,,,,412.1492799000007,412.15944239999953,412.15944239999953,412.15944239999953,413.06112510000094,413.77798880000046,j,0,1.6134190000011586,None,left,11,"[19, 20, 17, 18, 12, 13, 10, 13, 12, 13, 11, 13, 12, 14, 13, 15, 14, 15, 13, 14, 13, 15, 12, 14, 13, 14, 13, 14, 11]",29,shiftedgaze_L_11.png,j,0,1,results21,001,2026-04-14_14h56.14.606,mogelijke versie adaptive staircase builder,,2026.1.3,59.966886286312125,2026-04-14 14h56.14.783403 +0200,
4.5,ecc10pos,left,55,0,55,j,0,3.5933732999983476,None,0,0,0,0,55,0,55,0,413.867529799998,,,,,,,,,,,,,,,413.8580378000006,413.867529799998,413.867529799998,413.867529799998,414.77813790000073,417.4611655000008,j,0,3.5933732999983476,None,right,12,"[19, 20, 17, 18, 12, 13, 10, 13, 12, 13, 11, 13, 12, 14, 13, 15, 14, 15, 13, 14, 13, 15, 12, 14, 13, 14, 13, 14, 11]",29,shiftedgaze_R_12.png,j,0,1,results21,001,2026-04-14_14h56.14.606,mogelijke versie adaptive staircase builder,,2026.1.3,59.966886286312125,2026-04-14 14h56.14.783403 +0200,
4.5,ecc10pos,left,56,0,56,j,1,1.6722262000002956,None,0,0,0,0,56,0,56,0,417.54861139999775,,,,,,,,,,,,,,,417.5447005999995,417.54861139999775,417.54861139999775,417.54861139999775,418.4609952999999,419.2278062000005,j,1,1.6722262000002956,None,direct,13,"[19, 20, 17, 18, 12, 13, 10, 13, 12, 13, 11, 13, 12, 14, 13, 15, 14, 15, 13, 14, 13, 15, 12, 14, 13, 14, 13, 14, 11, 13]",30,shifteddirectgaze.png,j,1,1,results21,001,2026-04-14_14h56.14.606,mogelijke versie adaptive staircase builder,,2026.1.3,59.966886286312125,2026-04-14 14h56.14.783403 +0200,
4.5,ecc10pos,left,57,0,57,f,0,1.6817698999984714,None,0,0,0,0,57,0,57,0,419.32314580000093,,,,,,,,,,,,,,,419.3188795999995,419.32314580000093,419.32314580000093,419.32314580000093,420.22773959999904,421.01102080000055,f,0,1.6817698999984714,None,direct,12,"[19, 20, 17, 18, 12, 13, 10, 13, 12, 13, 11, 13, 12, 14, 13, 15, 14, 15, 13, 14, 13, 15, 12, 14, 13, 14, 13, 14, 11, 13, 12]",31,shifteddirectgaze.png,f,0,1,results21,001,2026-04-14_14h56.14.606,mogelijke versie adaptive staircase builder,,2026.1.3,59.966886286312125,2026-04-14 14h56.14.783403 +0200,
4.5,ecc10pos,left,58,0,58,f,1,1.8158519999997225,None,0,0,0,0,58,0,58,0,421.09291210000083,,,,,,,,,,,,,,,421.0890177000001,421.09291210000083,421.09291210000083,421.09291210000083,422.0108830999998,422.91109199999846,f,1,1.8158519999997225,None,right,13,"[19, 20, 17, 18, 12, 13, 10, 13, 12, 13, 11, 13, 12, 14, 13, 15, 14, 15, 13, 14, 13, 15, 12, 14, 13, 14, 13, 14, 11, 13, 12, 13]",32,shiftedgaze_R_13.png,f,1,1,results21,001,2026-04-14_14h56.14.606,mogelijke versie adaptive staircase builder,,2026.1.3,59.966886286312125,2026-04-14 14h56.14.783403 +0200,
4.5,ecc10pos,left,59,0,59,f,1,1.2026035000017146,None,0,0,0,0,59,0,59,0,422.9946373999992,,,,,,,,,,,,,,,422.99058479999803,422.9946373999992,422.9946373999992,422.9946373999992,423.91153289999784,424.2117083000012,f,1,1.2026035000017146,None,left,12,"[19, 20, 17, 18, 12, 13, 10, 13, 12, 13, 11, 13, 12, 14, 13, 15, 14, 15, 13, 14, 13, 15, 12, 14, 13, 14, 13, 14, 11, 13, 12, 13]",32,shiftedgaze_L_12.png,f,1,1,results21,001,2026-04-14_14h56.14.606,mogelijke versie adaptive staircase builder,,2026.1.3,59.966886286312125,2026-04-14 14h56.14.783403 +0200,
4.5,ecc10pos,left,0,0,0,,,,,0,0,0,0,,,,,,,,,,,,,,,,,,,,,,,,,,,,,,,,,,,,,,results21,001,2026-04-14_14h56.14.606,mogelijke versie adaptive staircase builder,,2026.1.3,59.966886286312125,2026-04-14 14h56.14.783403 +0200,
12.5,ecc0,mid,0,0,0,j,0,1.3323988999982248,None,0,1,1,1,0,0,0,0,424.29649340000105,,,,,,,,,,,,,424.21407909999834,424.21410749999995,424.29249379999965,424.29649340000105,425.22754989999885,424.29649340000105,424.29649340000105,425.6444823999991,j,0,1.3323988999982248,None,right,20,[],0,gaze_R_20.png,j,0,2,results21,001,2026-04-14_14h56.14.606,mogelijke versie adaptive staircase builder,,2026.1.3,59.966886286312125,2026-04-14 14h56.14.783403 +0200,
12.5,ecc0,mid,1,0,1,f,1,1.9718434999995225,None,0,1,1,1,1,0,1,0,425.7291245999986,,,,,,,,,,,,,,,425.7251397,425.7291245999986,426.6443255000013,425.7291245999986,425.7291245999986,427.7113175000013,f,1,1.9718434999995225,None,left,20,[20],1,gaze_L_20.png,f,1,2,results21,001,2026-04-14_14h56.14.606,mogelijke versie adaptive staircase builder,,2026.1.3,59.966886286312125,2026-04-14 14h56.14.783403 +0200,
12.5,ecc0,mid,2,0,2,j,1,2.6168748999989475,None,0,1,1,1,2,0,2,0,427.80397399999856,,,,,,,,,,,,,,,427.8000912999996,427.80397399999856,428.7112684999993,427.80397399999856,427.80397399999856,430.4280915999989,j,1,2.6168748999989475,None,direct,19,[20],1,direct_gaze.png,j,1,2,results21,001,2026-04-14_14h56.14.606,mogelijke versie adaptive staircase builder,,2026.1.3,59.966886286312125,2026-04-14 14h56.14.783403 +0200,
12.5,ecc0,mid,3,0,3,f,1,3.3142367000000377,None,0,1,1,1,3,0,3,0,430.5225142999989,,,,,,,,,,,,,,,430.5182688999994,430.5225142999989,431.4276972000007,430.5225142999989,430.5225142999989,433.8446264999984,f,1,3.3142367000000377,None,right,18,[20],1,gaze_R_18.png,f,1,2,results21,001,2026-04-14_14h56.14.606,mogelijke versie adaptive staircase builder,,2026.1.3,59.966886286312125,2026-04-14 14h56.14.783403 +0200,
12.5,ecc0,mid,4,0,4,j,0,2.384722499999043,None,0,1,1,1,4,0,4,0,433.9401598000004,,,,,,,,,,,,,,,433.9361624000012,433.9401598000004,434.84444919999805,433.9401598000004,433.9401598000004,436.32810179999797,j,0,2.384722499999043,None,right,17,"[20, 17]",2,gaze_R_17.png,j,0,2,results21,001,2026-04-14_14h56.14.606,mogelijke versie adaptive staircase builder,,2026.1.3,59.966886286312125,2026-04-14 14h56.14.783403 +0200,
12.5,ecc0,mid,5,0,5,j,0,2.493822500000533,None,0,1,1,1,5,0,5,0,436.4230377999993,,,,,,,,,,,,,,,436.4189411999978,436.4230377999993,437.32765980000113,436.4230377999993,436.4230377999993,438.92803469999853,j,0,2.493822500000533,None,right,18,"[20, 17]",2,gaze_R_18.png,j,0,2,results21,001,2026-04-14_14h56.14.606,mogelijke versie adaptive staircase builder,,2026.1.3,59.966886286312125,2026-04-14 14h56.14.783403 +0200,
12.5,ecc0,mid,6,0,6,j,1,2.2387221999997564,None,0,1,1,1,6,0,6,0,439.022170799999,,,,,,,,,,,,,,,439.01797349999833,439.022170799999,439.9276788999996,439.022170799999,439.022170799999,441.26117090000116,j,1,2.2387221999997564,None,direct,19,"[20, 17, 19]",3,direct_gaze.png,j,1,2,results21,001,2026-04-14_14h56.14.606,mogelijke versie adaptive staircase builder,,2026.1.3,59.966886286312125,2026-04-14 14h56.14.783403 +0200,
12.5,ecc0,mid,7,0,7,f,1,1.958971099997143,None,0,1,1,1,7,0,7,0,441.35780929999964,,,,,,,,,,,,,,,441.3538962999992,441.35780929999964,442.2607449999996,441.35780929999964,441.35780929999964,443.3277015999993,f,1,1.958971099997143,None,left,18,"[20, 17, 19]",3,gaze_L_18.png,f,1,2,results21,001,2026-04-14_14h56.14.606,mogelijke versie adaptive staircase builder,,2026.1.3,59.966886286312125,2026-04-14 14h56.14.783403 +0200,
12.5,ecc0,mid,8,0,8,j,1,2.5861598000010417,None,0,1,1,1,8,0,8,0,443.42678669999805,,,,,,,,,,,,,,,443.42274220000036,443.42678669999805,444.32750959999976,443.42678669999805,443.42678669999805,446.0275576999993,j,1,2.5861598000010417,None,direct,17,"[20, 17, 19]",3,direct_gaze.png,j,1,2,results21,001,2026-04-14_14h56.14.606,mogelijke versie adaptive staircase builder,,2026.1.3,59.966886286312125,2026-04-14 14h56.14.783403 +0200,
12.5,ecc0,mid,9,0,9,f,0,1.6793522000007215,None,0,1,1,1,9,0,9,0,446.10959189999994,,,,,,,,,,,,,,,446.10559999999896,446.10959189999994,447.0277425999993,446.10959189999994,446.10959189999994,447.79434630000105,f,0,1.6793522000007215,None,direct,16,"[20, 17, 19, 16]",4,direct_gaze.png,f,0,2,results21,001,2026-04-14_14h56.14.606,mogelijke versie adaptive staircase builder,,2026.1.3,59.966886286312125,2026-04-14 14h56.14.783403 +0200,
12.5,ecc0,mid,10,0,10,j,1,1.5437218000006396,None,0,1,1,1,10,0,10,0,447.87724199999866,,,,,,,,,,,,,,,447.87332289999904,447.87724199999866,448.7945140999982,447.87724199999866,447.87724199999866,449.427633299998,j,1,1.5437218000006396,None,direct,17,"[20, 17, 19, 16, 17]",5,direct_gaze.png,j,1,2,results21,001,2026-04-14_14h56.14.606,mogelijke versie adaptive staircase builder,,2026.1.3,59.966886286312125,2026-04-14 14h56.14.783403 +0200,
12.5,ecc0,mid,11,0,11,f,0,1.5344773000033456,None,0,1,1,1,11,0,11,0,449.5104977999981,,,,,,,,,,,,,,,449.50657109999884,449.5104977999981,450.42736429999786,449.5104977999981,449.5104977999981,451.04527569999846,f,0,1.5344773000033456,None,direct,16,"[20, 17, 19, 16, 17, 16]",6,direct_gaze.png,f,0,2,results21,001,2026-04-14_14h56.14.606,mogelijke versie adaptive staircase builder,,2026.1.3,59.966886286312125,2026-04-14 14h56.14.783403 +0200,
12.5,ecc0,mid,12,0,12,j,0,1.6299599999983911,None,0,1,1,1,12,0,12,0,451.1349745000007,,,,,,,,,,,,,,,451.1310401999981,451.1349745000007,452.0447189000006,451.1349745000007,451.1349745000007,452.77756600000066,j,0,1.6299599999983911,None,right,17,"[20, 17, 19, 16, 17, 16]",6,gaze_R_17.png,j,0,2,results21,001,2026-04-14_14h56.14.606,mogelijke versie adaptive staircase builder,,2026.1.3,59.966886286312125,2026-04-14 14h56.14.783403 +0200,
12.5,ecc0,mid,13,0,13,f,1,1.498813700000028,None,0,1,1,1,13,0,13,0,452.86649829999806,,,,,,,,,,,,,,,452.8624775999997,452.86649829999806,453.7780147000012,452.86649829999806,452.86649829999806,454.3782853999983,f,1,1.498813700000028,None,left,18,"[20, 17, 19, 16, 17, 16, 18]",7,gaze_L_18.png,f,1,2,results21,001,2026-04-14_14h56.14.606,mogelijke versie adaptive staircase builder,,2026.1.3,59.966886286312125,2026-04-14 14h56.14.783403 +0200,
12.5,ecc0,mid,14,0,14,j,0,1.4951793999971414,None,0,1,1,1,14,0,14,0,454.46214789999794,,,,,,,,,,,,,,,454.458213599999,454.46214789999794,455.3946933999978,454.46214789999794,454.46214789999794,455.9616595999978,j,0,1.4951793999971414,None,right,17,"[20, 17, 19, 16, 17, 16, 18, 17]",8,gaze_R_17.png,j,0,2,results21,001,2026-04-14_14h56.14.606,mogelijke versie adaptive staircase builder,,2026.1.3,59.966886286312125,2026-04-14 14h56.14.783403 +0200,
12.5,ecc0,mid,15,0,15,f,1,2.0090958000000683,None,0,1,1,1,15,0,15,0,456.0439359000011,,,,,,,,,,,,,,,456.03986449999866,456.0439359000011,456.97743550000087,456.0439359000011,456.0439359000011,458.0614432000002,f,1,2.0090958000000683,None,left,18,"[20, 17, 19, 16, 17, 16, 18, 17, 18]",9,gaze_L_18.png,f,1,2,results21,001,2026-04-14_14h56.14.606,mogelijke versie adaptive staircase builder,,2026.1.3,59.966886286312125,2026-04-14 14h56.14.783403 +0200,
12.5,ecc0,mid,16,0,16,j,0,1.6131421999998565,None,0,1,1,1,16,0,16,0,458.14412900000025,,,,,,,,,,,,,,,458.1402252000007,458.14412900000025,459.06092609999905,458.14412900000025,458.14412900000025,459.7616495000002,j,0,1.6131421999998565,None,right,17,"[20, 17, 19, 16, 17, 16, 18, 17, 18, 17]",10,gaze_R_17.png,j,0,2,results21,001,2026-04-14_14h56.14.606,mogelijke versie adaptive staircase builder,,2026.1.3,59.966886286312125,2026-04-14 14h56.14.783403 +0200,
12.5,ecc0,mid,17,0,17,j,0,1.8078420999991067,None,0,1,1,1,17,0,17,0,459.8450716999978,,,,,,,,,,,,,,,459.8410431000011,459.8450716999978,460.77738920000047,459.8450716999978,459.8450716999978,461.6610589999982,j,0,1.8078420999991067,None,left,18,"[20, 17, 19, 16, 17, 16, 18, 17, 18, 17]",10,gaze_L_18.png,j,0,2,results21,001,2026-04-14_14h56.14.606,mogelijke versie adaptive staircase builder,,2026.1.3,59.966886286312125,2026-04-14 14h56.14.783403 +0200,
12.5,ecc0,mid,18,0,18,f,1,1.3851156000018818,None,0,1,1,1,18,0,18,0,461.7477288000009,,,,,,,,,,,,,,,461.7437155000007,461.7477288000009,462.66143549999833,461.7477288000009,461.7477288000009,463.14440470000045,f,1,1.3851156000018818,None,left,19,"[20, 17, 19, 16, 17, 16, 18, 17, 18, 17, 19]",11,gaze_L_19.png,f,1,2,results21,001,2026-04-14_14h56.14.606,mogelijke versie adaptive staircase builder,,2026.1.3,59.966886286312125,2026-04-14 14h56.14.783403 +0200,
12.5,ecc0,mid,19,0,19,j,1,1.6187463000023854,None,0,1,1,1,19,0,19,0,463.22625309999785,,,,,,,,,,,,,,,463.2219189999996,463.22625309999785,464.1442425999994,463.22625309999785,463.22625309999785,464.8453179999997,j,1,1.6187463000023854,None,direct,18,"[20, 17, 19, 16, 17, 16, 18, 17, 18, 17, 19]",11,direct_gaze.png,j,1,2,results21,001,2026-04-14_14h56.14.606,mogelijke versie adaptive staircase builder,,2026.1.3,59.966886286312125,2026-04-14 14h56.14.783403 +0200,
12.5,ecc0,mid,20,0,20,f,1,2.342667699998856,None,0,1,1,1,20,0,20,0,464.93439840000065,,,,,,,,,,,,,,,464.93039839999983,464.93439840000065,465.8610727999985,464.93439840000065,464.93439840000065,467.2777414000011,f,1,2.342667699998856,None,left,17,"[20, 17, 19, 16, 17, 16, 18, 17, 18, 17, 19]",11,gaze_L_17.png,f,1,2,results21,001,2026-04-14_14h56.14.606,mogelijke versie adaptive staircase builder,,2026.1.3,59.966886286312125,2026-04-14 14h56.14.783403 +0200,
12.5,ecc0,mid,21,0,21,j,1,2.37276870000278,None,0,1,1,1,21,0,21,0,467.36050519999844,,,,,,,,,,,,,,,467.3566248999996,467.36050519999844,468.27749219999896,467.36050519999844,467.36050519999844,469.74486160000015,j,1,2.37276870000278,None,direct,16,"[20, 17, 19, 16, 17, 16, 18, 17, 18, 17, 19]",11,direct_gaze.png,j,1,2,results21,001,2026-04-14_14h56.14.606,mogelijke versie adaptive staircase builder,,2026.1.3,59.966886286312125,2026-04-14 14h56.14.783403 +0200,
12.5,ecc0,mid,22,0,22,j,0,1.8381235000015295,None,0,1,1,1,22,0,22,0,469.83123559999876,,,,,,,,,,,,,,,469.8273870999983,469.83123559999876,470.74468830000114,469.83123559999876,469.83123559999876,471.67847690000053,j,0,1.8381235000015295,None,right,15,"[20, 17, 19, 16, 17, 16, 18, 17, 18, 17, 19, 15]",12,gaze_R_15.png,j,0,2,results21,001,2026-04-14_14h56.14.606,mogelijke versie adaptive staircase builder,,2026.1.3,59.966886286312125,2026-04-14 14h56.14.783403 +0200,
12.5,ecc0,mid,23,0,23,j,0,1.646516500000871,None,0,1,1,1,23,0,23,0,471.7663189999985,,,,,,,,,,,,,,,471.76232940000045,471.7663189999985,472.6941458000001,471.7663189999985,471.7663189999985,473.4276580000005,j,0,1.646516500000871,None,left,16,"[20, 17, 19, 16, 17, 16, 18, 17, 18, 17, 19, 15]",12,gaze_L_16.png,j,0,2,results21,001,2026-04-14_14h56.14.606,mogelijke versie adaptive staircase builder,,2026.1.3,59.966886286312125,2026-04-14 14h56.14.783403 +0200,
12.5,ecc0,mid,24,0,24,j,0,1.2062014000002819,None,0,1,1,1,24,0,24,0,473.51109879999785,,,,,,,,,,,,,,,473.5070575999998,473.51109879999785,474.4279429999988,473.51109879999785,473.51109879999785,474.7283224999992,j,0,1.2062014000002819,None,right,17,"[20, 17, 19, 16, 17, 16, 18, 17, 18, 17, 19, 15]",12,gaze_R_17.png,j,0,2,results21,001,2026-04-14_14h56.14.606,mogelijke versie adaptive staircase builder,,2026.1.3,59.966886286312125,2026-04-14 14h56.14.783403 +0200,
12.5,ecc0,mid,25,0,25,j,0,1.252974600000016,None,0,1,1,1,25,0,25,0,474.81634629999826,,,,,,,,,,,,,,,474.8121742000003,474.81634629999826,475.728073899998,474.81634629999826,474.81634629999826,476.0783244000013,j,0,1.252974600000016,None,right,18,"[20, 17, 19, 16, 17, 16, 18, 17, 18, 17, 19, 15]",12,gaze_R_18.png,j,0,2,results21,001,2026-04-14_14h56.14.606,mogelijke versie adaptive staircase builder,,2026.1.3,59.966886286312125,2026-04-14 14h56.14.783403 +0200,
12.5,ecc0,mid,26,0,26,j,1,1.3966929000016535,None,0,1,1,1,26,0,26,0,476.1602034999996,,,,,,,,,,,,,,,476.1562567000001,476.1602034999996,477.0777022000002,476.1602034999996,476.1602034999996,477.5613560999991,j,1,1.3966929000016535,None,direct,19,"[20, 17, 19, 16, 17, 16, 18, 17, 18, 17, 19, 15, 19]",13,direct_gaze.png,j,1,2,results21,001,2026-04-14_14h56.14.606,mogelijke versie adaptive staircase builder,,2026.1.3,59.966886286312125,2026-04-14 14h56.14.783403 +0200,
12.5,ecc0,mid,27,0,27,f,0,1.2668794999990496,None,0,1,1,1,27,0,27,0,477.6428463000011,,,,,,,,,,,,,,,477.638420700001,477.6428463000011,478.56132589999834,477.6428463000011,477.6428463000011,478.9114547999998,f,0,1.2668794999990496,None,direct,18,"[20, 17, 19, 16, 17, 16, 18, 17, 18, 17, 19, 15, 19, 18]",14,direct_gaze.png,f,0,2,results21,001,2026-04-14_14h56.14.606,mogelijke versie adaptive staircase builder,,2026.1.3,59.966886286312125,2026-04-14 14h56.14.783403 +0200,
12.5,ecc0,mid,28,0,28,j,1,1.5882910000000265,None,0,1,1,1,28,0,28,0,478.99285189999864,,,,,,,,,,,,,,,478.98850400000083,478.99285189999864,479.9112486999984,478.99285189999864,478.99285189999864,480.5946194999997,j,1,1.5882910000000265,None,direct,19,"[20, 17, 19, 16, 17, 16, 18, 17, 18, 17, 19, 15, 19, 18, 19]",15,direct_gaze.png,j,1,2,results21,001,2026-04-14_14h56.14.606,mogelijke versie adaptive staircase builder,,2026.1.3,59.966886286312125,2026-04-14 14h56.14.783403 +0200,
12.5,ecc0,mid,29,0,29,f,0,1.8735602000015206,None,0,1,1,1,29,0,29,0,480.6751833999988,,,,,,,,,,,,,,,480.67112890000135,480.6751833999988,481.5947000999986,480.6751833999988,480.6751833999988,482.5610878000007,f,0,1.8735602000015206,None,direct,18,"[20, 17, 19, 16, 17, 16, 18, 17, 18, 17, 19, 15, 19, 18, 19, 18]",16,direct_gaze.png,f,0,2,results21,001,2026-04-14_14h56.14.606,mogelijke versie adaptive staircase builder,,2026.1.3,59.966886286312125,2026-04-14 14h56.14.783403 +0200,
12.5,ecc0,mid,30,0,30,j,1,1.2752413000016531,None,0,1,1,1,30,0,30,0,482.64171689999785,,,,,,,,,,,,,,,482.63789180000094,482.64171689999785,483.56126479999875,482.64171689999785,482.64171689999785,483.9280943999984,j,1,1.2752413000016531,None,direct,19,"[20, 17, 19, 16, 17, 16, 18, 17, 18, 17, 19, 15, 19, 18, 19, 18, 19]",17,direct_gaze.png,j,1,2,results21,001,2026-04-14_14h56.14.606,mogelijke versie adaptive staircase builder,,2026.1.3,59.966886286312125,2026-04-14 14h56.14.783403 +0200,
12.5,ecc0,mid,31,0,31,f,1,1.5055499999980384,None,0,1,1,1,31,0,31,0,484.01179870000124,,,,,,,,,,,,,,,484.0076565999989,484.01179870000124,484.9280209999997,484.01179870000124,484.01179870000124,485.52811680000013,f,1,1.5055499999980384,None,right,18,"[20, 17, 19, 16, 17, 16, 18, 17, 18, 17, 19, 15, 19, 18, 19, 18, 19]",17,gaze_R_18.png,f,1,2,results21,001,2026-04-14_14h56.14.606,mogelijke versie adaptive staircase builder,,2026.1.3,59.966886286312125,2026-04-14 14h56.14.783403 +0200,
12.5,ecc0,mid,32,0,32,j,0,2.0582643000016105,None,0,1,1,1,32,0,32,0,485.61065179999787,,,,,,,,,,,,,,,485.606566399998,485.61065179999787,486.52757759999804,485.61065179999787,485.61065179999787,487.6777254999979,j,0,2.0582643000016105,None,right,17,"[20, 17, 19, 16, 17, 16, 18, 17, 18, 17, 19, 15, 19, 18, 19, 18, 19, 17]",18,gaze_R_17.png,j,0,2,results21,001,2026-04-14_14h56.14.606,mogelijke versie adaptive staircase builder,,2026.1.3,59.966886286312125,2026-04-14 14h56.14.783403 +0200,
12.5,ecc0,mid,33,0,33,j,1,1.2537609999999404,None,0,1,1,1,33,0,33,0,487.7595478000003,,,,,,,,,,,,,,,487.7547874999982,487.7595478000003,488.6780543999994,487.7595478000003,487.7595478000003,489.0284336000004,j,1,1.2537609999999404,None,direct,18,"[20, 17, 19, 16, 17, 16, 18, 17, 18, 17, 19, 15, 19, 18, 19, 18, 19, 17, 18]",19,direct_gaze.png,j,1,2,results21,001,2026-04-14_14h56.14.606,mogelijke versie adaptive staircase builder,,2026.1.3,59.966886286312125,2026-04-14 14h56.14.783403 +0200,
12.5,ecc0,mid,34,0,34,j,0,1.5404565000026196,None,0,1,1,1,34,0,34,0,489.1126839999997,,,,,,,,,,,,,,,489.10858559999906,489.1126839999997,490.0446812000009,489.1126839999997,489.1126839999997,490.66167080000014,j,0,1.5404565000026196,None,right,17,"[20, 17, 19, 16, 17, 16, 18, 17, 18, 17, 19, 15, 19, 18, 19, 18, 19, 17, 18, 17]",20,gaze_R_17.png,j,0,2,results21,001,2026-04-14_14h56.14.606,mogelijke versie adaptive staircase builder,,2026.1.3,59.966886286312125,2026-04-14 14h56.14.783403 +0200,
12.5,ecc0,mid,35,0,35,j,0,1.2843145999977423,None,0,1,1,1,35,0,35,0,490.744662699999,,,,,,,,,,,,,,,490.7406148000009,490.744662699999,491.67764270000043,490.744662699999,490.744662699999,492.0450133999984,j,0,1.2843145999977423,None,right,18,"[20, 17, 19, 16, 17, 16, 18, 17, 18, 17, 19, 15, 19, 18, 19, 18, 19, 17, 18, 17]",20,gaze_R_18.png,j,0,2,results21,001,2026-04-14_14h56.14.606,mogelijke versie adaptive staircase builder,,2026.1.3,59.966886286312125,2026-04-14 14h56.14.783403 +0200,
12.5,ecc0,mid,36,0,36,f,0,1.2681991000026756,None,0,1,1,1,36,0,36,0,492.1287196999983,,,,,,,,,,,,,,,492.12466719999793,492.1287196999983,493.0444549999993,492.1287196999983,492.1287196999983,493.4110533999992,f,0,1.2681991000026756,None,direct,19,"[20, 17, 19, 16, 17, 16, 18, 17, 18, 17, 19, 15, 19, 18, 19, 18, 19, 17, 18, 17]",20,direct_gaze.png,f,0,2,results21,001,2026-04-14_14h56.14.606,mogelijke versie adaptive staircase builder,,2026.1.3,59.966886286312125,2026-04-14 14h56.14.783403 +0200,
12.5,ecc0,mid,37,0,37,j,0,1.3664637000001676,None,0,1,1,1,37,0,37,0,493.50284810000085,,,,,,,,,,,,,,,493.4988388999991,493.50284810000085,494.41087250000055,493.50284810000085,493.50284810000085,494.8783089999997,j,0,1.3664637000001676,None,right,20,"[20, 17, 19, 16, 17, 16, 18, 17, 18, 17, 19, 15, 19, 18, 19, 18, 19, 17, 18, 17]",20,gaze_R_20.png,j,0,2,results21,001,2026-04-14_14h56.14.606,mogelijke versie adaptive staircase builder,,2026.1.3,59.966886286312125,2026-04-14 14h56.14.783403 +0200,
12.5,ecc0,mid,38,0,38,j,1,1.7185668999991321,None,0,1,1,1,38,0,38,0,494.96635369999785,,,,,,,,,,,,,,,494.961728899998,494.96635369999785,495.8779868999991,494.96635369999785,494.96635369999785,496.6943643000013,j,1,1.7185668999991321,None,direct,20,"[20, 17, 19, 16, 17, 16, 18, 17, 18, 17, 19, 15, 19, 18, 19, 18, 19, 17, 18, 17, 20]",21,direct_gaze.png,j,1,2,results21,001,2026-04-14_14h56.14.606,mogelijke versie adaptive staircase builder,,2026.1.3,59.966886286312125,2026-04-14 14h56.14.783403 +0200,
12.5,ecc0,mid,39,0,39,f,1,1.8868895999985398,None,0,1,1,1,39,0,39,0,496.782054700001,,,,,,,,,,,,,,,496.778097800001,496.782054700001,497.6939721999988,496.782054700001,496.782054700001,498.67771379999976,f,1,1.8868895999985398,None,right,19,"[20, 17, 19, 16, 17, 16, 18, 17, 18, 17, 19, 15, 19, 18, 19, 18, 19, 17, 18, 17, 20]",21,gaze_R_19.png,f,1,2,results21,001,2026-04-14_14h56.14.606,mogelijke versie adaptive staircase builder,,2026.1.3,59.966886286312125,2026-04-14 14h56.14.783403 +0200,
12.5,ecc0,mid,40,0,40,j,0,1.2542067000031238,None,0,1,1,1,40,0,40,0,498.7587311999996,,,,,,,,,,,,,,,498.75466249999954,498.7587311999996,499.6773596999992,498.7587311999996,498.7587311999996,500.0275651000011,j,0,1.2542067000031238,None,right,18,"[20, 17, 19, 16, 17, 16, 18, 17, 18, 17, 19, 15, 19, 18, 19, 18, 19, 17, 18, 17, 20, 18]",22,gaze_R_18.png,j,0,2,results21,001,2026-04-14_14h56.14.606,mogelijke versie adaptive staircase builder,,2026.1.3,59.966886286312125,2026-04-14 14h56.14.783403 +0200,
12.5,ecc0,mid,41,0,41,f,0,1.262382200002321,None,0,1,1,1,41,0,41,0,500.1109584000005,,,,,,,,,,,,,,,500.1069260000004,500.1109584000005,501.0277180000012,500.1109584000005,500.1109584000005,501.3783837999981,f,0,1.262382200002321,None,direct,19,"[20, 17, 19, 16, 17, 16, 18, 17, 18, 17, 19, 15, 19, 18, 19, 18, 19, 17, 18, 17, 20, 18]",22,direct_gaze.png,f,0,2,results21,001,2026-04-14_14h56.14.606,mogelijke versie adaptive staircase builder,,2026.1.3,59.966886286312125,2026-04-14 14h56.14.783403 +0200,
12.5,ecc0,mid,42,0,42,f,1,3.3684068999973533,None,0,1,1,1,42,0,42,0,501.4688500000011,,,,,,,,,,,,,,,501.4646658999991,501.4688500000011,502.37806289999935,501.4688500000011,501.4688500000011,504.8450888999978,f,1,3.3684068999973533,None,left,20,"[20, 17, 19, 16, 17, 16, 18, 17, 18, 17, 19, 15, 19, 18, 19, 18, 19, 17, 18, 17, 20, 18, 20]",23,gaze_L_20.png,f,1,2,results21,001,2026-04-14_14h56.14.606,mogelijke versie adaptive staircase builder,,2026.1.3,59.966886286312125,2026-04-14 14h56.14.783403 +0200,
12.5,ecc0,mid,43,0,43,f,1,2.5795556000011857,None,0,1,1,1,43,0,43,0,504.9293322000012,,,,,,,,,,,,,,,504.925194200001,504.9293322000012,505.84457190000103,504.9293322000012,504.9293322000012,507.51159180000104,f,1,2.5795556000011857,None,right,19,"[20, 17, 19, 16, 17, 16, 18, 17, 18, 17, 19, 15, 19, 18, 19, 18, 19, 17, 18, 17, 20, 18, 20]",23,gaze_R_19.png,f,1,2,results21,001,2026-04-14_14h56.14.606,mogelijke versie adaptive staircase builder,,2026.1.3,59.966886286312125,2026-04-14 14h56.14.783403 +0200,
12.5,ecc0,mid,44,0,44,f,1,1.4742565999986255,None,0,1,1,1,44,0,44,0,507.5947281000008,,,,,,,,,,,,,,,507.59071309999854,507.5947281000008,508.52755869999964,507.5947281000008,507.5947281000008,509.0785192000003,f,1,1.4742565999986255,None,left,18,"[20, 17, 19, 16, 17, 16, 18, 17, 18, 17, 19, 15, 19, 18, 19, 18, 19, 17, 18, 17, 20, 18, 20]",23,gaze_L_18.png,f,1,2,results21,001,2026-04-14_14h56.14.606,mogelijke versie adaptive staircase builder,,2026.1.3,59.966886286312125,2026-04-14 14h56.14.783403 +0200,
12.5,ecc0,mid,45,0,45,j,0,1.5546677000020281,None,0,1,1,1,45,0,45,0,509.1620498000011,,,,,,,,,,,,,,,509.157708499999,509.1620498000011,510.09431349999795,509.1620498000011,509.1620498000011,510.7278391,j,0,1.5546677000020281,None,right,17,"[20, 17, 19, 16, 17, 16, 18, 17, 18, 17, 19, 15, 19, 18, 19, 18, 19, 17, 18, 17, 20, 18, 20, 17]",24,gaze_R_17.png,j,0,2,results21,001,2026-04-14_14h56.14.606,mogelijke versie adaptive staircase builder,,2026.1.3,59.966886286312125,2026-04-14 14h56.14.783403 +0200,
12.5,ecc0,mid,46,0,46,f,1,1.8036062999999558,None,0,1,1,1,46,0,46,0,510.8096239000006,,,,,,,,,,,,,,,510.80568810000113,510.8096239000006,511.72751530000096,510.8096239000006,510.8096239000006,512.6281961999994,f,1,1.8036062999999558,None,right,18,"[20, 17, 19, 16, 17, 16, 18, 17, 18, 17, 19, 15, 19, 18, 19, 18, 19, 17, 18, 17, 20, 18, 20, 17, 18]",25,gaze_R_18.png,f,1,2,results21,001,2026-04-14_14h56.14.606,mogelijke versie adaptive staircase builder,,2026.1.3,59.966886286312125,2026-04-14 14h56.14.783403 +0200,
12.5,ecc0,mid,47,0,47,j,1,1.252440199998091,None,0,1,1,1,47,0,47,0,512.7124745000001,,,,,,,,,,,,,,,512.7081584999978,512.7124745000001,513.6443284999987,512.7124745000001,512.7124745000001,513.9784938000012,j,1,1.252440199998091,None,direct,17,"[20, 17, 19, 16, 17, 16, 18, 17, 18, 17, 19, 15, 19, 18, 19, 18, 19, 17, 18, 17, 20, 18, 20, 17, 18]",25,direct_gaze.png,j,1,2,results21,001,2026-04-14_14h56.14.606,mogelijke versie adaptive staircase builder,,2026.1.3,59.966886286312125,2026-04-14 14h56.14.783403 +0200,
12.5,ecc0,mid,48,0,48,j,0,1.224058600000717,None,0,1,1,1,48,0,48,0,514.0689297999998,,,,,,,,,,,,,,,514.0649623999998,514.0689297999998,514.9943237000007,514.0689297999998,514.0689297999998,515.2946080000002,j,0,1.224058600000717,None,right,16,"[20, 17, 19, 16, 17, 16, 18, 17, 18, 17, 19, 15, 19, 18, 19, 18, 19, 17, 18, 17, 20, 18, 20, 17, 18, 16]",26,gaze_R_16.png,j,0,2,results21,001,2026-04-14_14h56.14.606,mogelijke versie adaptive staircase builder,,2026.1.3,59.966886286312125,2026-04-14 14h56.14.783403 +0200,
12.5,ecc0,mid,49,0,49,j,0,1.3701486999998451,None,0,1,1,1,49,0,49,0,515.3786747000013,,,,,,,,,,,,,,,515.3745325999989,515.3786747000013,516.2948059999981,515.3786747000013,515.3786747000013,516.761116499998,j,0,1.3701486999998451,None,right,17,"[20, 17, 19, 16, 17, 16, 18, 17, 18, 17, 19, 15, 19, 18, 19, 18, 19, 17, 18, 17, 20, 18, 20, 17, 18, 16]",26,gaze_R_17.png,j,0,2,results21,001,2026-04-14_14h56.14.606,mogelijke versie adaptive staircase builder,,2026.1.3,59.966886286312125,2026-04-14 14h56.14.783403 +0200,
12.5,ecc0,mid,50,0,50,j,0,1.1277478000010888,None,0,1,1,1,50,0,50,0,516.8454897999982,,,,,,,,,,,,,,,516.8413546000011,516.8454897999982,517.7609976999993,516.8454897999982,516.8454897999982,517.9785682000002,j,0,1.1277478000010888,None,right,18,"[20, 17, 19, 16, 17, 16, 18, 17, 18, 17, 19, 15, 19, 18, 19, 18, 19, 17, 18, 17, 20, 18, 20, 17, 18, 16]",26,gaze_R_18.png,j,0,2,results21,001,2026-04-14_14h56.14.606,mogelijke versie adaptive staircase builder,,2026.1.3,59.966886286312125,2026-04-14 14h56.14.783403 +0200,
12.5,ecc0,mid,51,0,51,j,1,1.0813048999989405,None,0,1,1,1,51,0,51,0,518.059604099999,,,,,,,,,,,,,,,518.0551329000009,518.059604099999,518.9780266999987,518.059604099999,518.059604099999,519.1444936000007,j,1,1.0813048999989405,None,direct,19,"[20, 17, 19, 16, 17, 16, 18, 17, 18, 17, 19, 15, 19, 18, 19, 18, 19, 17, 18, 17, 20, 18, 20, 17, 18, 16, 19]",27,direct_gaze.png,j,1,2,results21,001,2026-04-14_14h56.14.606,mogelijke versie adaptive staircase builder,,2026.1.3,59.966886286312125,2026-04-14 14h56.14.783403 +0200,
12.5,ecc0,mid,52,0,52,f,1,1.7533924999988812,None,0,1,1,1,52,0,52,0,519.2274834999989,,,,,,,,,,,,,,,519.223188699998,519.2274834999989,520.1448051999978,519.2274834999989,519.2274834999989,520.9944778999998,f,1,1.7533924999988812,None,right,18,"[20, 17, 19, 16, 17, 16, 18, 17, 18, 17, 19, 15, 19, 18, 19, 18, 19, 17, 18, 17, 20, 18, 20, 17, 18, 16, 19]",27,gaze_R_18.png,f,1,2,results21,001,2026-04-14_14h56.14.606,mogelijke versie adaptive staircase builder,,2026.1.3,59.966886286312125,2026-04-14 14h56.14.783403 +0200,
12.5,ecc0,mid,53,0,53,f,1,1.7737667000001238,None,0,1,1,1,53,0,53,0,521.0791414999985,,,,,,,,,,,,,,,521.0748863000008,521.0791414999985,521.994859800001,521.0791414999985,521.0791414999985,522.8618122999978,f,1,1.7737667000001238,None,right,17,"[20, 17, 19, 16, 17, 16, 18, 17, 18, 17, 19, 15, 19, 18, 19, 18, 19, 17, 18, 17, 20, 18, 20, 17, 18, 16, 19]",27,gaze_R_17.png,f,1,2,results21,001,2026-04-14_14h56.14.606,mogelijke versie adaptive staircase builder,,2026.1.3,59.966886286312125,2026-04-14 14h56.14.783403 +0200,
12.5,ecc0,mid,54,0,54,j,0,1.308490300001722,None,0,1,1,1,54,0,54,0,522.944599399998,,,,,,,,,,,,,,,522.9403774999992,522.944599399998,523.8616102999986,522.944599399998,522.944599399998,524.2615517000013,j,0,1.308490300001722,None,right,16,"[20, 17, 19, 16, 17, 16, 18, 17, 18, 17, 19, 15, 19, 18, 19, 18, 19, 17, 18, 17, 20, 18, 20, 17, 18, 16, 19, 16]",28,gaze_R_16.png,j,0,2,results21,001,2026-04-14_14h56.14.606,mogelijke versie adaptive staircase builder,,2026.1.3,59.966886286312125,2026-04-14 14h56.14.783403 +0200,
12.5,ecc0,mid,55,0,55,j,0,1.5579498000006424,None,0,1,1,1,55,0,55,0,524.3429270999986,,,,,,,,,,,,,,,524.3388388999992,524.3429270999986,525.2613233000011,524.3429270999986,524.3429270999986,525.9111577000003,j,0,1.5579498000006424,None,right,17,"[20, 17, 19, 16, 17, 16, 18, 17, 18, 17, 19, 15, 19, 18, 19, 18, 19, 17, 18, 17, 20, 18, 20, 17, 18, 16, 19, 16]",28,gaze_R_17.png,j,0,2,results21,001,2026-04-14_14h56.14.606,mogelijke versie adaptive staircase builder,,2026.1.3,59.966886286312125,2026-04-14 14h56.14.783403 +0200,
12.5,ecc0,mid,56,0,56,j,1,1.7224952000033227,None,0,1,1,1,56,0,56,0,525.9943815000006,,,,,,,,,,,,,,,525.9902637999985,525.9943815000006,526.9109700000008,525.9943815000006,525.9943815000006,527.7278329000001,j,1,1.7224952000033227,None,direct,18,"[20, 17, 19, 16, 17, 16, 18, 17, 18, 17, 19, 15, 19, 18, 19, 18, 19, 17, 18, 17, 20, 18, 20, 17, 18, 16, 19, 16, 18]",29,direct_gaze.png,j,1,2,results21,001,2026-04-14_14h56.14.606,mogelijke versie adaptive staircase builder,,2026.1.3,59.966886286312125,2026-04-14 14h56.14.783403 +0200,
12.5,ecc0,mid,57,0,57,f,1,1.6352065999999468,None,0,1,1,1,57,0,57,0,527.8095790999978,,,,,,,,,,,,,,,527.8055992000009,527.8095790999978,528.727627799999,527.8095790999978,527.8095790999978,529.4617560000006,f,1,1.6352065999999468,None,right,17,"[20, 17, 19, 16, 17, 16, 18, 17, 18, 17, 19, 15, 19, 18, 19, 18, 19, 17, 18, 17, 20, 18, 20, 17, 18, 16, 19, 16, 18]",29,gaze_R_17.png,f,1,2,results21,001,2026-04-14_14h56.14.606,mogelijke versie adaptive staircase builder,,2026.1.3,59.966886286312125,2026-04-14 14h56.14.783403 +0200,
12.5,ecc0,mid,58,0,58,j,0,1.5406930999997712,None,0,1,1,1,58,0,58,0,529.5442251999993,,,,,,,,,,,,,,,529.5402351000012,529.5442251999993,530.461514999999,529.5442251999993,529.5442251999993,531.0951191999993,j,0,1.5406930999997712,None,left,16,"[20, 17, 19, 16, 17, 16, 18, 17, 18, 17, 19, 15, 19, 18, 19, 18, 19, 17, 18, 17, 20, 18, 20, 17, 18, 16, 19, 16, 18, 16]",30,gaze_L_16.png,j,0,2,results21,001,2026-04-14_14h56.14.606,mogelijke versie adaptive staircase builder,,2026.1.3,59.966886286312125,2026-04-14 14h56.14.783403 +0200,
12.5,ecc0,mid,59,0,59,f,1,1.9381594000005862,None,0,1,1,1,59,0,59,0,531.178738999999,,,,,,,,,,,,,,,531.1744824999987,531.178738999999,532.0946225999978,531.178738999999,531.178738999999,533.1284377999982,f,1,1.9381594000005862,None,left,17,"[20, 17, 19, 16, 17, 16, 18, 17, 18, 17, 19, 15, 19, 18, 19, 18, 19, 17, 18, 17, 20, 18, 20, 17, 18, 16, 19, 16, 18, 16, 17]",31,gaze_L_17.png,f,1,2,results21,001,2026-04-14_14h56.14.606,mogelijke versie adaptive staircase builder,,2026.1.3,59.966886286312125,2026-04-14 14h56.14.783403 +0200,
12.5,ecc0,mid,1,1,0,,,,,0,1,1,1,,,,,,,,,,,,,,,,,,,,,,,,,,,,,,,,,,,,,,results21,001,2026-04-14_14h56.14.606,mogelijke versie adaptive staircase builder,,2026.1.3,59.966886286312125,2026-04-14 14h56.14.783403 +0200,
20.5,ecc10neg,right,0,0,0,j,0,2.5359700999979395,None,0,2,2,2,0,0,0,0,533.2369145000011,,,,,,,,,,,,,533.1492084999991,533.1492595999989,533.2330270999992,533.2369145000011,533.2369145000011,534.161465000001,533.2369145000011,535.7777036999978,j,0,2.5359700999979395,None,left,20,[],0,shiftedgaze_L_20.png,j,0,3,results21,001,2026-04-14_14h56.14.606,mogelijke versie adaptive staircase builder,,2026.1.3,59.966886286312125,2026-04-14 14h56.14.783403 +0200,
20.5,ecc10neg,right,1,0,1,j,0,2.471284499999456,None,0,2,2,2,1,0,1,0,535.8616484999984,,,,,,,,,,,,,,,535.8577043000005,535.8616484999984,535.8616484999984,536.7776054999995,535.8616484999984,538.3443251999997,j,0,2.471284499999456,None,left,20,[],0,shiftedgaze_L_20.png,j,0,3,results21,001,2026-04-14_14h56.14.606,mogelijke versie adaptive staircase builder,,2026.1.3,59.966886286312125,2026-04-14 14h56.14.783403 +0200,
20.5,ecc10neg,right,2,0,2,j,1,1.60413360000166,None,0,2,2,2,2,0,2,0,538.4331407999998,,,,,,,,,,,,,,,538.4290359000006,538.4331407999998,538.4331407999998,539.3442915999985,538.4331407999998,540.0446816000003,j,1,1.60413360000166,None,direct,20,[20],1,shifteddirectgaze.png,j,1,3,results21,001,2026-04-14_14h56.14.606,mogelijke versie adaptive staircase builder,,2026.1.3,59.966886286312125,2026-04-14 14h56.14.783403 +0200,
20.5,ecc10neg,right,3,0,3,j,0,1.6305084000014176,None,0,2,2,2,3,0,3,0,540.1582506999985,,,,,,,,,,,,,,,540.147060299998,540.1582506999985,540.1582506999985,541.0443355999996,540.1582506999985,541.7944949999983,j,0,1.6305084000014176,None,right,19,"[20, 19]",2,shiftedgaze_R_19.png,j,0,3,results21,001,2026-04-14_14h56.14.606,mogelijke versie adaptive staircase builder,,2026.1.3,59.966886286312125,2026-04-14 14h56.14.783403 +0200,
20.5,ecc10neg,right,4,0,4,j,0,1.6526057000010042,None,0,2,2,2,4,0,4,0,541.8886653000009,,,,,,,,,,,,,,,541.884576299999,541.8886653000009,541.8886653000009,542.7943226999996,541.8886653000009,543.5451627000002,j,0,1.6526057000010042,None,right,20,"[20, 19]",2,shiftedgaze_R_20.png,j,0,3,results21,001,2026-04-14_14h56.14.606,mogelijke versie adaptive staircase builder,,2026.1.3,59.966886286312125,2026-04-14 14h56.14.783403 +0200,
20.5,ecc10neg,right,5,0,5,j,0,2.1375475999993796,None,0,2,2,2,5,0,5,0,543.6356988000007,,,,,,,,,,,,,,,543.6258487999985,543.6356988000007,543.6356988000007,544.5608929000009,543.6356988000007,545.7784561999979,j,0,2.1375475999993796,None,left,20,"[20, 19]",2,shiftedgaze_L_20.png,j,0,3,results21,001,2026-04-14_14h56.14.606,mogelijke versie adaptive staircase builder,,2026.1.3,59.966886286312125,2026-04-14 14h56.14.783403 +0200,
20.5,ecc10neg,right,6,0,6,f,1,1.2555431999971916,None,0,2,2,2,6,0,6,0,545.8612383,,,,,,,,,,,,,,,545.8571787000001,545.8612383,545.8612383,546.7943923999992,545.8612383,547.1279690999982,f,1,1.2555431999971916,None,left,20,"[20, 19, 20]",3,shiftedgaze_L_20.png,f,1,3,results21,001,2026-04-14_14h56.14.606,mogelijke versie adaptive staircase builder,,2026.1.3,59.966886286312125,2026-04-14 14h56.14.783403 +0200,
20.5,ecc10neg,right,7,0,7,f,0,2.184703899998567,None,0,2,2,2,7,0,7,0,547.2125086999986,,,,,,,,,,,,,,,547.2086297999995,547.2125086999986,547.2125086999986,548.1276546000008,547.2125086999986,549.4116633999984,f,0,2.184703899998567,None,direct,19,"[20, 19, 20, 19]",4,shifteddirectgaze.png,f,0,3,results21,001,2026-04-14_14h56.14.606,mogelijke versie adaptive staircase builder,,2026.1.3,59.966886286312125,2026-04-14 14h56.14.783403 +0200,
20.5,ecc10neg,right,8,0,8,j,0,1.5429843999991135,None,0,2,2,2,8,0,8,0,549.4942545000013,,,,,,,,,,,,,,,549.4902250000014,549.4942545000013,549.4942545000013,550.4114594999992,549.4942545000013,551.0451141000012,j,0,1.5429843999991135,None,left,20,"[20, 19, 20, 19]",4,shiftedgaze_L_20.png,j,0,3,results21,001,2026-04-14_14h56.14.606,mogelijke versie adaptive staircase builder,,2026.1.3,59.966886286312125,2026-04-14 14h56.14.783403 +0200,
20.5,ecc10neg,right,9,0,9,f,1,1.4155386999991606,None,0,2,2,2,9,0,9,0,551.1413785000004,,,,,,,,,,,,,,,551.1316284999994,551.1413785000004,551.1413785000004,552.0445556999985,551.1413785000004,552.561122799998,f,1,1.4155386999991606,None,right,20,"[20, 19, 20, 19, 20]",5,shiftedgaze_R_20.png,f,1,3,results21,001,2026-04-14_14h56.14.606,mogelijke versie adaptive staircase builder,,2026.1.3,59.966886286312125,2026-04-14 14h56.14.783403 +0200,
20.5,ecc10neg,right,10,0,10,j,0,1.5817628000004333,None,0,2,2,2,10,0,10,0,552.663005800001,,,,,,,,,,,,,,,552.6530327,552.663005800001,552.663005800001,553.5609272000002,552.663005800001,554.2611758999992,j,0,1.5817628000004333,None,left,19,"[20, 19, 20, 19, 20, 19]",6,shiftedgaze_L_19.png,j,0,3,results21,001,2026-04-14_14h56.14.606,mogelijke versie adaptive staircase builder,,2026.1.3,59.966886286312125,2026-04-14 14h56.14.783403 +0200,
20.5,ecc10neg,right,11,0,11,j,0,2.0935319000018353,None,0,2,2,2,11,0,11,0,554.3433369000013,,,,,,,,,,,,,,,554.3394990999986,554.3433369000013,554.3433369000013,555.2611011999979,554.3433369000013,556.4444666999989,j,0,2.0935319000018353,None,left,20,"[20, 19, 20, 19, 20, 19]",6,shiftedgaze_L_20.png,j,0,3,results21,001,2026-04-14_14h56.14.606,mogelijke versie adaptive staircase builder,,2026.1.3,59.966886286312125,2026-04-14 14h56.14.783403 +0200,
20.5,ecc10neg,right,12,0,12,f,0,1.7715232000009564,None,0,2,2,2,12,0,12,0,556.5293631999994,,,,,,,,,,,,,,,556.5251095999993,556.5293631999994,556.5293631999994,557.4443111,556.5293631999994,558.3126105999982,f,0,1.7715232000009564,None,direct,20,"[20, 19, 20, 19, 20, 19]",6,shifteddirectgaze.png,f,0,3,results21,001,2026-04-14_14h56.14.606,mogelijke versie adaptive staircase builder,,2026.1.3,59.966886286312125,2026-04-14 14h56.14.783403 +0200,
20.5,ecc10neg,right,13,0,13,j,0,2.099081699998351,None,0,2,2,2,13,0,13,0,558.3943389999986,,,,,,,,,,,,,,,558.3902495000002,558.3943389999986,558.3943389999986,559.3276250999988,558.3943389999986,560.495270200001,j,0,2.099081699998351,None,left,20,"[20, 19, 20, 19, 20, 19]",6,shiftedgaze_L_20.png,j,0,3,results21,001,2026-04-14_14h56.14.606,mogelijke versie adaptive staircase builder,,2026.1.3,59.966886286312125,2026-04-14 14h56.14.783403 +0200,
20.5,ecc10neg,right,14,0,14,f,0,2.2911621000021114,None,0,2,2,2,14,0,14,0,560.5775979999999,,,,,,,,,,,,,,,560.5736742000008,560.5775979999999,560.5775979999999,561.5109957999994,560.5775979999999,562.8777941000008,f,0,2.2911621000021114,None,direct,20,"[20, 19, 20, 19, 20, 19]",6,shifteddirectgaze.png,f,0,3,results21,001,2026-04-14_14h56.14.606,mogelijke versie adaptive staircase builder,,2026.1.3,59.966886286312125,2026-04-14 14h56.14.783403 +0200,
20.5,ecc10neg,right,15,0,15,f,0,1.63567029999831,None,0,2,2,2,15,0,15,0,562.9612244999989,,,,,,,,,,,,,,,562.9571737000006,562.9612244999989,562.9612244999989,563.8781158999991,562.9612244999989,564.6110769000006,f,0,1.63567029999831,None,direct,20,"[20, 19, 20, 19, 20, 19]",6,shifteddirectgaze.png,f,0,3,results21,001,2026-04-14_14h56.14.606,mogelijke versie adaptive staircase builder,,2026.1.3,59.966886286312125,2026-04-14 14h56.14.783403 +0200,
20.5,ecc10neg,right,16,0,16,j,0,1.455299900000682,None,0,2,2,2,16,0,16,0,564.6934700999991,,,,,,,,,,,,,,,564.6895545999978,564.6934700999991,564.6934700999991,565.6110741000011,564.6934700999991,566.1610647999987,j,0,1.455299900000682,None,left,20,"[20, 19, 20, 19, 20, 19]",6,shiftedgaze_L_20.png,j,0,3,results21,001,2026-04-14_14h56.14.606,mogelijke versie adaptive staircase builder,,2026.1.3,59.966886286312125,2026-04-14 14h56.14.783403 +0200,
20.5,ecc10neg,right,17,0,17,f,1,1.4566291000010096,None,0,2,2,2,17,0,17,0,566.2443596000012,,,,,,,,,,,,,,,566.2404036000007,566.2443596000012,566.2443596000012,567.1611774999983,566.2443596000012,567.7116497999996,f,1,1.4566291000010096,None,left,20,"[20, 19, 20, 19, 20, 19, 20]",7,shiftedgaze_L_20.png,f,1,3,results21,001,2026-04-14_14h56.14.606,mogelijke versie adaptive staircase builder,,2026.1.3,59.966886286312125,2026-04-14 14h56.14.783403 +0200,
20.5,ecc10neg,right,18,0,18,f,0,1.60867529999814,None,0,2,2,2,18,0,18,0,567.7966296000013,,,,,,,,,,,,,,,567.7925647000011,567.7966296000013,567.7966296000013,568.7273808999998,567.7966296000013,569.4116399000013,f,0,1.60867529999814,None,direct,19,"[20, 19, 20, 19, 20, 19, 20, 19]",8,shifteddirectgaze.png,f,0,3,results21,001,2026-04-14_14h56.14.606,mogelijke versie adaptive staircase builder,,2026.1.3,59.966886286312125,2026-04-14 14h56.14.783403 +0200,
20.5,ecc10neg,right,19,0,19,j,1,2.2634171999998216,None,0,2,2,2,19,0,19,0,569.4939339999983,,,,,,,,,,,,,,,569.4897769999989,569.4939339999983,569.4939339999983,570.411374299998,569.4939339999983,571.7616042000009,j,1,2.2634171999998216,None,direct,20,"[20, 19, 20, 19, 20, 19, 20, 19, 20]",9,shifteddirectgaze.png,j,1,3,results21,001,2026-04-14_14h56.14.606,mogelijke versie adaptive staircase builder,,2026.1.3,59.966886286312125,2026-04-14 14h56.14.783403 +0200,
20.5,ecc10neg,right,20,0,20,f,0,1.5928784999996424,None,0,2,2,2,20,0,20,0,571.8441258999992,,,,,,,,,,,,,,,571.8401621000012,571.8441258999992,571.8441258999992,572.7774528000009,571.8441258999992,573.4449519000009,f,0,1.5928784999996424,None,direct,19,"[20, 19, 20, 19, 20, 19, 20, 19, 20, 19]",10,shifteddirectgaze.png,f,0,3,results21,001,2026-04-14_14h56.14.606,mogelijke versie adaptive staircase builder,,2026.1.3,59.966886286312125,2026-04-14 14h56.14.783403 +0200,
20.5,ecc10neg,right,21,0,21,f,1,1.6119217999985267,None,0,2,2,2,21,0,21,0,573.5450352999978,,,,,,,,,,,,,,,573.535390699999,573.5450352999978,573.5450352999978,574.4446607999998,573.5450352999978,575.1610495999994,f,1,1.6119217999985267,None,right,20,"[20, 19, 20, 19, 20, 19, 20, 19, 20, 19, 20]",11,shiftedgaze_R_20.png,f,1,3,results21,001,2026-04-14_14h56.14.606,mogelijke versie adaptive staircase builder,,2026.1.3,59.966886286312125,2026-04-14 14h56.14.783403 +0200,
20.5,ecc10neg,right,22,0,22,j,0,1.6241550000013376,None,0,2,2,2,22,0,22,0,575.2607693999998,,,,,,,,,,,,,,,575.2500446999984,575.2607693999998,575.2607693999998,576.1612005999996,575.2607693999998,576.8943822000001,j,0,1.6241550000013376,None,left,19,"[20, 19, 20, 19, 20, 19, 20, 19, 20, 19, 20, 19]",12,shiftedgaze_L_19.png,j,0,3,results21,001,2026-04-14_14h56.14.606,mogelijke versie adaptive staircase builder,,2026.1.3,59.966886286312125,2026-04-14 14h56.14.783403 +0200,
20.5,ecc10neg,right,23,0,23,f,1,1.77147530000002,None,0,2,2,2,23,0,23,0,576.9776328999978,,,,,,,,,,,,,,,576.9737131000002,576.9776328999978,576.9776328999978,577.8942088000003,576.9776328999978,578.7617195999992,f,1,1.77147530000002,None,left,20,"[20, 19, 20, 19, 20, 19, 20, 19, 20, 19, 20, 19, 20]",13,shiftedgaze_L_20.png,f,1,3,results21,001,2026-04-14_14h56.14.606,mogelijke versie adaptive staircase builder,,2026.1.3,59.966886286312125,2026-04-14 14h56.14.783403 +0200,
20.5,ecc10neg,right,24,0,24,f,1,1.304606599998806,None,0,2,2,2,24,0,24,0,578.8444954000006,,,,,,,,,,,,,,,578.8405146000005,578.8444954000006,578.8444954000006,579.7607691999983,578.8444954000006,580.1616075999991,f,1,1.304606599998806,None,left,19,"[20, 19, 20, 19, 20, 19, 20, 19, 20, 19, 20, 19, 20]",13,shiftedgaze_L_19.png,f,1,3,results21,001,2026-04-14_14h56.14.606,mogelijke versie adaptive staircase builder,,2026.1.3,59.966886286312125,2026-04-14 14h56.14.783403 +0200,
20.5,ecc10neg,right,25,0,25,f,0,1.6074828000018897,None,0,2,2,2,25,0,25,0,580.2458736000008,,,,,,,,,,,,,,,580.2420209000011,580.2458736000008,580.2458736000008,581.1611749000003,580.2458736000008,581.8616178999982,f,0,1.6074828000018897,None,direct,18,"[20, 19, 20, 19, 20, 19, 20, 19, 20, 19, 20, 19, 20, 18]",14,shifteddirectgaze.png,f,0,3,results21,001,2026-04-14_14h56.14.606,mogelijke versie adaptive staircase builder,,2026.1.3,59.966886286312125,2026-04-14 14h56.14.783403 +0200,
20.5,ecc10neg,right,26,0,26,f,1,1.6562210000010964,None,0,2,2,2,26,0,26,0,581.9595989000009,,,,,,,,,,,,,,,581.949220399998,581.9595989000009,581.9595989000009,582.8610179999996,581.9595989000009,583.6162113999999,f,1,1.6562210000010964,None,right,19,"[20, 19, 20, 19, 20, 19, 20, 19, 20, 19, 20, 19, 20, 18, 19]",15,shiftedgaze_R_19.png,f,1,3,results21,001,2026-04-14_14h56.14.606,mogelijke versie adaptive staircase builder,,2026.1.3,59.966886286312125,2026-04-14 14h56.14.783403 +0200,
20.5,ecc10neg,right,27,0,27,j,0,1.3737825000025623,None,0,2,2,2,27,0,27,0,583.7113718,,,,,,,,,,,,,,,583.7072224000003,583.7113718,583.7113718,584.6280654000002,583.7113718,585.094411099999,j,0,1.3737825000025623,None,right,18,"[20, 19, 20, 19, 20, 19, 20, 19, 20, 19, 20, 19, 20, 18, 19, 18]",16,shiftedgaze_R_18.png,j,0,3,results21,001,2026-04-14_14h56.14.606,mogelijke versie adaptive staircase builder,,2026.1.3,59.966886286312125,2026-04-14 14h56.14.783403 +0200,
20.5,ecc10neg,right,28,0,28,j,0,1.3485443999998097,None,0,2,2,2,28,0,28,0,585.1847788999985,,,,,,,,,,,,,,,585.1808168999996,585.1847788999985,585.1847788999985,586.0947689999994,585.1847788999985,586.5448388000004,j,0,1.3485443999998097,None,right,19,"[20, 19, 20, 19, 20, 19, 20, 19, 20, 19, 20, 19, 20, 18, 19, 18]",16,shiftedgaze_R_19.png,j,0,3,results21,001,2026-04-14_14h56.14.606,mogelijke versie adaptive staircase builder,,2026.1.3,59.966886286312125,2026-04-14 14h56.14.783403 +0200,
20.5,ecc10neg,right,29,0,29,f,1,1.303729100000055,None,0,2,2,2,29,0,29,0,586.637255900001,,,,,,,,,,,,,,,586.6274973,586.637255900001,586.637255900001,587.5608409999986,586.637255900001,587.9445742999997,f,1,1.303729100000055,None,left,20,"[20, 19, 20, 19, 20, 19, 20, 19, 20, 19, 20, 19, 20, 18, 19, 18, 20]",17,shiftedgaze_L_20.png,f,1,3,results21,001,2026-04-14_14h56.14.606,mogelijke versie adaptive staircase builder,,2026.1.3,59.966886286312125,2026-04-14 14h56.14.783403 +0200,
20.5,ecc10neg,right,30,0,30,f,0,1.93008220000047,None,0,2,2,2,30,0,30,0,588.026881400001,,,,,,,,,,,,,,,588.0228796999982,588.026881400001,588.026881400001,588.9447106999978,588.026881400001,589.9613481999986,f,0,1.93008220000047,None,direct,19,"[20, 19, 20, 19, 20, 19, 20, 19, 20, 19, 20, 19, 20, 18, 19, 18, 20, 19]",18,shifteddirectgaze.png,f,0,3,results21,001,2026-04-14_14h56.14.606,mogelijke versie adaptive staircase builder,,2026.1.3,59.966886286312125,2026-04-14 14h56.14.783403 +0200,
20.5,ecc10neg,right,31,0,31,f,1,1.6337888000016392,None,0,2,2,2,31,0,31,0,590.0596218999999,,,,,,,,,,,,,,,590.0498138000003,590.0596218999999,590.0596218999999,590.9610790000006,590.0596218999999,591.6952020999997,f,1,1.6337888000016392,None,right,20,"[20, 19, 20, 19, 20, 19, 20, 19, 20, 19, 20, 19, 20, 18, 19, 18, 20, 19, 20]",19,shiftedgaze_R_20.png,f,1,3,results21,001,2026-04-14_14h56.14.606,mogelijke versie adaptive staircase builder,,2026.1.3,59.966886286312125,2026-04-14 14h56.14.783403 +0200,
20.5,ecc10neg,right,32,0,32,f,1,1.4062679000016942,None,0,2,2,2,32,0,32,0,591.7831110999978,,,,,,,,,,,,,,,591.7788660000006,591.7831110999978,591.7831110999978,592.6944973999998,591.7831110999978,593.1951391000002,f,1,1.4062679000016942,None,right,19,"[20, 19, 20, 19, 20, 19, 20, 19, 20, 19, 20, 19, 20, 18, 19, 18, 20, 19, 20]",19,shiftedgaze_R_19.png,f,1,3,results21,001,2026-04-14_14h56.14.606,mogelijke versie adaptive staircase builder,,2026.1.3,59.966886286312125,2026-04-14 14h56.14.783403 +0200,
20.5,ecc10neg,right,33,0,33,f,1,1.1680894999990414,None,0,2,2,2,33,0,33,0,593.2928814000006,,,,,,,,,,,,,,,593.2822135999995,593.2928814000006,593.2928814000006,594.1946115999999,593.2928814000006,594.4612917999984,f,1,1.1680894999990414,None,left,18,"[20, 19, 20, 19, 20, 19, 20, 19, 20, 19, 20, 19, 20, 18, 19, 18, 20, 19, 20]",19,shiftedgaze_L_18.png,f,1,3,results21,001,2026-04-14_14h56.14.606,mogelijke versie adaptive staircase builder,,2026.1.3,59.966886286312125,2026-04-14 14h56.14.783403 +0200,
20.5,ecc10neg,right,34,0,34,j,0,1.5030321999984153,None,0,2,2,2,34,0,34,0,594.5502514,,,,,,,,,,,,,,,594.5462640000005,594.5502514,594.5502514,595.4613059000003,594.5502514,596.0617018000012,j,0,1.5030321999984153,None,left,17,"[20, 19, 20, 19, 20, 19, 20, 19, 20, 19, 20, 19, 20, 18, 19, 18, 20, 19, 20, 17]",20,shiftedgaze_L_17.png,j,0,3,results21,001,2026-04-14_14h56.14.606,mogelijke versie adaptive staircase builder,,2026.1.3,59.966886286312125,2026-04-14 14h56.14.783403 +0200,
20.5,ecc10neg,right,35,0,35,f,1,1.2209656000013638,None,0,2,2,2,35,0,35,0,596.1442137999984,,,,,,,,,,,,,,,596.1401927999977,596.1442137999984,596.1442137999984,597.0780182999988,596.1442137999984,597.3781516999989,f,1,1.2209656000013638,None,left,18,"[20, 19, 20, 19, 20, 19, 20, 19, 20, 19, 20, 19, 20, 18, 19, 18, 20, 19, 20, 17, 18]",21,shiftedgaze_L_18.png,f,1,3,results21,001,2026-04-14_14h56.14.606,mogelijke versie adaptive staircase builder,,2026.1.3,59.966886286312125,2026-04-14 14h56.14.783403 +0200,
20.5,ecc10neg,right,36,0,36,f,1,1.3736409000011918,None,0,2,2,2,36,0,36,0,597.4632687999983,,,,,,,,,,,,,,,597.4593187999999,597.4632687999983,597.4632687999983,598.377551900001,597.4632687999983,598.8451117000004,f,1,1.3736409000011918,None,left,17,"[20, 19, 20, 19, 20, 19, 20, 19, 20, 19, 20, 19, 20, 18, 19, 18, 20, 19, 20, 17, 18]",21,shiftedgaze_L_17.png,f,1,3,results21,001,2026-04-14_14h56.14.606,mogelijke versie adaptive staircase builder,,2026.1.3,59.966886286312125,2026-04-14 14h56.14.783403 +0200,
20.5,ecc10neg,right,37,0,37,f,0,1.4847482000004675,None,0,2,2,2,37,0,37,0,598.928523300001,,,,,,,,,,,,,,,598.9240342999983,598.928523300001,598.928523300001,599.861297200001,598.928523300001,600.4282850999989,f,0,1.4847482000004675,None,direct,16,"[20, 19, 20, 19, 20, 19, 20, 19, 20, 19, 20, 19, 20, 18, 19, 18, 20, 19, 20, 17, 18, 16]",22,shifteddirectgaze.png,f,0,3,results21,001,2026-04-14_14h56.14.606,mogelijke versie adaptive staircase builder,,2026.1.3,59.966886286312125,2026-04-14 14h56.14.783403 +0200,
20.5,ecc10neg,right,38,0,38,f,1,1.5473702999988745,None,0,2,2,2,38,0,38,0,600.5302370999998,,,,,,,,,,,,,,,600.520564800001,600.5302370999998,600.5302370999998,601.4276422000003,600.5302370999998,602.0784445999998,f,1,1.5473702999988745,None,right,17,"[20, 19, 20, 19, 20, 19, 20, 19, 20, 19, 20, 19, 20, 18, 19, 18, 20, 19, 20, 17, 18, 16, 17]",23,shiftedgaze_R_17.png,f,1,3,results21,001,2026-04-14_14h56.14.606,mogelijke versie adaptive staircase builder,,2026.1.3,59.966886286312125,2026-04-14 14h56.14.783403 +0200,
20.5,ecc10neg,right,39,0,39,f,0,1.4703451999994286,None,0,2,2,2,39,0,39,0,602.1745246999999,,,,,,,,,,,,,,,602.1646493999979,602.1745246999999,602.1745246999999,603.077685100001,602.1745246999999,603.661041299998,f,0,1.4703451999994286,None,direct,16,"[20, 19, 20, 19, 20, 19, 20, 19, 20, 19, 20, 19, 20, 18, 19, 18, 20, 19, 20, 17, 18, 16, 17, 16]",24,shifteddirectgaze.png,f,0,3,results21,001,2026-04-14_14h56.14.606,mogelijke versie adaptive staircase builder,,2026.1.3,59.966886286312125,2026-04-14 14h56.14.783403 +0200,
20.5,ecc10neg,right,40,0,40,f,1,1.523529599999165,None,0,2,2,2,40,0,40,0,603.7541095999986,,,,,,,,,,,,,,,603.7441784000002,603.7541095999986,603.7541095999986,604.6609132000012,603.7541095999986,605.2785062000003,f,1,1.523529599999165,None,right,17,"[20, 19, 20, 19, 20, 19, 20, 19, 20, 19, 20, 19, 20, 18, 19, 18, 20, 19, 20, 17, 18, 16, 17, 16, 17]",25,shiftedgaze_R_17.png,f,1,3,results21,001,2026-04-14_14h56.14.606,mogelijke versie adaptive staircase builder,,2026.1.3,59.966886286312125,2026-04-14 14h56.14.783403 +0200,
20.5,ecc10neg,right,41,0,41,j,1,1.4225837000012689,None,0,2,2,2,41,0,41,0,605.3666626000013,,,,,,,,,,,,,,,605.3566862000007,605.3666626000013,605.3666626000013,606.2943902000006,605.3666626000013,606.7949847999989,j,1,1.4225837000012689,None,direct,16,"[20, 19, 20, 19, 20, 19, 20, 19, 20, 19, 20, 19, 20, 18, 19, 18, 20, 19, 20, 17, 18, 16, 17, 16, 17]",25,shifteddirectgaze.png,j,1,3,results21,001,2026-04-14_14h56.14.606,mogelijke versie adaptive staircase builder,,2026.1.3,59.966886286312125,2026-04-14 14h56.14.783403 +0200,
20.5,ecc10neg,right,42,0,42,f,0,1.534265400001459,None,0,2,2,2,42,0,42,0,606.8790192999986,,,,,,,,,,,,,,,606.8749686999981,606.8790192999986,606.8790192999986,607.7944113999984,606.8790192999986,608.4282667000007,f,0,1.534265400001459,None,direct,15,"[20, 19, 20, 19, 20, 19, 20, 19, 20, 19, 20, 19, 20, 18, 19, 18, 20, 19, 20, 17, 18, 16, 17, 16, 17, 15]",26,shifteddirectgaze.png,f,0,3,results21,001,2026-04-14_14h56.14.606,mogelijke versie adaptive staircase builder,,2026.1.3,59.966886286312125,2026-04-14 14h56.14.783403 +0200,
20.5,ecc10neg,right,43,0,43,f,1,1.1396755999994639,None,0,2,2,2,43,0,43,0,608.5379265999982,,,,,,,,,,,,,,,608.5282559999978,608.5379265999982,608.5379265999982,609.4278162999981,608.5379265999982,609.6784192000014,f,1,1.1396755999994639,None,right,16,"[20, 19, 20, 19, 20, 19, 20, 19, 20, 19, 20, 19, 20, 18, 19, 18, 20, 19, 20, 17, 18, 16, 17, 16, 17, 15, 16]",27,shiftedgaze_R_16.png,f,1,3,results21,001,2026-04-14_14h56.14.606,mogelijke versie adaptive staircase builder,,2026.1.3,59.966886286312125,2026-04-14 14h56.14.783403 +0200,
20.5,ecc10neg,right,44,0,44,f,1,1.1479516999970656,None,0,2,2,2,44,0,44,0,609.7773409000001,,,,,,,,,,,,,,,609.7671268999984,609.7773409000001,609.7773409000001,610.6779930000012,609.7773409000001,610.9283078999979,f,1,1.1479516999970656,None,right,15,"[20, 19, 20, 19, 20, 19, 20, 19, 20, 19, 20, 19, 20, 18, 19, 18, 20, 19, 20, 17, 18, 16, 17, 16, 17, 15, 16]",27,shiftedgaze_R_15.png,f,1,3,results21,001,2026-04-14_14h56.14.606,mogelijke versie adaptive staircase builder,,2026.1.3,59.966886286312125,2026-04-14 14h56.14.783403 +0200,
20.5,ecc10neg,right,45,0,45,f,0,1.0806861000019126,None,0,2,2,2,45,0,45,0,611.0123511999991,,,,,,,,,,,,,,,611.0083274999997,611.0123511999991,611.0123511999991,611.9278530999982,611.0123511999991,612.0945852000004,f,0,1.0806861000019126,None,direct,14,"[20, 19, 20, 19, 20, 19, 20, 19, 20, 19, 20, 19, 20, 18, 19, 18, 20, 19, 20, 17, 18, 16, 17, 16, 17, 15, 16, 14]",28,shifteddirectgaze.png,f,0,3,results21,001,2026-04-14_14h56.14.606,mogelijke versie adaptive staircase builder,,2026.1.3,59.966886286312125,2026-04-14 14h56.14.783403 +0200,
20.5,ecc10neg,right,46,0,46,f,0,1.2096079000002646,None,0,2,2,2,46,0,46,0,612.1791320000011,,,,,,,,,,,,,,,612.1744858999991,612.1791320000011,612.1791320000011,613.0946784000007,612.1791320000011,613.3945127999978,f,0,1.2096079000002646,None,direct,15,"[20, 19, 20, 19, 20, 19, 20, 19, 20, 19, 20, 19, 20, 18, 19, 18, 20, 19, 20, 17, 18, 16, 17, 16, 17, 15, 16, 14]",28,shifteddirectgaze.png,f,0,3,results21,001,2026-04-14_14h56.14.606,mogelijke versie adaptive staircase builder,,2026.1.3,59.966886286312125,2026-04-14 14h56.14.783403 +0200,
20.5,ecc10neg,right,47,0,47,f,1,0.9387490000008256,None,0,2,2,2,47,0,47,0,613.5061352999983,,,,,,,,,,,,,,,613.4966200999988,613.5061352999983,613.5061352999983,614.3946035999979,613.5061352999983,614.4450880000004,f,1,0.9387490000008256,None,right,16,"[20, 19, 20, 19, 20, 19, 20, 19, 20, 19, 20, 19, 20, 18, 19, 18, 20, 19, 20, 17, 18, 16, 17, 16, 17, 15, 16, 14, 16]",29,shiftedgaze_R_16.png,f,1,3,results21,001,2026-04-14_14h56.14.606,mogelijke versie adaptive staircase builder,,2026.1.3,59.966886286312125,2026-04-14 14h56.14.783403 +0200,
20.5,ecc10neg,right,48,0,48,j,1,1.507150500001444,None,0,2,2,2,48,0,48,0,614.5376116999978,,,,,,,,,,,,,,,614.5274815999983,614.5376116999978,614.5376116999978,615.4446745999994,614.5376116999978,616.061039199998,j,1,1.507150500001444,None,direct,15,"[20, 19, 20, 19, 20, 19, 20, 19, 20, 19, 20, 19, 20, 18, 19, 18, 20, 19, 20, 17, 18, 16, 17, 16, 17, 15, 16, 14, 16]",29,shifteddirectgaze.png,j,1,3,results21,001,2026-04-14_14h56.14.606,mogelijke versie adaptive staircase builder,,2026.1.3,59.966886286312125,2026-04-14 14h56.14.783403 +0200,
20.5,ecc10neg,right,49,0,49,f,1,0.6330125000022235,None,0,2,2,2,49,0,49,0,616.1558578000004,,,,,,,,,,,,,,,616.1517424999984,616.1558578000004,616.1558578000004,,616.1558578000004,616.7943171000006,f,1,0.6330125000022235,None,right,14,"[20, 19, 20, 19, 20, 19, 20, 19, 20, 19, 20, 19, 20, 18, 19, 18, 20, 19, 20, 17, 18, 16, 17, 16, 17, 15, 16, 14, 16]",29,shiftedgaze_R_14.png,f,1,3,results21,001,2026-04-14_14h56.14.606,mogelijke versie adaptive staircase builder,,2026.1.3,59.966886286312125,2026-04-14 14h56.14.783403 +0200,
20.5,ecc10neg,right,50,0,50,f,1,1.3044284999996307,None,0,2,2,2,50,0,50,0,616.8845039999978,,,,,,,,,,,,,,,616.8806025999984,616.8845039999978,616.8845039999978,617.7943648,616.8845039999978,618.1943489000005,f,1,1.3044284999996307,None,right,13,"[20, 19, 20, 19, 20, 19, 20, 19, 20, 19, 20, 19, 20, 18, 19, 18, 20, 19, 20, 17, 18, 16, 17, 16, 17, 15, 16, 14, 16]",29,shiftedgaze_R_13.png,f,1,3,results21,001,2026-04-14_14h56.14.606,mogelijke versie adaptive staircase builder,,2026.1.3,59.966886286312125,2026-04-14 14h56.14.783403 +0200,
20.5,ecc10neg,right,51,0,51,f,1,1.4450212999981886,None,0,2,2,2,51,0,51,0,618.3044367000002,,,,,,,,,,,,,,,618.2949747999992,618.3044367000002,618.3044367000002,619.1946648000012,618.3044367000002,619.7616873000006,f,1,1.4450212999981886,None,right,12,"[20, 19, 20, 19, 20, 19, 20, 19, 20, 19, 20, 19, 20, 18, 19, 18, 20, 19, 20, 17, 18, 16, 17, 16, 17, 15, 16, 14, 16]",29,shiftedgaze_R_12.png,f,1,3,results21,001,2026-04-14_14h56.14.606,mogelijke versie adaptive staircase builder,,2026.1.3,59.966886286312125,2026-04-14 14h56.14.783403 +0200,
20.5,ecc10neg,right,52,0,52,f,1,1.2837469999976747,None,0,2,2,2,52,0,52,0,619.8652001999981,,,,,,,,,,,,,,,619.8553835999992,619.8652001999981,619.8652001999981,620.7613371000007,619.8652001999981,621.1609949000012,f,1,1.2837469999976747,None,right,11,"[20, 19, 20, 19, 20, 19, 20, 19, 20, 19, 20, 19, 20, 18, 19, 18, 20, 19, 20, 17, 18, 16, 17, 16, 17, 15, 16, 14, 16]",29,shiftedgaze_R_11.png,f,1,3,results21,001,2026-04-14_14h56.14.606,mogelijke versie adaptive staircase builder,,2026.1.3,59.966886286312125,2026-04-14 14h56.14.783403 +0200,
20.5,ecc10neg,right,53,0,53,f,1,1.1961210999979812,None,0,2,2,2,53,0,53,0,621.2568996000009,,,,,,,,,,,,,,,621.2526925999991,621.2568996000009,621.2568996000009,622.1613469000004,621.2568996000009,622.4609190999981,f,1,1.1961210999979812,None,left,10,"[20, 19, 20, 19, 20, 19, 20, 19, 20, 19, 20, 19, 20, 18, 19, 18, 20, 19, 20, 17, 18, 16, 17, 16, 17, 15, 16, 14, 16]",29,shiftedgaze_L_10.png,f,1,3,results21,001,2026-04-14_14h56.14.606,mogelijke versie adaptive staircase builder,,2026.1.3,59.966886286312125,2026-04-14 14h56.14.783403 +0200,
20.5,ecc10neg,right,54,0,54,j,0,1.1789893999994092,None,0,2,2,2,54,0,54,0,622.5540145000014,,,,,,,,,,,,,,,622.549959699998,622.5540145000014,622.5540145000014,623.4613929000006,622.5540145000014,623.7450360000003,j,0,1.1789893999994092,None,right,9,"[20, 19, 20, 19, 20, 19, 20, 19, 20, 19, 20, 19, 20, 18, 19, 18, 20, 19, 20, 17, 18, 16, 17, 16, 17, 15, 16, 14, 16, 9]",30,shiftedgaze_R_9.png,j,0,3,results21,001,2026-04-14_14h56.14.606,mogelijke versie adaptive staircase builder,,2026.1.3,59.966886286312125,2026-04-14 14h56.14.783403 +0200,
20.5,ecc10neg,right,55,0,55,f,1,1.2073872000000847,None,0,2,2,2,55,0,55,0,623.8375062000014,,,,,,,,,,,,,,,623.8333907999986,623.8375062000014,623.8375062000014,624.7445196000008,623.8375062000014,625.0614413000003,f,1,1.2073872000000847,None,right,10,"[20, 19, 20, 19, 20, 19, 20, 19, 20, 19, 20, 19, 20, 18, 19, 18, 20, 19, 20, 17, 18, 16, 17, 16, 17, 15, 16, 14, 16, 9, 10]",31,shiftedgaze_R_10.png,f,1,3,results21,001,2026-04-14_14h56.14.606,mogelijke versie adaptive staircase builder,,2026.1.3,59.966886286312125,2026-04-14 14h56.14.783403 +0200,
20.5,ecc10neg,right,56,0,56,f,0,1.662663999999495,None,0,2,2,2,56,0,56,0,625.1581655000009,,,,,,,,,,,,,,,625.1542372000004,625.1581655000009,625.1581655000009,626.0610782000003,625.1581655000009,626.8281764999992,f,0,1.662663999999495,None,direct,9,"[20, 19, 20, 19, 20, 19, 20, 19, 20, 19, 20, 19, 20, 18, 19, 18, 20, 19, 20, 17, 18, 16, 17, 16, 17, 15, 16, 14, 16, 9, 10, 9]",32,shifteddirectgaze.png,f,0,3,results21,001,2026-04-14_14h56.14.606,mogelijke versie adaptive staircase builder,,2026.1.3,59.966886286312125,2026-04-14 14h56.14.783403 +0200,
20.5,ecc10neg,right,57,0,57,f,1,1.2342763000015111,None,0,2,2,2,57,0,57,0,626.9225469999983,,,,,,,,,,,,,,,626.9187616999989,626.9225469999983,626.9225469999983,627.827724499999,626.9225469999983,628.1613173000005,f,1,1.2342763000015111,None,right,10,"[20, 19, 20, 19, 20, 19, 20, 19, 20, 19, 20, 19, 20, 18, 19, 18, 20, 19, 20, 17, 18, 16, 17, 16, 17, 15, 16, 14, 16, 9, 10, 9, 10]",33,shiftedgaze_R_10.png,f,1,3,results21,001,2026-04-14_14h56.14.606,mogelijke versie adaptive staircase builder,,2026.1.3,59.966886286312125,2026-04-14 14h56.14.783403 +0200,
20.5,ecc10neg,right,58,0,58,f,1,1.5818351000016264,None,0,2,2,2,58,0,58,0,628.2550654000006,,,,,,,,,,,,,,,628.2511038999983,628.2550654000006,628.2550654000006,629.1609438999985,628.2550654000006,629.8448227999979,f,1,1.5818351000016264,None,right,9,"[20, 19, 20, 19, 20, 19, 20, 19, 20, 19, 20, 19, 20, 18, 19, 18, 20, 19, 20, 17, 18, 16, 17, 16, 17, 15, 16, 14, 16, 9, 10, 9, 10]",33,shiftedgaze_R_9.png,f,1,3,results21,001,2026-04-14_14h56.14.606,mogelijke versie adaptive staircase builder,,2026.1.3,59.966886286312125,2026-04-14 14h56.14.783403 +0200,
20.5,ecc10neg,right,59,0,59,j,0,1.5672816000005696,None,0,2,2,2,59,0,59,0,629.9496074999988,,,,,,,,,,,,,,,629.9454455999985,629.9496074999988,629.9496074999988,630.8443435000008,629.9496074999988,631.5279249999985,j,0,1.5672816000005696,None,left,8,"[20, 19, 20, 19, 20, 19, 20, 19, 20, 19, 20, 19, 20, 18, 19, 18, 20, 19, 20, 17, 18, 16, 17, 16, 17, 15, 16, 14, 16, 9, 10, 9, 10, 8]",34,shiftedgaze_L_8.png,j,0,3,results21,001,2026-04-14_14h56.14.606,mogelijke versie adaptive staircase builder,,2026.1.3,59.966886286312125,2026-04-14 14h56.14.783403 +0200,
20.5,ecc10neg,right,2,2,0,,,,,0,2,2,2,,,,,,,,,,,,,,,,,,,,,,,,,,,,,,,,,,,,,,results21,001,2026-04-14_14h56.14.606,mogelijke versie adaptive staircase builder,,2026.1.3,59.966886286312125,2026-04-14 14h56.14.783403 +0200,
